onset	duration	stimulusname	stimulusnumber	levelA	levelB	levelC	withinexemplarnumber	istarget	trialnumber	condition	response	correct	rt
18301	1	stim165_inanimate_plants_cactus_1.png	165	inanimate	plants	cactus	1	0	1	stars	1	correct	5.20745575032197
18501	1	stim161_inanimate_plants_bush_1.png	161	inanimate	plants	bush	1	0	1	stars	1	correct	5.20745575032197
18701	1	stim063_animate_insect_ant_3.png	63	animate	insect	ant	3	0	1	stars	1	correct	5.20745575032197
18901	1	stim196_inanimate_tools_scissors_4.png	196	inanimate	tools	scissors	4	0	1	stars	1	correct	5.20745575032197
19102	1	stim124_inanimate_fruits_apple_4.png	124	inanimate	fruits	apple	4	0	1	stars	1	correct	5.20745575032197
19301	1	stim017_animate_aquatic_shrimp_1.png	17	animate	aquatic	shrimp	1	0	1	stars	1	correct	5.20745575032197
19501	1	stim167_inanimate_plants_cactus_3.png	167	inanimate	plants	cactus	3	0	1	stars	1	correct	5.20745575032197
19701	1	stim143_inanimate_furniture_bed_3.png	143	inanimate	furniture	bed	3	0	1	stars	1	correct	5.20745575032197
19901	1	stim082_animate_mammal_cow_2.png	82	animate	mammal	cow	2	0	1	stars	1	correct	5.20745575032197
20101	1	stim122_inanimate_fruits_apple_2.png	122	inanimate	fruits	apple	2	0	1	stars	1	correct	5.20745575032197
20301	1	stim152_inanimate_furniture_closet_4.png	152	inanimate	furniture	closet	4	0	1	stars	1	correct	5.20745575032197
20501	1	stim172_inanimate_plants_sunflower_4.png	172	inanimate	plants	sunflower	4	0	1	stars	1	correct	5.20745575032197
20701	1	stim199_inanimate_tools_wrench_3.png	199	inanimate	tools	wrench	3	0	1	stars	1	correct	5.20745575032197
20901	1	stim194_inanimate_tools_scissors_2.png	194	inanimate	tools	scissors	2	0	1	stars	1	correct	5.20745575032197
21101	1	stim181_inanimate_tools_broom_1.png	181	inanimate	tools	broom	1	0	1	stars	1	correct	5.20745575032197
21301	1	stim039_animate_bird_penguin_3.png	39	animate	bird	penguin	3	0	1	stars	1	correct	5.20745575032197
21501	1	stim112_inanimate_clothing_jeans_4.png	112	inanimate	clothing	jeans	4	0	1	stars	1	correct	5.20745575032197
21701	1	stim110_inanimate_clothing_jeans_2.png	110	inanimate	clothing	jeans	2	0	1	stars	1	correct	5.20745575032197
21901	1	stim163_inanimate_plants_bush_3.png	163	inanimate	plants	bush	3	0	1	stars	1	correct	5.20745575032197
22101	1	stim031_animate_bird_parrot_3.png	31	animate	bird	parrot	3	0	1	stars	1	correct	5.20745575032197
22301	1	stim008_animate_aquatic_fish_4.png	8	animate	aquatic	fish	4	0	1	stars	1	correct	5.20745575032197
22501	1	stim104_inanimate_clothing_gloves_4.png	104	inanimate	clothing	gloves	4	0	1	stars	1	correct	5.20745575032197
22701	1	stim103_inanimate_clothing_gloves_3.png	103	inanimate	clothing	gloves	3	0	1	stars	1	correct	5.20745575032197
22901	1	stim148_inanimate_furniture_chair_4.png	148	inanimate	furniture	chair	4	0	1	stars	1	correct	5.20745575032197
23101	1	stim048_animate_human_child_4.png	48	animate	human	child	4	0	1	stars	1	correct	5.20745575032197
23301	1	stim047_animate_human_child_3.png	47	animate	human	child	3	0	1	stars	1	correct	5.20745575032197
23501	1	stim037_animate_bird_penguin_1.png	37	animate	bird	penguin	1	0	1	stars	1	correct	5.20745575032197
23701	1	stim040_animate_bird_penguin_4.png	40	animate	bird	penguin	4	0	1	stars	1	correct	5.20745575032197
23901	1	stim024_animate_bird_chicken_4.png	24	animate	bird	chicken	4	0	1	stars	1	correct	5.20745575032197
24101	1	stim078_animate_insect_grasshopper_2.png	78	animate	insect	grasshopper	2	0	1	stars	1	correct	5.20745575032197
24301	1	stim001_animate_aquatic_crab_1.png	1	animate	aquatic	crab	1	0	1	stars	1	correct	5.20745575032197
24501	1	stim080_animate_insect_grasshopper_4.png	80	animate	insect	grasshopper	4	0	1	stars	1	correct	5.20745575032197
24701	1	stim106_inanimate_clothing_hat_2.png	106	inanimate	clothing	hat	2	0	1	stars	1	correct	5.20745575032197
24901	1	stim041_animate_human_baby_1.png	41	animate	human	baby	1	0	1	stars	1	correct	5.20745575032197
25101	1	stim097_animate_mammal_rhino_1.png	97	animate	mammal	rhino	1	0	1	stars	1	correct	5.20745575032197
25301	1	stim064_animate_insect_ant_4.png	64	animate	insect	ant	4	0	1	stars	1	correct	5.20745575032197
25501	1	stim131_inanimate_fruits_grape_3.png	131	inanimate	fruits	grape	3	0	1	stars	1	correct	5.20745575032197
25701	1	stim150_inanimate_furniture_closet_2.png	150	inanimate	furniture	closet	2	0	1	stars	1	correct	5.20745575032197
25901	1	stim159_inanimate_furniture_table_3.png	159	inanimate	furniture	table	3	0	1	stars	1	correct	5.20745575032197
26101	1	stim102_inanimate_clothing_gloves_2.png	102	inanimate	clothing	gloves	2	0	1	stars	1	correct	5.20745575032197
26301	1	stim046_animate_human_child_2.png	46	animate	human	child	2	0	1	stars	1	correct	5.20745575032197
26501	1	stim136_inanimate_fruits_pineapple_4.png	136	inanimate	fruits	pineapple	4	0	1	stars	1	correct	5.20745575032197
26701	1	stim147_inanimate_furniture_chair_3.png	147	inanimate	furniture	chair	3	0	1	stars	1	correct	5.20745575032197
26901	1	stim109_inanimate_clothing_jeans_1.png	109	inanimate	clothing	jeans	1	0	1	stars	1	correct	5.20745575032197
27101	1	stim021_animate_bird_chicken_1.png	21	animate	bird	chicken	1	0	1	stars	1	correct	5.20745575032197
27301	1	stim079_animate_insect_grasshopper_3.png	79	animate	insect	grasshopper	3	0	1	stars	1	correct	5.20745575032197
27501	1	stim128_inanimate_fruits_banana_4.png	128	inanimate	fruits	banana	4	0	1	stars	1	correct	5.20745575032197
27701	1	stim050_animate_human_clown_2.png	50	animate	human	clown	2	0	1	stars	1	correct	5.20745575032197
27901	1	stim189_inanimate_tools_pan_1.png	189	inanimate	tools	pan	1	0	1	stars	1	correct	5.20745575032197
28101	1	stim065_animate_insect_bug_1.png	65	animate	insect	bug	1	0	1	stars	1	correct	5.20745575032197
28301	1	stim069_animate_insect_butterfly_1.png	69	animate	insect	butterfly	1	0	1	stars	1	correct	5.20745575032197
28501	1	stim153_inanimate_furniture_sofa_1.png	153	inanimate	furniture	sofa	1	0	1	stars	1	correct	5.20745575032197
28701	1	stim120_inanimate_clothing_socks_4.png	120	inanimate	clothing	socks	4	0	1	stars	1	correct	5.20745575032197
28901	1	stim146_inanimate_furniture_chair_2.png	146	inanimate	furniture	chair	2	0	1	stars	1	correct	5.20745575032197
29101	1	stim075_animate_insect_dragonfly_3.png	75	animate	insect	dragonfly	3	0	1	stars	1	correct	5.20745575032197
29301	1	stim027_animate_bird_duck_3.png	27	animate	bird	duck	3	0	1	stars	1	correct	5.20745575032197
29501	1	stim066_animate_insect_bug_2.png	66	animate	insect	bug	2	0	1	stars	1	correct	5.20745575032197
29701	1	stim200_inanimate_tools_wrench_4.png	200	inanimate	tools	wrench	4	0	1	stars	1	correct	5.20745575032197
29901	1	stim007_animate_aquatic_fish_3.png	7	animate	aquatic	fish	3	0	1	stars	1	correct	5.20745575032197
30101	1	stim118_inanimate_clothing_socks_2.png	118	inanimate	clothing	socks	2	0	1	stars	1	correct	5.20745575032197
30301	1	stim002_animate_aquatic_crab_2.png	2	animate	aquatic	crab	2	0	1	stars	1	correct	5.20745575032197
30501	1	stim186_inanimate_tools_hammer_2.png	186	inanimate	tools	hammer	2	0	1	stars	1	correct	5.20745575032197
30701	1	stim013_animate_aquatic_shark_1.png	13	animate	aquatic	shark	1	0	1	stars	1	correct	5.20745575032197
30901	1	stim096_animate_mammal_monkey_4.png	96	animate	mammal	monkey	4	0	1	stars	1	correct	5.20745575032197
31101	1	stim068_animate_insect_bug_4.png	68	animate	insect	bug	4	0	1	stars	1	correct	5.20745575032197
31301	1	stim156_inanimate_furniture_sofa_4.png	156	inanimate	furniture	sofa	4	0	1	stars	1	correct	5.20745575032197
31501	1	stim187_inanimate_tools_hammer_3.png	187	inanimate	tools	hammer	3	0	1	stars	1	correct	5.20745575032197
31701	1	stim151_inanimate_furniture_closet_3.png	151	inanimate	furniture	closet	3	0	1	stars	1	correct	5.20745575032197
31901	1	stim133_inanimate_fruits_pineapple_1.png	133	inanimate	fruits	pineapple	1	0	1	stars	1	correct	5.20745575032197
32102	1	stim192_inanimate_tools_pan_4.png	192	inanimate	tools	pan	4	0	1	stars	1	correct	5.20745575032197
32301	1	stim174_inanimate_plants_tree_2.png	174	inanimate	plants	tree	2	0	1	stars	1	correct	5.20745575032197
32501	1	stim116_inanimate_clothing_shirt_4.png	116	inanimate	clothing	shirt	4	0	1	stars	1	correct	5.20745575032197
32701	1	stim155_inanimate_furniture_sofa_3.png	155	inanimate	furniture	sofa	3	0	1	stars	1	correct	5.20745575032197
32902	1	stim140_inanimate_fruits_strawberry_4.png	140	inanimate	fruits	strawberry	4	0	1	stars	1	correct	5.20745575032197
33102	1	stim094_animate_mammal_monkey_2.png	94	animate	mammal	monkey	2	0	1	stars	1	correct	5.20745575032197
33301	1	stim095_animate_mammal_monkey_3.png	95	animate	mammal	monkey	3	0	1	stars	1	correct	5.20745575032197
33502	1	stim177_inanimate_plants_tulip_1.png	177	inanimate	plants	tulip	1	0	1	stars	1	correct	5.20745575032197
33702	1	stim190_inanimate_tools_pan_2.png	190	inanimate	tools	pan	2	0	1	stars	1	correct	5.20745575032197
33902	1	stim197_inanimate_tools_wrench_1.png	197	inanimate	tools	wrench	1	0	1	stars	1	correct	5.20745575032197
34102	1	stim158_inanimate_furniture_table_2.png	158	inanimate	furniture	table	2	0	1	stars	1	correct	5.20745575032197
34302	1	stim057_animate_human_sports_1.png	57	animate	human	sports	1	0	1	stars	1	correct	5.20745575032197
34502	1	stim170_inanimate_plants_sunflower_2.png	170	inanimate	plants	sunflower	2	0	1	stars	1	correct	5.20745575032197
34702	1	stim139_inanimate_fruits_strawberry_3.png	139	inanimate	fruits	strawberry	3	0	1	stars	1	correct	5.20745575032197
34902	1	stim022_animate_bird_chicken_2.png	22	animate	bird	chicken	2	0	1	stars	1	correct	5.20745575032197
35102	1	stim081_animate_mammal_cow_1.png	81	animate	mammal	cow	1	0	1	stars	1	correct	5.20745575032197
35302	1	stim178_inanimate_plants_tulip_2.png	178	inanimate	plants	tulip	2	0	1	stars	1	correct	5.20745575032197
35502	1	stim058_animate_human_sports_2.png	58	animate	human	sports	2	0	1	stars	1	correct	5.20745575032197
35702	1	stim198_inanimate_tools_wrench_2.png	198	inanimate	tools	wrench	2	0	1	stars	1	correct	5.20745575032197
35902	1	stim028_animate_bird_duck_4.png	28	animate	bird	duck	4	0	1	stars	1	correct	5.20745575032197
36102	1	stim107_inanimate_clothing_hat_3.png	107	inanimate	clothing	hat	3	0	1	stars	1	correct	5.20745575032197
36302	1	stim183_inanimate_tools_broom_3.png	183	inanimate	tools	broom	3	0	1	stars	1	correct	5.20745575032197
36502	1	stim044_animate_human_baby_4.png	44	animate	human	baby	4	0	1	stars	1	correct	5.20745575032197
36702	1	stim086_animate_mammal_giraffe_2.png	86	animate	mammal	giraffe	2	0	1	stars	1	correct	5.20745575032197
36902	1	stim076_animate_insect_dragonfly_4.png	76	animate	insect	dragonfly	4	0	1	stars	1	correct	5.20745575032197
37102	1	stim171_inanimate_plants_sunflower_3.png	171	inanimate	plants	sunflower	3	0	1	stars	1	correct	5.20745575032197
37302	1	stim154_inanimate_furniture_sofa_2.png	154	inanimate	furniture	sofa	2	0	1	stars	1	correct	5.20745575032197
37502	1	stim185_inanimate_tools_hammer_1.png	185	inanimate	tools	hammer	1	0	1	stars	1	correct	5.20745575032197
37702	1	stim049_animate_human_clown_1.png	49	animate	human	clown	1	0	1	stars	1	correct	5.20745575032197
37902	1	stim011_animate_aquatic_seahorse_3.png	11	animate	aquatic	seahorse	3	0	1	stars	1	correct	5.20745575032197
38102	1	stim061_animate_insect_ant_1.png	61	animate	insect	ant	1	0	1	stars	1	correct	5.20745575032197
38302	1	stim135_inanimate_fruits_pineapple_3.png	135	inanimate	fruits	pineapple	3	0	1	stars	1	correct	5.20745575032197
38502	1	stim121_inanimate_fruits_apple_1.png	121	inanimate	fruits	apple	1	0	1	stars	1	correct	5.20745575032197
38702	1	stim083_animate_mammal_cow_3.png	83	animate	mammal	cow	3	0	1	stars	1	correct	5.20745575032197
38902	1	stim067_animate_insect_bug_3.png	67	animate	insect	bug	3	0	1	stars	1	correct	5.20745575032197
39102	1	stim211_targets_shapes_star_3.png	211	targets	shapes	star	3	1	1	stars	1	correct	5.20745575032197
39302	1	stim019_animate_aquatic_shrimp_3.png	19	animate	aquatic	shrimp	3	0	1	stars	1	correct	5.20745575032197
39502	1	stim184_inanimate_tools_broom_4.png	184	inanimate	tools	broom	4	0	1	stars	1	correct	5.20745575032197
39702	1	stim176_inanimate_plants_tree_4.png	176	inanimate	plants	tree	4	0	1	stars	1	correct	5.20745575032197
39902	1	stim138_inanimate_fruits_strawberry_2.png	138	inanimate	fruits	strawberry	2	0	1	stars	1	correct	5.20745575032197
40102	1	stim130_inanimate_fruits_grape_2.png	130	inanimate	fruits	grape	2	0	1	stars	1	correct	5.20745575032197
40302	1	stim141_inanimate_furniture_bed_1.png	141	inanimate	furniture	bed	1	0	1	stars	1	correct	5.20745575032197
40502	1	stim074_animate_insect_dragonfly_2.png	74	animate	insect	dragonfly	2	0	1	stars	1	correct	5.20745575032197
40702	1	stim034_animate_bird_peacock_2.png	34	animate	bird	peacock	2	0	1	stars	1	correct	5.20745575032197
40902	1	stim195_inanimate_tools_scissors_3.png	195	inanimate	tools	scissors	3	0	1	stars	1	correct	5.20745575032197
41102	1	stim127_inanimate_fruits_banana_3.png	127	inanimate	fruits	banana	3	0	1	stars	1	correct	5.20745575032197
41302	1	stim091_animate_mammal_kangaroo_3.png	91	animate	mammal	kangaroo	3	0	1	stars	1	correct	5.20745575032197
41502	1	stim036_animate_bird_peacock_4.png	36	animate	bird	peacock	4	0	1	stars	1	correct	5.20745575032197
41702	1	stim038_animate_bird_penguin_2.png	38	animate	bird	penguin	2	0	1	stars	1	correct	5.20745575032197
41902	1	stim182_inanimate_tools_broom_2.png	182	inanimate	tools	broom	2	0	1	stars	1	correct	5.20745575032197
42102	1	stim160_inanimate_furniture_table_4.png	160	inanimate	furniture	table	4	0	1	stars	1	correct	5.20745575032197
42302	1	stim115_inanimate_clothing_shirt_3.png	115	inanimate	clothing	shirt	3	0	1	stars	1	correct	5.20745575032197
42502	1	stim134_inanimate_fruits_pineapple_2.png	134	inanimate	fruits	pineapple	2	0	1	stars	1	correct	5.20745575032197
42702	1	stim119_inanimate_clothing_socks_3.png	119	inanimate	clothing	socks	3	0	1	stars	1	correct	5.20745575032197
42902	1	stim030_animate_bird_parrot_2.png	30	animate	bird	parrot	2	0	1	stars	1	correct	5.20745575032197
43102	1	stim060_animate_human_sports_4.png	60	animate	human	sports	4	0	1	stars	1	correct	5.20745575032197
43302	1	stim053_animate_human_faces_1.png	53	animate	human	faces	1	0	1	stars	1	correct	5.20745575032197
43502	1	stim085_animate_mammal_giraffe_1.png	85	animate	mammal	giraffe	1	0	1	stars	1	correct	5.20745575032197
43702	1	stim089_animate_mammal_kangaroo_1.png	89	animate	mammal	kangaroo	1	0	1	stars	1	correct	5.20745575032197
43902	1	stim029_animate_bird_parrot_1.png	29	animate	bird	parrot	1	0	1	stars	1	correct	5.20745575032197
44102	1	stim051_animate_human_clown_3.png	51	animate	human	clown	3	0	1	stars	1	correct	5.20745575032197
44302	1	stim193_inanimate_tools_scissors_1.png	193	inanimate	tools	scissors	1	0	1	stars	1	correct	5.20745575032197
44502	1	stim162_inanimate_plants_bush_2.png	162	inanimate	plants	bush	2	0	1	stars	1	correct	5.20745575032197
44702	1	stim137_inanimate_fruits_strawberry_1.png	137	inanimate	fruits	strawberry	1	0	1	stars	1	correct	5.20745575032197
44902	1	stim175_inanimate_plants_tree_3.png	175	inanimate	plants	tree	3	0	1	stars	1	correct	5.20745575032197
45102	1	stim132_inanimate_fruits_grape_4.png	132	inanimate	fruits	grape	4	0	1	stars	1	correct	5.20745575032197
45302	1	stim062_animate_insect_ant_2.png	62	animate	insect	ant	2	0	1	stars	1	correct	5.20745575032197
45502	1	stim125_inanimate_fruits_banana_1.png	125	inanimate	fruits	banana	1	0	1	stars	1	correct	5.20745575032197
45702	1	stim006_animate_aquatic_fish_2.png	6	animate	aquatic	fish	2	0	1	stars	1	correct	5.20745575032197
45902	1	stim052_animate_human_clown_4.png	52	animate	human	clown	4	0	1	stars	1	correct	5.20745575032197
46102	1	stim179_inanimate_plants_tulip_3.png	179	inanimate	plants	tulip	3	0	1	stars	1	correct	5.20745575032197
46302	1	stim072_animate_insect_butterfly_4.png	72	animate	insect	butterfly	4	0	1	stars	1	correct	5.20745575032197
46502	1	stim093_animate_mammal_monkey_1.png	93	animate	mammal	monkey	1	0	1	stars	1	correct	5.20745575032197
46702	1	stim043_animate_human_baby_3.png	43	animate	human	baby	3	0	1	stars	1	correct	5.20745575032197
46902	1	stim073_animate_insect_dragonfly_1.png	73	animate	insect	dragonfly	1	0	1	stars	1	correct	5.20745575032197
47102	1	stim026_animate_bird_duck_2.png	26	animate	bird	duck	2	0	1	stars	1	correct	5.20745575032197
47302	1	stim101_inanimate_clothing_gloves_1.png	101	inanimate	clothing	gloves	1	0	1	stars	1	correct	5.20745575032197
47502	1	stim071_animate_insect_butterfly_3.png	71	animate	insect	butterfly	3	0	1	stars	1	correct	5.20745575032197
47702	1	stim142_inanimate_furniture_bed_2.png	142	inanimate	furniture	bed	2	0	1	stars	1	correct	5.20745575032197
47902	1	stim114_inanimate_clothing_shirt_2.png	114	inanimate	clothing	shirt	2	0	1	stars	1	correct	5.20745575032197
48102	1	stim188_inanimate_tools_hammer_4.png	188	inanimate	tools	hammer	4	0	1	stars	1	correct	5.20745575032197
48302	1	stim012_animate_aquatic_seahorse_4.png	12	animate	aquatic	seahorse	4	0	1	stars	1	correct	5.20745575032197
48502	1	stim070_animate_insect_butterfly_2.png	70	animate	insect	butterfly	2	0	1	stars	1	correct	5.20745575032197
48702	1	stim025_animate_bird_duck_1.png	25	animate	bird	duck	1	0	1	stars	1	correct	5.20745575032197
48902	1	stim149_inanimate_furniture_closet_1.png	149	inanimate	furniture	closet	1	0	1	stars	1	correct	5.20745575032197
49102	1	stim173_inanimate_plants_tree_1.png	173	inanimate	plants	tree	1	0	1	stars	1	correct	5.20745575032197
49302	1	stim042_animate_human_baby_2.png	42	animate	human	baby	2	0	1	stars	1	correct	5.20745575032197
49502	1	stim098_animate_mammal_rhino_2.png	98	animate	mammal	rhino	2	0	1	stars	1	correct	5.20745575032197
49702	1	stim084_animate_mammal_cow_4.png	84	animate	mammal	cow	4	0	1	stars	1	correct	5.20745575032197
49902	1	stim191_inanimate_tools_pan_3.png	191	inanimate	tools	pan	3	0	1	stars	1	correct	5.20745575032197
50102	1	stim166_inanimate_plants_cactus_2.png	166	inanimate	plants	cactus	2	0	1	stars	1	correct	5.20745575032197
50302	1	stim033_animate_bird_peacock_1.png	33	animate	bird	peacock	1	0	1	stars	1	correct	5.20745575032197
50502	1	stim157_inanimate_furniture_table_1.png	157	inanimate	furniture	table	1	0	1	stars	1	correct	5.20745575032197
50702	1	stim054_animate_human_faces_2.png	54	animate	human	faces	2	0	1	stars	1	correct	5.20745575032197
50902	1	stim035_animate_bird_peacock_3.png	35	animate	bird	peacock	3	0	1	stars	1	correct	5.20745575032197
51102	1	stim004_animate_aquatic_crab_4.png	4	animate	aquatic	crab	4	0	1	stars	1	correct	5.20745575032197
51302	1	stim123_inanimate_fruits_apple_3.png	123	inanimate	fruits	apple	3	0	1	stars	1	correct	5.20745575032197
51502	1	stim105_inanimate_clothing_hat_1.png	105	inanimate	clothing	hat	1	0	1	stars	1	correct	5.20745575032197
51702	1	stim015_animate_aquatic_shark_3.png	15	animate	aquatic	shark	3	0	1	stars	1	correct	5.20745575032197
51902	1	stim145_inanimate_furniture_chair_1.png	145	inanimate	furniture	chair	1	0	1	stars	1	correct	5.20745575032197
52102	1	stim032_animate_bird_parrot_4.png	32	animate	bird	parrot	4	0	1	stars	1	correct	5.20745575032197
52302	1	stim180_inanimate_plants_tulip_4.png	180	inanimate	plants	tulip	4	0	1	stars	1	correct	5.20745575032197
52502	1	stim077_animate_insect_grasshopper_1.png	77	animate	insect	grasshopper	1	0	1	stars	1	correct	5.20745575032197
52702	1	stim090_animate_mammal_kangaroo_2.png	90	animate	mammal	kangaroo	2	0	1	stars	1	correct	5.20745575032197
52902	1	stim003_animate_aquatic_crab_3.png	3	animate	aquatic	crab	3	0	1	stars	1	correct	5.20745575032197
53102	1	stim059_animate_human_sports_3.png	59	animate	human	sports	3	0	1	stars	1	correct	5.20745575032197
53302	1	stim113_inanimate_clothing_shirt_1.png	113	inanimate	clothing	shirt	1	0	1	stars	1	correct	5.20745575032197
53502	1	stim126_inanimate_fruits_banana_2.png	126	inanimate	fruits	banana	2	0	1	stars	1	correct	5.20745575032197
53702	1	stim099_animate_mammal_rhino_3.png	99	animate	mammal	rhino	3	0	1	stars	1	correct	5.20745575032197
53902	1	stim092_animate_mammal_kangaroo_4.png	92	animate	mammal	kangaroo	4	0	1	stars	1	correct	5.20745575032197
54102	1	stim056_animate_human_faces_4.png	56	animate	human	faces	4	0	1	stars	1	correct	5.20745575032197
54302	1	stim169_inanimate_plants_sunflower_1.png	169	inanimate	plants	sunflower	1	0	1	stars	1	correct	5.20745575032197
54502	1	stim055_animate_human_faces_3.png	55	animate	human	faces	3	0	1	stars	1	correct	5.20745575032197
54702	1	stim045_animate_human_child_1.png	45	animate	human	child	1	0	1	stars	1	correct	5.20745575032197
54902	1	stim010_animate_aquatic_seahorse_2.png	10	animate	aquatic	seahorse	2	0	1	stars	1	correct	5.20745575032197
55102	1	stim168_inanimate_plants_cactus_4.png	168	inanimate	plants	cactus	4	0	1	stars	1	correct	5.20745575032197
55302	1	stim117_inanimate_clothing_socks_1.png	117	inanimate	clothing	socks	1	0	1	stars	1	correct	5.20745575032197
55502	1	stim009_animate_aquatic_seahorse_1.png	9	animate	aquatic	seahorse	1	0	1	stars	1	correct	5.20745575032197
55702	1	stim108_inanimate_clothing_hat_4.png	108	inanimate	clothing	hat	4	0	1	stars	1	correct	5.20745575032197
55902	1	stim111_inanimate_clothing_jeans_3.png	111	inanimate	clothing	jeans	3	0	1	stars	1	correct	5.20745575032197
56102	1	stim005_animate_aquatic_fish_1.png	5	animate	aquatic	fish	1	0	1	stars	1	correct	5.20745575032197
56302	1	stim087_animate_mammal_giraffe_3.png	87	animate	mammal	giraffe	3	0	1	stars	1	correct	5.20745575032197
56502	1	stim016_animate_aquatic_shark_4.png	16	animate	aquatic	shark	4	0	1	stars	1	correct	5.20745575032197
56702	1	stim144_inanimate_furniture_bed_4.png	144	inanimate	furniture	bed	4	0	1	stars	1	correct	5.20745575032197
56902	1	stim020_animate_aquatic_shrimp_4.png	20	animate	aquatic	shrimp	4	0	1	stars	1	correct	5.20745575032197
57102	1	stim023_animate_bird_chicken_3.png	23	animate	bird	chicken	3	0	1	stars	1	correct	5.20745575032197
57302	1	stim129_inanimate_fruits_grape_1.png	129	inanimate	fruits	grape	1	0	1	stars	1	correct	5.20745575032197
57502	1	stim014_animate_aquatic_shark_2.png	14	animate	aquatic	shark	2	0	1	stars	1	correct	5.20745575032197
57702	1	stim100_animate_mammal_rhino_4.png	100	animate	mammal	rhino	4	0	1	stars	1	correct	5.20745575032197
57902	1	stim164_inanimate_plants_bush_4.png	164	inanimate	plants	bush	4	0	1	stars	1	correct	5.20745575032197
58102	1	stim018_animate_aquatic_shrimp_2.png	18	animate	aquatic	shrimp	2	0	1	stars	1	correct	5.20745575032197
58302	1	stim088_animate_mammal_giraffe_4.png	88	animate	mammal	giraffe	4	0	1	stars	1	correct	5.20745575032197
81253	1	stim001_animate_aquatic_crab_1.png	1	animate	aquatic	crab	1	0	2	boats	1	incorrect	1.77527715661563
81453	1	stim118_inanimate_clothing_socks_2.png	118	inanimate	clothing	socks	2	0	2	boats	1	incorrect	1.77527715661563
81653	1	stim162_inanimate_plants_bush_2.png	162	inanimate	plants	bush	2	0	2	boats	1	incorrect	1.77527715661563
81853	1	stim076_animate_insect_dragonfly_4.png	76	animate	insect	dragonfly	4	0	2	boats	1	incorrect	1.77527715661563
82053	1	stim021_animate_bird_chicken_1.png	21	animate	bird	chicken	1	0	2	boats	1	incorrect	1.77527715661563
82253	1	stim146_inanimate_furniture_chair_2.png	146	inanimate	furniture	chair	2	0	2	boats	1	incorrect	1.77527715661563
82453	1	stim132_inanimate_fruits_grape_4.png	132	inanimate	fruits	grape	4	0	2	boats	1	incorrect	1.77527715661563
82653	1	stim193_inanimate_tools_scissors_1.png	193	inanimate	tools	scissors	1	0	2	boats	1	incorrect	1.77527715661563
82853	1	stim113_inanimate_clothing_shirt_1.png	113	inanimate	clothing	shirt	1	0	2	boats	1	incorrect	1.77527715661563
83053	1	stim091_animate_mammal_kangaroo_3.png	91	animate	mammal	kangaroo	3	0	2	boats	1	incorrect	1.77527715661563
83253	1	stim130_inanimate_fruits_grape_2.png	130	inanimate	fruits	grape	2	0	2	boats	1	incorrect	1.77527715661563
83453	1	stim138_inanimate_fruits_strawberry_2.png	138	inanimate	fruits	strawberry	2	0	2	boats	1	incorrect	1.77527715661563
83653	1	stim155_inanimate_furniture_sofa_3.png	155	inanimate	furniture	sofa	3	0	2	boats	1	incorrect	1.77527715661563
83853	1	stim086_animate_mammal_giraffe_2.png	86	animate	mammal	giraffe	2	0	2	boats	1	incorrect	1.77527715661563
84053	1	stim049_animate_human_clown_1.png	49	animate	human	clown	1	0	2	boats	1	incorrect	1.77527715661563
84253	1	stim157_inanimate_furniture_table_1.png	157	inanimate	furniture	table	1	0	2	boats	1	incorrect	1.77527715661563
84453	1	stim144_inanimate_furniture_bed_4.png	144	inanimate	furniture	bed	4	0	2	boats	1	incorrect	1.77527715661563
84653	1	stim003_animate_aquatic_crab_3.png	3	animate	aquatic	crab	3	0	2	boats	1	incorrect	1.77527715661563
84853	1	stim061_animate_insect_ant_1.png	61	animate	insect	ant	1	0	2	boats	1	incorrect	1.77527715661563
85053	1	stim164_inanimate_plants_bush_4.png	164	inanimate	plants	bush	4	0	2	boats	1	incorrect	1.77527715661563
85253	1	stim073_animate_insect_dragonfly_1.png	73	animate	insect	dragonfly	1	0	2	boats	1	incorrect	1.77527715661563
85453	1	stim048_animate_human_child_4.png	48	animate	human	child	4	0	2	boats	1	incorrect	1.77527715661563
85653	1	stim137_inanimate_fruits_strawberry_1.png	137	inanimate	fruits	strawberry	1	0	2	boats	1	incorrect	1.77527715661563
85853	1	stim053_animate_human_faces_1.png	53	animate	human	faces	1	0	2	boats	1	incorrect	1.77527715661563
86053	1	stim070_animate_insect_butterfly_2.png	70	animate	insect	butterfly	2	0	2	boats	1	incorrect	1.77527715661563
86253	1	stim191_inanimate_tools_pan_3.png	191	inanimate	tools	pan	3	0	2	boats	1	incorrect	1.77527715661563
86453	1	stim095_animate_mammal_monkey_3.png	95	animate	mammal	monkey	3	0	2	boats	1	incorrect	1.77527715661563
86653	1	stim143_inanimate_furniture_bed_3.png	143	inanimate	furniture	bed	3	0	2	boats	1	incorrect	1.77527715661563
86853	1	stim074_animate_insect_dragonfly_2.png	74	animate	insect	dragonfly	2	0	2	boats	1	incorrect	1.77527715661563
87053	1	stim045_animate_human_child_1.png	45	animate	human	child	1	0	2	boats	1	incorrect	1.77527715661563
87253	1	stim175_inanimate_plants_tree_3.png	175	inanimate	plants	tree	3	0	2	boats	1	incorrect	1.77527715661563
87453	1	stim008_animate_aquatic_fish_4.png	8	animate	aquatic	fish	4	0	2	boats	1	incorrect	1.77527715661563
87653	1	stim103_inanimate_clothing_gloves_3.png	103	inanimate	clothing	gloves	3	0	2	boats	1	incorrect	1.77527715661563
87853	1	stim105_inanimate_clothing_hat_1.png	105	inanimate	clothing	hat	1	0	2	boats	1	incorrect	1.77527715661563
88053	1	stim180_inanimate_plants_tulip_4.png	180	inanimate	plants	tulip	4	0	2	boats	1	incorrect	1.77527715661563
88253	1	stim182_inanimate_tools_broom_2.png	182	inanimate	tools	broom	2	0	2	boats	1	incorrect	1.77527715661563
88453	1	stim161_inanimate_plants_bush_1.png	161	inanimate	plants	bush	1	0	2	boats	1	incorrect	1.77527715661563
88653	1	stim156_inanimate_furniture_sofa_4.png	156	inanimate	furniture	sofa	4	0	2	boats	1	incorrect	1.77527715661563
88853	1	stim022_animate_bird_chicken_2.png	22	animate	bird	chicken	2	0	2	boats	1	incorrect	1.77527715661563
89053	1	stim089_animate_mammal_kangaroo_1.png	89	animate	mammal	kangaroo	1	0	2	boats	1	incorrect	1.77527715661563
89253	1	stim114_inanimate_clothing_shirt_2.png	114	inanimate	clothing	shirt	2	0	2	boats	1	incorrect	1.77527715661563
89453	1	stim078_animate_insect_grasshopper_2.png	78	animate	insect	grasshopper	2	0	2	boats	1	incorrect	1.77527715661563
89653	1	stim140_inanimate_fruits_strawberry_4.png	140	inanimate	fruits	strawberry	4	0	2	boats	1	incorrect	1.77527715661563
89853	1	stim153_inanimate_furniture_sofa_1.png	153	inanimate	furniture	sofa	1	0	2	boats	1	incorrect	1.77527715661563
90053	1	stim088_animate_mammal_giraffe_4.png	88	animate	mammal	giraffe	4	0	2	boats	1	incorrect	1.77527715661563
90253	1	stim016_animate_aquatic_shark_4.png	16	animate	aquatic	shark	4	0	2	boats	1	incorrect	1.77527715661563
90453	1	stim185_inanimate_tools_hammer_1.png	185	inanimate	tools	hammer	1	0	2	boats	1	incorrect	1.77527715661563
90653	1	stim004_animate_aquatic_crab_4.png	4	animate	aquatic	crab	4	0	2	boats	1	incorrect	1.77527715661563
90853	1	stim124_inanimate_fruits_apple_4.png	124	inanimate	fruits	apple	4	0	2	boats	1	incorrect	1.77527715661563
91053	1	stim043_animate_human_baby_3.png	43	animate	human	baby	3	0	2	boats	1	incorrect	1.77527715661563
91253	1	stim030_animate_bird_parrot_2.png	30	animate	bird	parrot	2	0	2	boats	1	incorrect	1.77527715661563
91453	1	stim092_animate_mammal_kangaroo_4.png	92	animate	mammal	kangaroo	4	0	2	boats	1	incorrect	1.77527715661563
91653	1	stim072_animate_insect_butterfly_4.png	72	animate	insect	butterfly	4	0	2	boats	1	incorrect	1.77527715661563
91853	1	stim160_inanimate_furniture_table_4.png	160	inanimate	furniture	table	4	0	2	boats	1	incorrect	1.77527715661563
92053	1	stim069_animate_insect_butterfly_1.png	69	animate	insect	butterfly	1	0	2	boats	1	incorrect	1.77527715661563
92253	1	stim110_inanimate_clothing_jeans_2.png	110	inanimate	clothing	jeans	2	0	2	boats	1	incorrect	1.77527715661563
92453	1	stim200_inanimate_tools_wrench_4.png	200	inanimate	tools	wrench	4	0	2	boats	1	incorrect	1.77527715661563
92653	1	stim108_inanimate_clothing_hat_4.png	108	inanimate	clothing	hat	4	0	2	boats	1	incorrect	1.77527715661563
92853	1	stim036_animate_bird_peacock_4.png	36	animate	bird	peacock	4	0	2	boats	1	incorrect	1.77527715661563
93053	1	stim032_animate_bird_parrot_4.png	32	animate	bird	parrot	4	0	2	boats	1	incorrect	1.77527715661563
93253	1	stim102_inanimate_clothing_gloves_2.png	102	inanimate	clothing	gloves	2	0	2	boats	1	incorrect	1.77527715661563
93453	1	stim096_animate_mammal_monkey_4.png	96	animate	mammal	monkey	4	0	2	boats	1	incorrect	1.77527715661563
93653	1	stim195_inanimate_tools_scissors_3.png	195	inanimate	tools	scissors	3	0	2	boats	1	incorrect	1.77527715661563
93853	1	stim177_inanimate_plants_tulip_1.png	177	inanimate	plants	tulip	1	0	2	boats	1	incorrect	1.77527715661563
94053	1	stim198_inanimate_tools_wrench_2.png	198	inanimate	tools	wrench	2	0	2	boats	1	incorrect	1.77527715661563
94253	1	stim174_inanimate_plants_tree_2.png	174	inanimate	plants	tree	2	0	2	boats	1	incorrect	1.77527715661563
94453	1	stim017_animate_aquatic_shrimp_1.png	17	animate	aquatic	shrimp	1	0	2	boats	1	incorrect	1.77527715661563
94653	1	stim065_animate_insect_bug_1.png	65	animate	insect	bug	1	0	2	boats	1	incorrect	1.77527715661563
94853	1	stim051_animate_human_clown_3.png	51	animate	human	clown	3	0	2	boats	1	incorrect	1.77527715661563
95053	1	stim010_animate_aquatic_seahorse_2.png	10	animate	aquatic	seahorse	2	0	2	boats	1	incorrect	1.77527715661563
95253	1	stim084_animate_mammal_cow_4.png	84	animate	mammal	cow	4	0	2	boats	1	incorrect	1.77527715661563
95453	1	stim129_inanimate_fruits_grape_1.png	129	inanimate	fruits	grape	1	0	2	boats	1	incorrect	1.77527715661563
95653	1	stim117_inanimate_clothing_socks_1.png	117	inanimate	clothing	socks	1	0	2	boats	1	incorrect	1.77527715661563
95853	1	stim167_inanimate_plants_cactus_3.png	167	inanimate	plants	cactus	3	0	2	boats	1	incorrect	1.77527715661563
96053	1	stim187_inanimate_tools_hammer_3.png	187	inanimate	tools	hammer	3	0	2	boats	1	incorrect	1.77527715661563
96253	1	stim044_animate_human_baby_4.png	44	animate	human	baby	4	0	2	boats	1	incorrect	1.77527715661563
96453	1	stim207_targets_object_boats_3.png	207	targets	object	boats	3	1	2	boats	1	incorrect	1.77527715661563
96653	1	stim064_animate_insect_ant_4.png	64	animate	insect	ant	4	0	2	boats	1	incorrect	1.77527715661563
96853	1	stim147_inanimate_furniture_chair_3.png	147	inanimate	furniture	chair	3	0	2	boats	1	incorrect	1.77527715661563
97053	1	stim142_inanimate_furniture_bed_2.png	142	inanimate	furniture	bed	2	0	2	boats	1	incorrect	1.77527715661563
97253	1	stim067_animate_insect_bug_3.png	67	animate	insect	bug	3	0	2	boats	1	incorrect	1.77527715661563
97453	1	stim007_animate_aquatic_fish_3.png	7	animate	aquatic	fish	3	0	2	boats	1	incorrect	1.77527715661563
97653	1	stim087_animate_mammal_giraffe_3.png	87	animate	mammal	giraffe	3	0	2	boats	1	incorrect	1.77527715661563
97853	1	stim039_animate_bird_penguin_3.png	39	animate	bird	penguin	3	0	2	boats	1	incorrect	1.77527715661563
98053	1	stim106_inanimate_clothing_hat_2.png	106	inanimate	clothing	hat	2	0	2	boats	1	incorrect	1.77527715661563
98253	1	stim083_animate_mammal_cow_3.png	83	animate	mammal	cow	3	0	2	boats	1	incorrect	1.77527715661563
98453	1	stim116_inanimate_clothing_shirt_4.png	116	inanimate	clothing	shirt	4	0	2	boats	1	incorrect	1.77527715661563
98653	1	stim028_animate_bird_duck_4.png	28	animate	bird	duck	4	0	2	boats	1	incorrect	1.77527715661563
98853	1	stim006_animate_aquatic_fish_2.png	6	animate	aquatic	fish	2	0	2	boats	1	incorrect	1.77527715661563
99053	1	stim054_animate_human_faces_2.png	54	animate	human	faces	2	0	2	boats	1	incorrect	1.77527715661563
99253	1	stim165_inanimate_plants_cactus_1.png	165	inanimate	plants	cactus	1	0	2	boats	1	incorrect	1.77527715661563
99453	1	stim063_animate_insect_ant_3.png	63	animate	insect	ant	3	0	2	boats	1	incorrect	1.77527715661563
99653	1	stim023_animate_bird_chicken_3.png	23	animate	bird	chicken	3	0	2	boats	1	incorrect	1.77527715661563
99853	1	stim141_inanimate_furniture_bed_1.png	141	inanimate	furniture	bed	1	0	2	boats	1	incorrect	1.77527715661563
100053	1	stim148_inanimate_furniture_chair_4.png	148	inanimate	furniture	chair	4	0	2	boats	1	incorrect	1.77527715661563
100253	1	stim172_inanimate_plants_sunflower_4.png	172	inanimate	plants	sunflower	4	0	2	boats	1	incorrect	1.77527715661563
100453	1	stim190_inanimate_tools_pan_2.png	190	inanimate	tools	pan	2	0	2	boats	1	incorrect	1.77527715661563
100653	1	stim097_animate_mammal_rhino_1.png	97	animate	mammal	rhino	1	0	2	boats	1	incorrect	1.77527715661563
100853	1	stim119_inanimate_clothing_socks_3.png	119	inanimate	clothing	socks	3	0	2	boats	1	incorrect	1.77527715661563
101053	1	stim109_inanimate_clothing_jeans_1.png	109	inanimate	clothing	jeans	1	0	2	boats	1	incorrect	1.77527715661563
101253	1	stim012_animate_aquatic_seahorse_4.png	12	animate	aquatic	seahorse	4	0	2	boats	1	incorrect	1.77527715661563
101453	1	stim159_inanimate_furniture_table_3.png	159	inanimate	furniture	table	3	0	2	boats	1	incorrect	1.77527715661563
101653	1	stim173_inanimate_plants_tree_1.png	173	inanimate	plants	tree	1	0	2	boats	1	incorrect	1.77527715661563
101853	1	stim133_inanimate_fruits_pineapple_1.png	133	inanimate	fruits	pineapple	1	0	2	boats	1	incorrect	1.77527715661563
102053	1	stim059_animate_human_sports_3.png	59	animate	human	sports	3	0	2	boats	1	incorrect	1.77527715661563
102253	1	stim093_animate_mammal_monkey_1.png	93	animate	mammal	monkey	1	0	2	boats	1	incorrect	1.77527715661563
102453	1	stim081_animate_mammal_cow_1.png	81	animate	mammal	cow	1	0	2	boats	1	incorrect	1.77527715661563
102653	1	stim125_inanimate_fruits_banana_1.png	125	inanimate	fruits	banana	1	0	2	boats	1	incorrect	1.77527715661563
102853	1	stim060_animate_human_sports_4.png	60	animate	human	sports	4	0	2	boats	1	incorrect	1.77527715661563
103053	1	stim037_animate_bird_penguin_1.png	37	animate	bird	penguin	1	0	2	boats	1	incorrect	1.77527715661563
103253	1	stim040_animate_bird_penguin_4.png	40	animate	bird	penguin	4	0	2	boats	1	incorrect	1.77527715661563
103453	1	stim019_animate_aquatic_shrimp_3.png	19	animate	aquatic	shrimp	3	0	2	boats	1	incorrect	1.77527715661563
103653	1	stim020_animate_aquatic_shrimp_4.png	20	animate	aquatic	shrimp	4	0	2	boats	1	incorrect	1.77527715661563
103853	1	stim121_inanimate_fruits_apple_1.png	121	inanimate	fruits	apple	1	0	2	boats	1	incorrect	1.77527715661563
104053	1	stim135_inanimate_fruits_pineapple_3.png	135	inanimate	fruits	pineapple	3	0	2	boats	1	incorrect	1.77527715661563
104253	1	stim197_inanimate_tools_wrench_1.png	197	inanimate	tools	wrench	1	0	2	boats	1	incorrect	1.77527715661563
104453	1	stim123_inanimate_fruits_apple_3.png	123	inanimate	fruits	apple	3	0	2	boats	1	incorrect	1.77527715661563
104653	1	stim042_animate_human_baby_2.png	42	animate	human	baby	2	0	2	boats	1	incorrect	1.77527715661563
104853	1	stim139_inanimate_fruits_strawberry_3.png	139	inanimate	fruits	strawberry	3	0	2	boats	1	incorrect	1.77527715661563
105053	1	stim005_animate_aquatic_fish_1.png	5	animate	aquatic	fish	1	0	2	boats	1	incorrect	1.77527715661563
105253	1	stim168_inanimate_plants_cactus_4.png	168	inanimate	plants	cactus	4	0	2	boats	1	incorrect	1.77527715661563
105453	1	stim112_inanimate_clothing_jeans_4.png	112	inanimate	clothing	jeans	4	0	2	boats	1	incorrect	1.77527715661563
105653	1	stim066_animate_insect_bug_2.png	66	animate	insect	bug	2	0	2	boats	1	incorrect	1.77527715661563
105853	1	stim011_animate_aquatic_seahorse_3.png	11	animate	aquatic	seahorse	3	0	2	boats	1	incorrect	1.77527715661563
106053	1	stim034_animate_bird_peacock_2.png	34	animate	bird	peacock	2	0	2	boats	1	incorrect	1.77527715661563
106253	1	stim149_inanimate_furniture_closet_1.png	149	inanimate	furniture	closet	1	0	2	boats	1	incorrect	1.77527715661563
106453	1	stim018_animate_aquatic_shrimp_2.png	18	animate	aquatic	shrimp	2	0	2	boats	1	incorrect	1.77527715661563
106653	1	stim151_inanimate_furniture_closet_3.png	151	inanimate	furniture	closet	3	0	2	boats	1	incorrect	1.77527715661563
106853	1	stim176_inanimate_plants_tree_4.png	176	inanimate	plants	tree	4	0	2	boats	1	incorrect	1.77527715661563
107053	1	stim203_targets_object_boats_3.png	203	targets	object	boats	3	1	2	boats	1	incorrect	1.77527715661563
107253	1	stim145_inanimate_furniture_chair_1.png	145	inanimate	furniture	chair	1	0	2	boats	1	incorrect	1.77527715661563
107453	1	stim192_inanimate_tools_pan_4.png	192	inanimate	tools	pan	4	0	2	boats	1	incorrect	1.77527715661563
107653	1	stim094_animate_mammal_monkey_2.png	94	animate	mammal	monkey	2	0	2	boats	1	incorrect	1.77527715661563
107853	1	stim184_inanimate_tools_broom_4.png	184	inanimate	tools	broom	4	0	2	boats	1	incorrect	1.77527715661563
108053	1	stim026_animate_bird_duck_2.png	26	animate	bird	duck	2	0	2	boats	1	incorrect	1.77527715661563
108253	1	stim057_animate_human_sports_1.png	57	animate	human	sports	1	0	2	boats	1	incorrect	1.77527715661563
108453	1	stim100_animate_mammal_rhino_4.png	100	animate	mammal	rhino	4	0	2	boats	1	incorrect	1.77527715661563
108653	1	stim127_inanimate_fruits_banana_3.png	127	inanimate	fruits	banana	3	0	2	boats	1	incorrect	1.77527715661563
108853	1	stim099_animate_mammal_rhino_3.png	99	animate	mammal	rhino	3	0	2	boats	1	incorrect	1.77527715661563
109053	1	stim031_animate_bird_parrot_3.png	31	animate	bird	parrot	3	0	2	boats	1	incorrect	1.77527715661563
109253	1	stim122_inanimate_fruits_apple_2.png	122	inanimate	fruits	apple	2	0	2	boats	1	incorrect	1.77527715661563
109453	1	stim158_inanimate_furniture_table_2.png	158	inanimate	furniture	table	2	0	2	boats	1	incorrect	1.77527715661563
109653	1	stim131_inanimate_fruits_grape_3.png	131	inanimate	fruits	grape	3	0	2	boats	1	incorrect	1.77527715661563
109853	1	stim071_animate_insect_butterfly_3.png	71	animate	insect	butterfly	3	0	2	boats	1	incorrect	1.77527715661563
110053	1	stim136_inanimate_fruits_pineapple_4.png	136	inanimate	fruits	pineapple	4	0	2	boats	1	incorrect	1.77527715661563
110253	1	stim041_animate_human_baby_1.png	41	animate	human	baby	1	0	2	boats	1	incorrect	1.77527715661563
110453	1	stim115_inanimate_clothing_shirt_3.png	115	inanimate	clothing	shirt	3	0	2	boats	1	incorrect	1.77527715661563
110653	1	stim050_animate_human_clown_2.png	50	animate	human	clown	2	0	2	boats	1	incorrect	1.77527715661563
110853	1	stim179_inanimate_plants_tulip_3.png	179	inanimate	plants	tulip	3	0	2	boats	1	incorrect	1.77527715661563
111053	1	stim120_inanimate_clothing_socks_4.png	120	inanimate	clothing	socks	4	0	2	boats	1	incorrect	1.77527715661563
111253	1	stim077_animate_insect_grasshopper_1.png	77	animate	insect	grasshopper	1	0	2	boats	1	incorrect	1.77527715661563
111453	1	stim082_animate_mammal_cow_2.png	82	animate	mammal	cow	2	0	2	boats	1	incorrect	1.77527715661563
111653	1	stim186_inanimate_tools_hammer_2.png	186	inanimate	tools	hammer	2	0	2	boats	1	incorrect	1.77527715661563
111853	1	stim183_inanimate_tools_broom_3.png	183	inanimate	tools	broom	3	0	2	boats	1	incorrect	1.77527715661563
112053	1	stim178_inanimate_plants_tulip_2.png	178	inanimate	plants	tulip	2	0	2	boats	1	incorrect	1.77527715661563
112253	1	stim062_animate_insect_ant_2.png	62	animate	insect	ant	2	0	2	boats	1	incorrect	1.77527715661563
112453	1	stim189_inanimate_tools_pan_1.png	189	inanimate	tools	pan	1	0	2	boats	1	incorrect	1.77527715661563
112653	1	stim196_inanimate_tools_scissors_4.png	196	inanimate	tools	scissors	4	0	2	boats	1	incorrect	1.77527715661563
112853	1	stim111_inanimate_clothing_jeans_3.png	111	inanimate	clothing	jeans	3	0	2	boats	1	incorrect	1.77527715661563
113053	1	stim194_inanimate_tools_scissors_2.png	194	inanimate	tools	scissors	2	0	2	boats	1	incorrect	1.77527715661563
113253	1	stim055_animate_human_faces_3.png	55	animate	human	faces	3	0	2	boats	1	incorrect	1.77527715661563
113453	1	stim128_inanimate_fruits_banana_4.png	128	inanimate	fruits	banana	4	0	2	boats	1	incorrect	1.77527715661563
113653	1	stim098_animate_mammal_rhino_2.png	98	animate	mammal	rhino	2	0	2	boats	1	incorrect	1.77527715661563
113853	1	stim002_animate_aquatic_crab_2.png	2	animate	aquatic	crab	2	0	2	boats	1	incorrect	1.77527715661563
114053	1	stim025_animate_bird_duck_1.png	25	animate	bird	duck	1	0	2	boats	1	incorrect	1.77527715661563
114253	1	stim199_inanimate_tools_wrench_3.png	199	inanimate	tools	wrench	3	0	2	boats	1	incorrect	1.77527715661563
114453	1	stim024_animate_bird_chicken_4.png	24	animate	bird	chicken	4	0	2	boats	1	incorrect	1.77527715661563
114653	1	stim150_inanimate_furniture_closet_2.png	150	inanimate	furniture	closet	2	0	2	boats	1	incorrect	1.77527715661563
114853	1	stim038_animate_bird_penguin_2.png	38	animate	bird	penguin	2	0	2	boats	1	incorrect	1.77527715661563
115053	1	stim085_animate_mammal_giraffe_1.png	85	animate	mammal	giraffe	1	0	2	boats	1	incorrect	1.77527715661563
115253	1	stim079_animate_insect_grasshopper_3.png	79	animate	insect	grasshopper	3	0	2	boats	1	incorrect	1.77527715661563
115453	1	stim056_animate_human_faces_4.png	56	animate	human	faces	4	0	2	boats	1	incorrect	1.77527715661563
115653	1	stim166_inanimate_plants_cactus_2.png	166	inanimate	plants	cactus	2	0	2	boats	1	incorrect	1.77527715661563
115853	1	stim101_inanimate_clothing_gloves_1.png	101	inanimate	clothing	gloves	1	0	2	boats	1	incorrect	1.77527715661563
116053	1	stim169_inanimate_plants_sunflower_1.png	169	inanimate	plants	sunflower	1	0	2	boats	1	incorrect	1.77527715661563
116253	1	stim015_animate_aquatic_shark_3.png	15	animate	aquatic	shark	3	0	2	boats	1	incorrect	1.77527715661563
116453	1	stim090_animate_mammal_kangaroo_2.png	90	animate	mammal	kangaroo	2	0	2	boats	1	incorrect	1.77527715661563
116653	1	stim035_animate_bird_peacock_3.png	35	animate	bird	peacock	3	0	2	boats	1	incorrect	1.77527715661563
116853	1	stim134_inanimate_fruits_pineapple_2.png	134	inanimate	fruits	pineapple	2	0	2	boats	1	incorrect	1.77527715661563
117053	1	stim047_animate_human_child_3.png	47	animate	human	child	3	0	2	boats	1	incorrect	1.77527715661563
117253	1	stim181_inanimate_tools_broom_1.png	181	inanimate	tools	broom	1	0	2	boats	1	incorrect	1.77527715661563
117453	1	stim170_inanimate_plants_sunflower_2.png	170	inanimate	plants	sunflower	2	0	2	boats	1	incorrect	1.77527715661563
117653	1	stim104_inanimate_clothing_gloves_4.png	104	inanimate	clothing	gloves	4	0	2	boats	1	incorrect	1.77527715661563
117853	1	stim080_animate_insect_grasshopper_4.png	80	animate	insect	grasshopper	4	0	2	boats	1	incorrect	1.77527715661563
118053	1	stim188_inanimate_tools_hammer_4.png	188	inanimate	tools	hammer	4	0	2	boats	1	incorrect	1.77527715661563
118253	1	stim029_animate_bird_parrot_1.png	29	animate	bird	parrot	1	0	2	boats	1	incorrect	1.77527715661563
118453	1	stim154_inanimate_furniture_sofa_2.png	154	inanimate	furniture	sofa	2	0	2	boats	1	incorrect	1.77527715661563
118653	1	stim163_inanimate_plants_bush_3.png	163	inanimate	plants	bush	3	0	2	boats	1	incorrect	1.77527715661563
118853	1	stim107_inanimate_clothing_hat_3.png	107	inanimate	clothing	hat	3	0	2	boats	1	incorrect	1.77527715661563
119053	1	stim152_inanimate_furniture_closet_4.png	152	inanimate	furniture	closet	4	0	2	boats	1	incorrect	1.77527715661563
119253	1	stim013_animate_aquatic_shark_1.png	13	animate	aquatic	shark	1	0	2	boats	1	incorrect	1.77527715661563
119454	1	stim171_inanimate_plants_sunflower_3.png	171	inanimate	plants	sunflower	3	0	2	boats	1	incorrect	1.77527715661563
119654	1	stim033_animate_bird_peacock_1.png	33	animate	bird	peacock	1	0	2	boats	1	incorrect	1.77527715661563
119853	1	stim126_inanimate_fruits_banana_2.png	126	inanimate	fruits	banana	2	0	2	boats	1	incorrect	1.77527715661563
120054	1	stim046_animate_human_child_2.png	46	animate	human	child	2	0	2	boats	1	incorrect	1.77527715661563
120253	1	stim027_animate_bird_duck_3.png	27	animate	bird	duck	3	0	2	boats	1	incorrect	1.77527715661563
120454	1	stim009_animate_aquatic_seahorse_1.png	9	animate	aquatic	seahorse	1	0	2	boats	1	incorrect	1.77527715661563
120654	1	stim068_animate_insect_bug_4.png	68	animate	insect	bug	4	0	2	boats	1	incorrect	1.77527715661563
120854	1	stim058_animate_human_sports_2.png	58	animate	human	sports	2	0	2	boats	1	incorrect	1.77527715661563
121053	1	stim075_animate_insect_dragonfly_3.png	75	animate	insect	dragonfly	3	0	2	boats	1	incorrect	1.77527715661563
121254	1	stim014_animate_aquatic_shark_2.png	14	animate	aquatic	shark	2	0	2	boats	1	incorrect	1.77527715661563
121454	1	stim052_animate_human_clown_4.png	52	animate	human	clown	4	0	2	boats	1	incorrect	1.77527715661563
146121	1	stim087_animate_mammal_giraffe_3.png	87	animate	mammal	giraffe	3	0	3	boats	2	correct	1.45865608658642
146321	1	stim139_inanimate_fruits_strawberry_3.png	139	inanimate	fruits	strawberry	3	0	3	boats	2	correct	1.45865608658642
146521	1	stim175_inanimate_plants_tree_3.png	175	inanimate	plants	tree	3	0	3	boats	2	correct	1.45865608658642
146721	1	stim191_inanimate_tools_pan_3.png	191	inanimate	tools	pan	3	0	3	boats	2	correct	1.45865608658642
146921	1	stim094_animate_mammal_monkey_2.png	94	animate	mammal	monkey	2	0	3	boats	2	correct	1.45865608658642
147121	1	stim199_inanimate_tools_wrench_3.png	199	inanimate	tools	wrench	3	0	3	boats	2	correct	1.45865608658642
147321	1	stim009_animate_aquatic_seahorse_1.png	9	animate	aquatic	seahorse	1	0	3	boats	2	correct	1.45865608658642
147521	1	stim059_animate_human_sports_3.png	59	animate	human	sports	3	0	3	boats	2	correct	1.45865608658642
147721	1	stim056_animate_human_faces_4.png	56	animate	human	faces	4	0	3	boats	2	correct	1.45865608658642
147921	1	stim054_animate_human_faces_2.png	54	animate	human	faces	2	0	3	boats	2	correct	1.45865608658642
148121	1	stim101_inanimate_clothing_gloves_1.png	101	inanimate	clothing	gloves	1	0	3	boats	2	correct	1.45865608658642
148321	1	stim103_inanimate_clothing_gloves_3.png	103	inanimate	clothing	gloves	3	0	3	boats	2	correct	1.45865608658642
148521	1	stim129_inanimate_fruits_grape_1.png	129	inanimate	fruits	grape	1	0	3	boats	2	correct	1.45865608658642
148721	1	stim097_animate_mammal_rhino_1.png	97	animate	mammal	rhino	1	0	3	boats	2	correct	1.45865608658642
148921	1	stim099_animate_mammal_rhino_3.png	99	animate	mammal	rhino	3	0	3	boats	2	correct	1.45865608658642
149121	1	stim062_animate_insect_ant_2.png	62	animate	insect	ant	2	0	3	boats	2	correct	1.45865608658642
149321	1	stim197_inanimate_tools_wrench_1.png	197	inanimate	tools	wrench	1	0	3	boats	2	correct	1.45865608658642
149521	1	stim178_inanimate_plants_tulip_2.png	178	inanimate	plants	tulip	2	0	3	boats	2	correct	1.45865608658642
149721	1	stim007_animate_aquatic_fish_3.png	7	animate	aquatic	fish	3	0	3	boats	2	correct	1.45865608658642
149921	1	stim058_animate_human_sports_2.png	58	animate	human	sports	2	0	3	boats	2	correct	1.45865608658642
150121	1	stim136_inanimate_fruits_pineapple_4.png	136	inanimate	fruits	pineapple	4	0	3	boats	2	correct	1.45865608658642
150321	1	stim109_inanimate_clothing_jeans_1.png	109	inanimate	clothing	jeans	1	0	3	boats	2	correct	1.45865608658642
150521	1	stim127_inanimate_fruits_banana_3.png	127	inanimate	fruits	banana	3	0	3	boats	2	correct	1.45865608658642
150721	1	stim049_animate_human_clown_1.png	49	animate	human	clown	1	0	3	boats	2	correct	1.45865608658642
150921	1	stim151_inanimate_furniture_closet_3.png	151	inanimate	furniture	closet	3	0	3	boats	2	correct	1.45865608658642
151121	1	stim152_inanimate_furniture_closet_4.png	152	inanimate	furniture	closet	4	0	3	boats	2	correct	1.45865608658642
151321	1	stim192_inanimate_tools_pan_4.png	192	inanimate	tools	pan	4	0	3	boats	2	correct	1.45865608658642
151521	1	stim167_inanimate_plants_cactus_3.png	167	inanimate	plants	cactus	3	0	3	boats	2	correct	1.45865608658642
151721	1	stim153_inanimate_furniture_sofa_1.png	153	inanimate	furniture	sofa	1	0	3	boats	2	correct	1.45865608658642
151921	1	stim125_inanimate_fruits_banana_1.png	125	inanimate	fruits	banana	1	0	3	boats	2	correct	1.45865608658642
152121	1	stim003_animate_aquatic_crab_3.png	3	animate	aquatic	crab	3	0	3	boats	2	correct	1.45865608658642
152321	1	stim157_inanimate_furniture_table_1.png	157	inanimate	furniture	table	1	0	3	boats	2	correct	1.45865608658642
152521	1	stim113_inanimate_clothing_shirt_1.png	113	inanimate	clothing	shirt	1	0	3	boats	2	correct	1.45865608658642
152721	1	stim002_animate_aquatic_crab_2.png	2	animate	aquatic	crab	2	0	3	boats	2	correct	1.45865608658642
152921	1	stim005_animate_aquatic_fish_1.png	5	animate	aquatic	fish	1	0	3	boats	2	correct	1.45865608658642
153121	1	stim183_inanimate_tools_broom_3.png	183	inanimate	tools	broom	3	0	3	boats	2	correct	1.45865608658642
153321	1	stim149_inanimate_furniture_closet_1.png	149	inanimate	furniture	closet	1	0	3	boats	2	correct	1.45865608658642
153521	1	stim100_animate_mammal_rhino_4.png	100	animate	mammal	rhino	4	0	3	boats	2	correct	1.45865608658642
153721	1	stim047_animate_human_child_3.png	47	animate	human	child	3	0	3	boats	2	correct	1.45865608658642
153921	1	stim106_inanimate_clothing_hat_2.png	106	inanimate	clothing	hat	2	0	3	boats	2	correct	1.45865608658642
154121	1	stim185_inanimate_tools_hammer_1.png	185	inanimate	tools	hammer	1	0	3	boats	2	correct	1.45865608658642
154321	1	stim179_inanimate_plants_tulip_3.png	179	inanimate	plants	tulip	3	0	3	boats	2	correct	1.45865608658642
154521	1	stim029_animate_bird_parrot_1.png	29	animate	bird	parrot	1	0	3	boats	2	correct	1.45865608658642
154721	1	stim156_inanimate_furniture_sofa_4.png	156	inanimate	furniture	sofa	4	0	3	boats	2	correct	1.45865608658642
154921	1	stim145_inanimate_furniture_chair_1.png	145	inanimate	furniture	chair	1	0	3	boats	2	correct	1.45865608658642
155121	1	stim090_animate_mammal_kangaroo_2.png	90	animate	mammal	kangaroo	2	0	3	boats	2	correct	1.45865608658642
155321	1	stim017_animate_aquatic_shrimp_1.png	17	animate	aquatic	shrimp	1	0	3	boats	2	correct	1.45865608658642
155521	1	stim078_animate_insect_grasshopper_2.png	78	animate	insect	grasshopper	2	0	3	boats	2	correct	1.45865608658642
155721	1	stim072_animate_insect_butterfly_4.png	72	animate	insect	butterfly	4	0	3	boats	2	correct	1.45865608658642
155921	1	stim187_inanimate_tools_hammer_3.png	187	inanimate	tools	hammer	3	0	3	boats	2	correct	1.45865608658642
156121	1	stim164_inanimate_plants_bush_4.png	164	inanimate	plants	bush	4	0	3	boats	2	correct	1.45865608658642
156321	1	stim055_animate_human_faces_3.png	55	animate	human	faces	3	0	3	boats	2	correct	1.45865608658642
156521	1	stim193_inanimate_tools_scissors_1.png	193	inanimate	tools	scissors	1	0	3	boats	2	correct	1.45865608658642
156721	1	stim110_inanimate_clothing_jeans_2.png	110	inanimate	clothing	jeans	2	0	3	boats	2	correct	1.45865608658642
156921	1	stim131_inanimate_fruits_grape_3.png	131	inanimate	fruits	grape	3	0	3	boats	2	correct	1.45865608658642
157121	1	stim148_inanimate_furniture_chair_4.png	148	inanimate	furniture	chair	4	0	3	boats	2	correct	1.45865608658642
157321	1	stim169_inanimate_plants_sunflower_1.png	169	inanimate	plants	sunflower	1	0	3	boats	2	correct	1.45865608658642
157521	1	stim021_animate_bird_chicken_1.png	21	animate	bird	chicken	1	0	3	boats	2	correct	1.45865608658642
157721	1	stim143_inanimate_furniture_bed_3.png	143	inanimate	furniture	bed	3	0	3	boats	2	correct	1.45865608658642
157921	1	stim184_inanimate_tools_broom_4.png	184	inanimate	tools	broom	4	0	3	boats	2	correct	1.45865608658642
158121	1	stim020_animate_aquatic_shrimp_4.png	20	animate	aquatic	shrimp	4	0	3	boats	2	correct	1.45865608658642
158321	1	stim198_inanimate_tools_wrench_2.png	198	inanimate	tools	wrench	2	0	3	boats	2	correct	1.45865608658642
158521	1	stim034_animate_bird_peacock_2.png	34	animate	bird	peacock	2	0	3	boats	2	correct	1.45865608658642
158721	1	stim045_animate_human_child_1.png	45	animate	human	child	1	0	3	boats	2	correct	1.45865608658642
158921	1	stim077_animate_insect_grasshopper_1.png	77	animate	insect	grasshopper	1	0	3	boats	2	correct	1.45865608658642
159121	1	stim008_animate_aquatic_fish_4.png	8	animate	aquatic	fish	4	0	3	boats	2	correct	1.45865608658642
159321	1	stim038_animate_bird_penguin_2.png	38	animate	bird	penguin	2	0	3	boats	2	correct	1.45865608658642
159521	1	stim023_animate_bird_chicken_3.png	23	animate	bird	chicken	3	0	3	boats	2	correct	1.45865608658642
159721	1	stim123_inanimate_fruits_apple_3.png	123	inanimate	fruits	apple	3	0	3	boats	2	correct	1.45865608658642
159921	1	stim189_inanimate_tools_pan_1.png	189	inanimate	tools	pan	1	0	3	boats	2	correct	1.45865608658642
160121	1	stim186_inanimate_tools_hammer_2.png	186	inanimate	tools	hammer	2	0	3	boats	2	correct	1.45865608658642
160321	1	stim154_inanimate_furniture_sofa_2.png	154	inanimate	furniture	sofa	2	0	3	boats	2	correct	1.45865608658642
160521	1	stim182_inanimate_tools_broom_2.png	182	inanimate	tools	broom	2	0	3	boats	2	correct	1.45865608658642
160721	1	stim208_targets_object_boats_4.png	208	targets	object	boats	4	1	3	boats	2	correct	1.45865608658642
160921	1	stim091_animate_mammal_kangaroo_3.png	91	animate	mammal	kangaroo	3	0	3	boats	2	correct	1.45865608658642
161121	1	stim030_animate_bird_parrot_2.png	30	animate	bird	parrot	2	0	3	boats	2	correct	1.45865608658642
161321	1	stim083_animate_mammal_cow_3.png	83	animate	mammal	cow	3	0	3	boats	2	correct	1.45865608658642
161521	1	stim107_inanimate_clothing_hat_3.png	107	inanimate	clothing	hat	3	0	3	boats	2	correct	1.45865608658642
161721	1	stim120_inanimate_clothing_socks_4.png	120	inanimate	clothing	socks	4	0	3	boats	2	correct	1.45865608658642
161921	1	stim162_inanimate_plants_bush_2.png	162	inanimate	plants	bush	2	0	3	boats	2	correct	1.45865608658642
162121	1	stim004_animate_aquatic_crab_4.png	4	animate	aquatic	crab	4	0	3	boats	2	correct	1.45865608658642
162321	1	stim013_animate_aquatic_shark_1.png	13	animate	aquatic	shark	1	0	3	boats	2	correct	1.45865608658642
162521	1	stim081_animate_mammal_cow_1.png	81	animate	mammal	cow	1	0	3	boats	2	correct	1.45865608658642
162721	1	stim126_inanimate_fruits_banana_2.png	126	inanimate	fruits	banana	2	0	3	boats	2	correct	1.45865608658642
162921	1	stim052_animate_human_clown_4.png	52	animate	human	clown	4	0	3	boats	2	correct	1.45865608658642
163121	1	stim037_animate_bird_penguin_1.png	37	animate	bird	penguin	1	0	3	boats	2	correct	1.45865608658642
163321	1	stim015_animate_aquatic_shark_3.png	15	animate	aquatic	shark	3	0	3	boats	2	correct	1.45865608658642
163521	1	stim019_animate_aquatic_shrimp_3.png	19	animate	aquatic	shrimp	3	0	3	boats	2	correct	1.45865608658642
163721	1	stim039_animate_bird_penguin_3.png	39	animate	bird	penguin	3	0	3	boats	2	correct	1.45865608658642
163921	1	stim093_animate_mammal_monkey_1.png	93	animate	mammal	monkey	1	0	3	boats	2	correct	1.45865608658642
164121	1	stim074_animate_insect_dragonfly_2.png	74	animate	insect	dragonfly	2	0	3	boats	2	correct	1.45865608658642
164321	1	stim159_inanimate_furniture_table_3.png	159	inanimate	furniture	table	3	0	3	boats	2	correct	1.45865608658642
164521	1	stim180_inanimate_plants_tulip_4.png	180	inanimate	plants	tulip	4	0	3	boats	2	correct	1.45865608658642
164721	1	stim064_animate_insect_ant_4.png	64	animate	insect	ant	4	0	3	boats	2	correct	1.45865608658642
164921	1	stim117_inanimate_clothing_socks_1.png	117	inanimate	clothing	socks	1	0	3	boats	2	correct	1.45865608658642
165121	1	stim122_inanimate_fruits_apple_2.png	122	inanimate	fruits	apple	2	0	3	boats	2	correct	1.45865608658642
165321	1	stim194_inanimate_tools_scissors_2.png	194	inanimate	tools	scissors	2	0	3	boats	2	correct	1.45865608658642
165521	1	stim027_animate_bird_duck_3.png	27	animate	bird	duck	3	0	3	boats	2	correct	1.45865608658642
165721	1	stim044_animate_human_baby_4.png	44	animate	human	baby	4	0	3	boats	2	correct	1.45865608658642
165921	1	stim024_animate_bird_chicken_4.png	24	animate	bird	chicken	4	0	3	boats	2	correct	1.45865608658642
166121	1	stim147_inanimate_furniture_chair_3.png	147	inanimate	furniture	chair	3	0	3	boats	2	correct	1.45865608658642
166321	1	stim177_inanimate_plants_tulip_1.png	177	inanimate	plants	tulip	1	0	3	boats	2	correct	1.45865608658642
166521	1	stim116_inanimate_clothing_shirt_4.png	116	inanimate	clothing	shirt	4	0	3	boats	2	correct	1.45865608658642
166721	1	stim118_inanimate_clothing_socks_2.png	118	inanimate	clothing	socks	2	0	3	boats	2	correct	1.45865608658642
166921	1	stim196_inanimate_tools_scissors_4.png	196	inanimate	tools	scissors	4	0	3	boats	2	correct	1.45865608658642
167121	1	stim138_inanimate_fruits_strawberry_2.png	138	inanimate	fruits	strawberry	2	0	3	boats	2	correct	1.45865608658642
167321	1	stim150_inanimate_furniture_closet_2.png	150	inanimate	furniture	closet	2	0	3	boats	2	correct	1.45865608658642
167521	1	stim012_animate_aquatic_seahorse_4.png	12	animate	aquatic	seahorse	4	0	3	boats	2	correct	1.45865608658642
167721	1	stim067_animate_insect_bug_3.png	67	animate	insect	bug	3	0	3	boats	2	correct	1.45865608658642
167921	1	stim105_inanimate_clothing_hat_1.png	105	inanimate	clothing	hat	1	0	3	boats	2	correct	1.45865608658642
168121	1	stim066_animate_insect_bug_2.png	66	animate	insect	bug	2	0	3	boats	2	correct	1.45865608658642
168321	1	stim133_inanimate_fruits_pineapple_1.png	133	inanimate	fruits	pineapple	1	0	3	boats	2	correct	1.45865608658642
168521	1	stim068_animate_insect_bug_4.png	68	animate	insect	bug	4	0	3	boats	2	correct	1.45865608658642
168721	1	stim085_animate_mammal_giraffe_1.png	85	animate	mammal	giraffe	1	0	3	boats	2	correct	1.45865608658642
168921	1	stim063_animate_insect_ant_3.png	63	animate	insect	ant	3	0	3	boats	2	correct	1.45865608658642
169121	1	stim134_inanimate_fruits_pineapple_2.png	134	inanimate	fruits	pineapple	2	0	3	boats	2	correct	1.45865608658642
169321	1	stim161_inanimate_plants_bush_1.png	161	inanimate	plants	bush	1	0	3	boats	2	correct	1.45865608658642
169521	1	stim163_inanimate_plants_bush_3.png	163	inanimate	plants	bush	3	0	3	boats	2	correct	1.45865608658642
169721	1	stim073_animate_insect_dragonfly_1.png	73	animate	insect	dragonfly	1	0	3	boats	2	correct	1.45865608658642
169921	1	stim144_inanimate_furniture_bed_4.png	144	inanimate	furniture	bed	4	0	3	boats	2	correct	1.45865608658642
170121	1	stim051_animate_human_clown_3.png	51	animate	human	clown	3	0	3	boats	2	correct	1.45865608658642
170321	1	stim173_inanimate_plants_tree_1.png	173	inanimate	plants	tree	1	0	3	boats	2	correct	1.45865608658642
170521	1	stim076_animate_insect_dragonfly_4.png	76	animate	insect	dragonfly	4	0	3	boats	2	correct	1.45865608658642
170721	1	stim057_animate_human_sports_1.png	57	animate	human	sports	1	0	3	boats	2	correct	1.45865608658642
170921	1	stim014_animate_aquatic_shark_2.png	14	animate	aquatic	shark	2	0	3	boats	2	correct	1.45865608658642
171121	1	stim040_animate_bird_penguin_4.png	40	animate	bird	penguin	4	0	3	boats	2	correct	1.45865608658642
171321	1	stim172_inanimate_plants_sunflower_4.png	172	inanimate	plants	sunflower	4	0	3	boats	2	correct	1.45865608658642
171521	1	stim108_inanimate_clothing_hat_4.png	108	inanimate	clothing	hat	4	0	3	boats	2	correct	1.45865608658642
171721	1	stim202_targets_object_boats_2.png	202	targets	object	boats	2	1	3	boats	2	correct	1.45865608658642
171921	1	stim158_inanimate_furniture_table_2.png	158	inanimate	furniture	table	2	0	3	boats	2	correct	1.45865608658642
172121	1	stim042_animate_human_baby_2.png	42	animate	human	baby	2	0	3	boats	2	correct	1.45865608658642
172321	1	stim165_inanimate_plants_cactus_1.png	165	inanimate	plants	cactus	1	0	3	boats	2	correct	1.45865608658642
172521	1	stim043_animate_human_baby_3.png	43	animate	human	baby	3	0	3	boats	2	correct	1.45865608658642
172721	1	stim082_animate_mammal_cow_2.png	82	animate	mammal	cow	2	0	3	boats	2	correct	1.45865608658642
172921	1	stim033_animate_bird_peacock_1.png	33	animate	bird	peacock	1	0	3	boats	2	correct	1.45865608658642
173121	1	stim010_animate_aquatic_seahorse_2.png	10	animate	aquatic	seahorse	2	0	3	boats	2	correct	1.45865608658642
173321	1	stim022_animate_bird_chicken_2.png	22	animate	bird	chicken	2	0	3	boats	2	correct	1.45865608658642
173521	1	stim115_inanimate_clothing_shirt_3.png	115	inanimate	clothing	shirt	3	0	3	boats	2	correct	1.45865608658642
173721	1	stim053_animate_human_faces_1.png	53	animate	human	faces	1	0	3	boats	2	correct	1.45865608658642
173921	1	stim166_inanimate_plants_cactus_2.png	166	inanimate	plants	cactus	2	0	3	boats	2	correct	1.45865608658642
174121	1	stim174_inanimate_plants_tree_2.png	174	inanimate	plants	tree	2	0	3	boats	2	correct	1.45865608658642
174321	1	stim140_inanimate_fruits_strawberry_4.png	140	inanimate	fruits	strawberry	4	0	3	boats	2	correct	1.45865608658642
174521	1	stim114_inanimate_clothing_shirt_2.png	114	inanimate	clothing	shirt	2	0	3	boats	2	correct	1.45865608658642
174721	1	stim070_animate_insect_butterfly_2.png	70	animate	insect	butterfly	2	0	3	boats	2	correct	1.45865608658642
174921	1	stim095_animate_mammal_monkey_3.png	95	animate	mammal	monkey	3	0	3	boats	2	correct	1.45865608658642
175121	1	stim050_animate_human_clown_2.png	50	animate	human	clown	2	0	3	boats	2	correct	1.45865608658642
175321	1	stim146_inanimate_furniture_chair_2.png	146	inanimate	furniture	chair	2	0	3	boats	2	correct	1.45865608658642
175521	1	stim048_animate_human_child_4.png	48	animate	human	child	4	0	3	boats	2	correct	1.45865608658642
175721	1	stim119_inanimate_clothing_socks_3.png	119	inanimate	clothing	socks	3	0	3	boats	2	correct	1.45865608658642
175921	1	stim130_inanimate_fruits_grape_2.png	130	inanimate	fruits	grape	2	0	3	boats	2	correct	1.45865608658642
176121	1	stim141_inanimate_furniture_bed_1.png	141	inanimate	furniture	bed	1	0	3	boats	2	correct	1.45865608658642
176321	1	stim006_animate_aquatic_fish_2.png	6	animate	aquatic	fish	2	0	3	boats	2	correct	1.45865608658642
176521	1	stim080_animate_insect_grasshopper_4.png	80	animate	insect	grasshopper	4	0	3	boats	2	correct	1.45865608658642
176721	1	stim188_inanimate_tools_hammer_4.png	188	inanimate	tools	hammer	4	0	3	boats	2	correct	1.45865608658642
176921	1	stim155_inanimate_furniture_sofa_3.png	155	inanimate	furniture	sofa	3	0	3	boats	2	correct	1.45865608658642
177122	1	stim035_animate_bird_peacock_3.png	35	animate	bird	peacock	3	0	3	boats	2	correct	1.45865608658642
177322	1	stim121_inanimate_fruits_apple_1.png	121	inanimate	fruits	apple	1	0	3	boats	2	correct	1.45865608658642
177521	1	stim032_animate_bird_parrot_4.png	32	animate	bird	parrot	4	0	3	boats	2	correct	1.45865608658642
177722	1	stim142_inanimate_furniture_bed_2.png	142	inanimate	furniture	bed	2	0	3	boats	2	correct	1.45865608658642
177922	1	stim200_inanimate_tools_wrench_4.png	200	inanimate	tools	wrench	4	0	3	boats	2	correct	1.45865608658642
178122	1	stim104_inanimate_clothing_gloves_4.png	104	inanimate	clothing	gloves	4	0	3	boats	2	correct	1.45865608658642
178322	1	stim112_inanimate_clothing_jeans_4.png	112	inanimate	clothing	jeans	4	0	3	boats	2	correct	1.45865608658642
178522	1	stim018_animate_aquatic_shrimp_2.png	18	animate	aquatic	shrimp	2	0	3	boats	2	correct	1.45865608658642
178722	1	stim086_animate_mammal_giraffe_2.png	86	animate	mammal	giraffe	2	0	3	boats	2	correct	1.45865608658642
178922	1	stim171_inanimate_plants_sunflower_3.png	171	inanimate	plants	sunflower	3	0	3	boats	2	correct	1.45865608658642
179122	1	stim135_inanimate_fruits_pineapple_3.png	135	inanimate	fruits	pineapple	3	0	3	boats	2	correct	1.45865608658642
179322	1	stim016_animate_aquatic_shark_4.png	16	animate	aquatic	shark	4	0	3	boats	2	correct	1.45865608658642
179522	1	stim089_animate_mammal_kangaroo_1.png	89	animate	mammal	kangaroo	1	0	3	boats	2	correct	1.45865608658642
179722	1	stim069_animate_insect_butterfly_1.png	69	animate	insect	butterfly	1	0	3	boats	2	correct	1.45865608658642
179922	1	stim132_inanimate_fruits_grape_4.png	132	inanimate	fruits	grape	4	0	3	boats	2	correct	1.45865608658642
180122	1	stim176_inanimate_plants_tree_4.png	176	inanimate	plants	tree	4	0	3	boats	2	correct	1.45865608658642
180322	1	stim025_animate_bird_duck_1.png	25	animate	bird	duck	1	0	3	boats	2	correct	1.45865608658642
180522	1	stim168_inanimate_plants_cactus_4.png	168	inanimate	plants	cactus	4	0	3	boats	2	correct	1.45865608658642
180722	1	stim096_animate_mammal_monkey_4.png	96	animate	mammal	monkey	4	0	3	boats	2	correct	1.45865608658642
180922	1	stim124_inanimate_fruits_apple_4.png	124	inanimate	fruits	apple	4	0	3	boats	2	correct	1.45865608658642
181122	1	stim181_inanimate_tools_broom_1.png	181	inanimate	tools	broom	1	0	3	boats	2	correct	1.45865608658642
181322	1	stim128_inanimate_fruits_banana_4.png	128	inanimate	fruits	banana	4	0	3	boats	2	correct	1.45865608658642
181522	1	stim102_inanimate_clothing_gloves_2.png	102	inanimate	clothing	gloves	2	0	3	boats	2	correct	1.45865608658642
181722	1	stim092_animate_mammal_kangaroo_4.png	92	animate	mammal	kangaroo	4	0	3	boats	2	correct	1.45865608658642
181922	1	stim079_animate_insect_grasshopper_3.png	79	animate	insect	grasshopper	3	0	3	boats	2	correct	1.45865608658642
182122	1	stim041_animate_human_baby_1.png	41	animate	human	baby	1	0	3	boats	2	correct	1.45865608658642
182322	1	stim036_animate_bird_peacock_4.png	36	animate	bird	peacock	4	0	3	boats	2	correct	1.45865608658642
182522	1	stim028_animate_bird_duck_4.png	28	animate	bird	duck	4	0	3	boats	2	correct	1.45865608658642
182722	1	stim098_animate_mammal_rhino_2.png	98	animate	mammal	rhino	2	0	3	boats	2	correct	1.45865608658642
182922	1	stim026_animate_bird_duck_2.png	26	animate	bird	duck	2	0	3	boats	2	correct	1.45865608658642
183122	1	stim195_inanimate_tools_scissors_3.png	195	inanimate	tools	scissors	3	0	3	boats	2	correct	1.45865608658642
183322	1	stim170_inanimate_plants_sunflower_2.png	170	inanimate	plants	sunflower	2	0	3	boats	2	correct	1.45865608658642
183522	1	stim190_inanimate_tools_pan_2.png	190	inanimate	tools	pan	2	0	3	boats	2	correct	1.45865608658642
183722	1	stim065_animate_insect_bug_1.png	65	animate	insect	bug	1	0	3	boats	2	correct	1.45865608658642
183922	1	stim137_inanimate_fruits_strawberry_1.png	137	inanimate	fruits	strawberry	1	0	3	boats	2	correct	1.45865608658642
184122	1	stim084_animate_mammal_cow_4.png	84	animate	mammal	cow	4	0	3	boats	2	correct	1.45865608658642
184322	1	stim075_animate_insect_dragonfly_3.png	75	animate	insect	dragonfly	3	0	3	boats	2	correct	1.45865608658642
184522	1	stim011_animate_aquatic_seahorse_3.png	11	animate	aquatic	seahorse	3	0	3	boats	2	correct	1.45865608658642
184722	1	stim031_animate_bird_parrot_3.png	31	animate	bird	parrot	3	0	3	boats	2	correct	1.45865608658642
184922	1	stim160_inanimate_furniture_table_4.png	160	inanimate	furniture	table	4	0	3	boats	2	correct	1.45865608658642
185122	1	stim060_animate_human_sports_4.png	60	animate	human	sports	4	0	3	boats	2	correct	1.45865608658642
185322	1	stim001_animate_aquatic_crab_1.png	1	animate	aquatic	crab	1	0	3	boats	2	correct	1.45865608658642
185522	1	stim111_inanimate_clothing_jeans_3.png	111	inanimate	clothing	jeans	3	0	3	boats	2	correct	1.45865608658642
185722	1	stim088_animate_mammal_giraffe_4.png	88	animate	mammal	giraffe	4	0	3	boats	2	correct	1.45865608658642
185922	1	stim046_animate_human_child_2.png	46	animate	human	child	2	0	3	boats	2	correct	1.45865608658642
186122	1	stim061_animate_insect_ant_1.png	61	animate	insect	ant	1	0	3	boats	2	correct	1.45865608658642
186322	1	stim071_animate_insect_butterfly_3.png	71	animate	insect	butterfly	3	0	3	boats	2	correct	1.45865608658642
192489	1	stim103_inanimate_clothing_gloves_3.png	103	inanimate	clothing	gloves	3	0	4	boats	3	incorrect	1.54066075850278
192689	1	stim004_animate_aquatic_crab_4.png	4	animate	aquatic	crab	4	0	4	boats	3	incorrect	1.54066075850278
192889	1	stim051_animate_human_clown_3.png	51	animate	human	clown	3	0	4	boats	3	incorrect	1.54066075850278
193089	1	stim123_inanimate_fruits_apple_3.png	123	inanimate	fruits	apple	3	0	4	boats	3	incorrect	1.54066075850278
193289	1	stim172_inanimate_plants_sunflower_4.png	172	inanimate	plants	sunflower	4	0	4	boats	3	incorrect	1.54066075850278
193489	1	stim128_inanimate_fruits_banana_4.png	128	inanimate	fruits	banana	4	0	4	boats	3	incorrect	1.54066075850278
193689	1	stim092_animate_mammal_kangaroo_4.png	92	animate	mammal	kangaroo	4	0	4	boats	3	incorrect	1.54066075850278
193888	1	stim156_inanimate_furniture_sofa_4.png	156	inanimate	furniture	sofa	4	0	4	boats	3	incorrect	1.54066075850278
194089	1	stim131_inanimate_fruits_grape_3.png	131	inanimate	fruits	grape	3	0	4	boats	3	incorrect	1.54066075850278
194289	1	stim151_inanimate_furniture_closet_3.png	151	inanimate	furniture	closet	3	0	4	boats	3	incorrect	1.54066075850278
194489	1	stim136_inanimate_fruits_pineapple_4.png	136	inanimate	fruits	pineapple	4	0	4	boats	3	incorrect	1.54066075850278
194689	1	stim082_animate_mammal_cow_2.png	82	animate	mammal	cow	2	0	4	boats	3	incorrect	1.54066075850278
194889	1	stim193_inanimate_tools_scissors_1.png	193	inanimate	tools	scissors	1	0	4	boats	3	incorrect	1.54066075850278
195089	1	stim095_animate_mammal_monkey_3.png	95	animate	mammal	monkey	3	0	4	boats	3	incorrect	1.54066075850278
195289	1	stim009_animate_aquatic_seahorse_1.png	9	animate	aquatic	seahorse	1	0	4	boats	3	incorrect	1.54066075850278
195489	1	stim198_inanimate_tools_wrench_2.png	198	inanimate	tools	wrench	2	0	4	boats	3	incorrect	1.54066075850278
195689	1	stim140_inanimate_fruits_strawberry_4.png	140	inanimate	fruits	strawberry	4	0	4	boats	3	incorrect	1.54066075850278
195889	1	stim098_animate_mammal_rhino_2.png	98	animate	mammal	rhino	2	0	4	boats	3	incorrect	1.54066075850278
196089	1	stim019_animate_aquatic_shrimp_3.png	19	animate	aquatic	shrimp	3	0	4	boats	3	incorrect	1.54066075850278
196289	1	stim184_inanimate_tools_broom_4.png	184	inanimate	tools	broom	4	0	4	boats	3	incorrect	1.54066075850278
196489	1	stim035_animate_bird_peacock_3.png	35	animate	bird	peacock	3	0	4	boats	3	incorrect	1.54066075850278
196689	1	stim060_animate_human_sports_4.png	60	animate	human	sports	4	0	4	boats	3	incorrect	1.54066075850278
196889	1	stim154_inanimate_furniture_sofa_2.png	154	inanimate	furniture	sofa	2	0	4	boats	3	incorrect	1.54066075850278
197089	1	stim183_inanimate_tools_broom_3.png	183	inanimate	tools	broom	3	0	4	boats	3	incorrect	1.54066075850278
197289	1	stim119_inanimate_clothing_socks_3.png	119	inanimate	clothing	socks	3	0	4	boats	3	incorrect	1.54066075850278
197489	1	stim132_inanimate_fruits_grape_4.png	132	inanimate	fruits	grape	4	0	4	boats	3	incorrect	1.54066075850278
197689	1	stim134_inanimate_fruits_pineapple_2.png	134	inanimate	fruits	pineapple	2	0	4	boats	3	incorrect	1.54066075850278
197889	1	stim086_animate_mammal_giraffe_2.png	86	animate	mammal	giraffe	2	0	4	boats	3	incorrect	1.54066075850278
198089	1	stim122_inanimate_fruits_apple_2.png	122	inanimate	fruits	apple	2	0	4	boats	3	incorrect	1.54066075850278
198289	1	stim046_animate_human_child_2.png	46	animate	human	child	2	0	4	boats	3	incorrect	1.54066075850278
198489	1	stim028_animate_bird_duck_4.png	28	animate	bird	duck	4	0	4	boats	3	incorrect	1.54066075850278
198689	1	stim087_animate_mammal_giraffe_3.png	87	animate	mammal	giraffe	3	0	4	boats	3	incorrect	1.54066075850278
198889	1	stim097_animate_mammal_rhino_1.png	97	animate	mammal	rhino	1	0	4	boats	3	incorrect	1.54066075850278
199089	1	stim065_animate_insect_bug_1.png	65	animate	insect	bug	1	0	4	boats	3	incorrect	1.54066075850278
199289	1	stim031_animate_bird_parrot_3.png	31	animate	bird	parrot	3	0	4	boats	3	incorrect	1.54066075850278
199489	1	stim078_animate_insect_grasshopper_2.png	78	animate	insect	grasshopper	2	0	4	boats	3	incorrect	1.54066075850278
199689	1	stim189_inanimate_tools_pan_1.png	189	inanimate	tools	pan	1	0	4	boats	3	incorrect	1.54066075850278
199889	1	stim041_animate_human_baby_1.png	41	animate	human	baby	1	0	4	boats	3	incorrect	1.54066075850278
200089	1	stim162_inanimate_plants_bush_2.png	162	inanimate	plants	bush	2	0	4	boats	3	incorrect	1.54066075850278
200289	1	stim126_inanimate_fruits_banana_2.png	126	inanimate	fruits	banana	2	0	4	boats	3	incorrect	1.54066075850278
200489	1	stim085_animate_mammal_giraffe_1.png	85	animate	mammal	giraffe	1	0	4	boats	3	incorrect	1.54066075850278
200689	1	stim112_inanimate_clothing_jeans_4.png	112	inanimate	clothing	jeans	4	0	4	boats	3	incorrect	1.54066075850278
200889	1	stim155_inanimate_furniture_sofa_3.png	155	inanimate	furniture	sofa	3	0	4	boats	3	incorrect	1.54066075850278
201089	1	stim038_animate_bird_penguin_2.png	38	animate	bird	penguin	2	0	4	boats	3	incorrect	1.54066075850278
201289	1	stim007_animate_aquatic_fish_3.png	7	animate	aquatic	fish	3	0	4	boats	3	incorrect	1.54066075850278
201489	1	stim027_animate_bird_duck_3.png	27	animate	bird	duck	3	0	4	boats	3	incorrect	1.54066075850278
201689	1	stim111_inanimate_clothing_jeans_3.png	111	inanimate	clothing	jeans	3	0	4	boats	3	incorrect	1.54066075850278
201889	1	stim145_inanimate_furniture_chair_1.png	145	inanimate	furniture	chair	1	0	4	boats	3	incorrect	1.54066075850278
202089	1	stim050_animate_human_clown_2.png	50	animate	human	clown	2	0	4	boats	3	incorrect	1.54066075850278
202289	1	stim201_targets_object_boats_1.png	201	targets	object	boats	1	1	4	boats	3	incorrect	1.54066075850278
202489	1	stim141_inanimate_furniture_bed_1.png	141	inanimate	furniture	bed	1	0	4	boats	3	incorrect	1.54066075850278
202689	1	stim158_inanimate_furniture_table_2.png	158	inanimate	furniture	table	2	0	4	boats	3	incorrect	1.54066075850278
202889	1	stim186_inanimate_tools_hammer_2.png	186	inanimate	tools	hammer	2	0	4	boats	3	incorrect	1.54066075850278
203089	1	stim164_inanimate_plants_bush_4.png	164	inanimate	plants	bush	4	0	4	boats	3	incorrect	1.54066075850278
203289	1	stim125_inanimate_fruits_banana_1.png	125	inanimate	fruits	banana	1	0	4	boats	3	incorrect	1.54066075850278
203489	1	stim129_inanimate_fruits_grape_1.png	129	inanimate	fruits	grape	1	0	4	boats	3	incorrect	1.54066075850278
203689	1	stim071_animate_insect_butterfly_3.png	71	animate	insect	butterfly	3	0	4	boats	3	incorrect	1.54066075850278
203889	1	stim030_animate_bird_parrot_2.png	30	animate	bird	parrot	2	0	4	boats	3	incorrect	1.54066075850278
204089	1	stim191_inanimate_tools_pan_3.png	191	inanimate	tools	pan	3	0	4	boats	3	incorrect	1.54066075850278
204289	1	stim002_animate_aquatic_crab_2.png	2	animate	aquatic	crab	2	0	4	boats	3	incorrect	1.54066075850278
204489	1	stim117_inanimate_clothing_socks_1.png	117	inanimate	clothing	socks	1	0	4	boats	3	incorrect	1.54066075850278
204689	1	stim090_animate_mammal_kangaroo_2.png	90	animate	mammal	kangaroo	2	0	4	boats	3	incorrect	1.54066075850278
204889	1	stim011_animate_aquatic_seahorse_3.png	11	animate	aquatic	seahorse	3	0	4	boats	3	incorrect	1.54066075850278
205089	1	stim094_animate_mammal_monkey_2.png	94	animate	mammal	monkey	2	0	4	boats	3	incorrect	1.54066075850278
205289	1	stim024_animate_bird_chicken_4.png	24	animate	bird	chicken	4	0	4	boats	3	incorrect	1.54066075850278
205489	1	stim015_animate_aquatic_shark_3.png	15	animate	aquatic	shark	3	0	4	boats	3	incorrect	1.54066075850278
205689	1	stim023_animate_bird_chicken_3.png	23	animate	bird	chicken	3	0	4	boats	3	incorrect	1.54066075850278
205889	1	stim166_inanimate_plants_cactus_2.png	166	inanimate	plants	cactus	2	0	4	boats	3	incorrect	1.54066075850278
206089	1	stim059_animate_human_sports_3.png	59	animate	human	sports	3	0	4	boats	3	incorrect	1.54066075850278
206289	1	stim013_animate_aquatic_shark_1.png	13	animate	aquatic	shark	1	0	4	boats	3	incorrect	1.54066075850278
206489	1	stim025_animate_bird_duck_1.png	25	animate	bird	duck	1	0	4	boats	3	incorrect	1.54066075850278
206689	1	stim040_animate_bird_penguin_4.png	40	animate	bird	penguin	4	0	4	boats	3	incorrect	1.54066075850278
206889	1	stim124_inanimate_fruits_apple_4.png	124	inanimate	fruits	apple	4	0	4	boats	3	incorrect	1.54066075850278
207089	1	stim012_animate_aquatic_seahorse_4.png	12	animate	aquatic	seahorse	4	0	4	boats	3	incorrect	1.54066075850278
207289	1	stim127_inanimate_fruits_banana_3.png	127	inanimate	fruits	banana	3	0	4	boats	3	incorrect	1.54066075850278
207489	1	stim077_animate_insect_grasshopper_1.png	77	animate	insect	grasshopper	1	0	4	boats	3	incorrect	1.54066075850278
207689	1	stim207_targets_object_boats_3.png	207	targets	object	boats	3	1	4	boats	3	incorrect	1.54066075850278
207889	1	stim177_inanimate_plants_tulip_1.png	177	inanimate	plants	tulip	1	0	4	boats	3	incorrect	1.54066075850278
208089	1	stim170_inanimate_plants_sunflower_2.png	170	inanimate	plants	sunflower	2	0	4	boats	3	incorrect	1.54066075850278
208289	1	stim049_animate_human_clown_1.png	49	animate	human	clown	1	0	4	boats	3	incorrect	1.54066075850278
208489	1	stim014_animate_aquatic_shark_2.png	14	animate	aquatic	shark	2	0	4	boats	3	incorrect	1.54066075850278
208689	1	stim146_inanimate_furniture_chair_2.png	146	inanimate	furniture	chair	2	0	4	boats	3	incorrect	1.54066075850278
208889	1	stim008_animate_aquatic_fish_4.png	8	animate	aquatic	fish	4	0	4	boats	3	incorrect	1.54066075850278
209089	1	stim157_inanimate_furniture_table_1.png	157	inanimate	furniture	table	1	0	4	boats	3	incorrect	1.54066075850278
209289	1	stim096_animate_mammal_monkey_4.png	96	animate	mammal	monkey	4	0	4	boats	3	incorrect	1.54066075850278
209489	1	stim037_animate_bird_penguin_1.png	37	animate	bird	penguin	1	0	4	boats	3	incorrect	1.54066075850278
209689	1	stim152_inanimate_furniture_closet_4.png	152	inanimate	furniture	closet	4	0	4	boats	3	incorrect	1.54066075850278
209889	1	stim072_animate_insect_butterfly_4.png	72	animate	insect	butterfly	4	0	4	boats	3	incorrect	1.54066075850278
210089	1	stim159_inanimate_furniture_table_3.png	159	inanimate	furniture	table	3	0	4	boats	3	incorrect	1.54066075850278
210289	1	stim147_inanimate_furniture_chair_3.png	147	inanimate	furniture	chair	3	0	4	boats	3	incorrect	1.54066075850278
210489	1	stim084_animate_mammal_cow_4.png	84	animate	mammal	cow	4	0	4	boats	3	incorrect	1.54066075850278
210689	1	stim101_inanimate_clothing_gloves_1.png	101	inanimate	clothing	gloves	1	0	4	boats	3	incorrect	1.54066075850278
210889	1	stim148_inanimate_furniture_chair_4.png	148	inanimate	furniture	chair	4	0	4	boats	3	incorrect	1.54066075850278
211089	1	stim142_inanimate_furniture_bed_2.png	142	inanimate	furniture	bed	2	0	4	boats	3	incorrect	1.54066075850278
211289	1	stim080_animate_insect_grasshopper_4.png	80	animate	insect	grasshopper	4	0	4	boats	3	incorrect	1.54066075850278
211489	1	stim058_animate_human_sports_2.png	58	animate	human	sports	2	0	4	boats	3	incorrect	1.54066075850278
211689	1	stim149_inanimate_furniture_closet_1.png	149	inanimate	furniture	closet	1	0	4	boats	3	incorrect	1.54066075850278
211889	1	stim171_inanimate_plants_sunflower_3.png	171	inanimate	plants	sunflower	3	0	4	boats	3	incorrect	1.54066075850278
212089	1	stim055_animate_human_faces_3.png	55	animate	human	faces	3	0	4	boats	3	incorrect	1.54066075850278
212289	1	stim006_animate_aquatic_fish_2.png	6	animate	aquatic	fish	2	0	4	boats	3	incorrect	1.54066075850278
212489	1	stim076_animate_insect_dragonfly_4.png	76	animate	insect	dragonfly	4	0	4	boats	3	incorrect	1.54066075850278
212689	1	stim114_inanimate_clothing_shirt_2.png	114	inanimate	clothing	shirt	2	0	4	boats	3	incorrect	1.54066075850278
212889	1	stim088_animate_mammal_giraffe_4.png	88	animate	mammal	giraffe	4	0	4	boats	3	incorrect	1.54066075850278
213089	1	stim100_animate_mammal_rhino_4.png	100	animate	mammal	rhino	4	0	4	boats	3	incorrect	1.54066075850278
213289	1	stim068_animate_insect_bug_4.png	68	animate	insect	bug	4	0	4	boats	3	incorrect	1.54066075850278
213489	1	stim063_animate_insect_ant_3.png	63	animate	insect	ant	3	0	4	boats	3	incorrect	1.54066075850278
213689	1	stim091_animate_mammal_kangaroo_3.png	91	animate	mammal	kangaroo	3	0	4	boats	3	incorrect	1.54066075850278
213889	1	stim093_animate_mammal_monkey_1.png	93	animate	mammal	monkey	1	0	4	boats	3	incorrect	1.54066075850278
214089	1	stim062_animate_insect_ant_2.png	62	animate	insect	ant	2	0	4	boats	3	incorrect	1.54066075850278
214289	1	stim045_animate_human_child_1.png	45	animate	human	child	1	0	4	boats	3	incorrect	1.54066075850278
214489	1	stim003_animate_aquatic_crab_3.png	3	animate	aquatic	crab	3	0	4	boats	3	incorrect	1.54066075850278
214689	1	stim130_inanimate_fruits_grape_2.png	130	inanimate	fruits	grape	2	0	4	boats	3	incorrect	1.54066075850278
214889	1	stim052_animate_human_clown_4.png	52	animate	human	clown	4	0	4	boats	3	incorrect	1.54066075850278
215089	1	stim020_animate_aquatic_shrimp_4.png	20	animate	aquatic	shrimp	4	0	4	boats	3	incorrect	1.54066075850278
215289	1	stim137_inanimate_fruits_strawberry_1.png	137	inanimate	fruits	strawberry	1	0	4	boats	3	incorrect	1.54066075850278
215489	1	stim200_inanimate_tools_wrench_4.png	200	inanimate	tools	wrench	4	0	4	boats	3	incorrect	1.54066075850278
215689	1	stim034_animate_bird_peacock_2.png	34	animate	bird	peacock	2	0	4	boats	3	incorrect	1.54066075850278
215889	1	stim066_animate_insect_bug_2.png	66	animate	insect	bug	2	0	4	boats	3	incorrect	1.54066075850278
216089	1	stim178_inanimate_plants_tulip_2.png	178	inanimate	plants	tulip	2	0	4	boats	3	incorrect	1.54066075850278
216289	1	stim044_animate_human_baby_4.png	44	animate	human	baby	4	0	4	boats	3	incorrect	1.54066075850278
216489	1	stim074_animate_insect_dragonfly_2.png	74	animate	insect	dragonfly	2	0	4	boats	3	incorrect	1.54066075850278
216689	1	stim153_inanimate_furniture_sofa_1.png	153	inanimate	furniture	sofa	1	0	4	boats	3	incorrect	1.54066075850278
216889	1	stim099_animate_mammal_rhino_3.png	99	animate	mammal	rhino	3	0	4	boats	3	incorrect	1.54066075850278
217089	1	stim208_targets_object_boats_4.png	208	targets	object	boats	4	1	4	boats	3	incorrect	1.54066075850278
217289	1	stim079_animate_insect_grasshopper_3.png	79	animate	insect	grasshopper	3	0	4	boats	3	incorrect	1.54066075850278
217489	1	stim016_animate_aquatic_shark_4.png	16	animate	aquatic	shark	4	0	4	boats	3	incorrect	1.54066075850278
217689	1	stim116_inanimate_clothing_shirt_4.png	116	inanimate	clothing	shirt	4	0	4	boats	3	incorrect	1.54066075850278
217889	1	stim054_animate_human_faces_2.png	54	animate	human	faces	2	0	4	boats	3	incorrect	1.54066075850278
218089	1	stim039_animate_bird_penguin_3.png	39	animate	bird	penguin	3	0	4	boats	3	incorrect	1.54066075850278
218289	1	stim081_animate_mammal_cow_1.png	81	animate	mammal	cow	1	0	4	boats	3	incorrect	1.54066075850278
218489	1	stim048_animate_human_child_4.png	48	animate	human	child	4	0	4	boats	3	incorrect	1.54066075850278
218689	1	stim192_inanimate_tools_pan_4.png	192	inanimate	tools	pan	4	0	4	boats	3	incorrect	1.54066075850278
218889	1	stim089_animate_mammal_kangaroo_1.png	89	animate	mammal	kangaroo	1	0	4	boats	3	incorrect	1.54066075850278
219089	1	stim120_inanimate_clothing_socks_4.png	120	inanimate	clothing	socks	4	0	4	boats	3	incorrect	1.54066075850278
219289	1	stim005_animate_aquatic_fish_1.png	5	animate	aquatic	fish	1	0	4	boats	3	incorrect	1.54066075850278
219489	1	stim107_inanimate_clothing_hat_3.png	107	inanimate	clothing	hat	3	0	4	boats	3	incorrect	1.54066075850278
219689	1	stim083_animate_mammal_cow_3.png	83	animate	mammal	cow	3	0	4	boats	3	incorrect	1.54066075850278
219889	1	stim173_inanimate_plants_tree_1.png	173	inanimate	plants	tree	1	0	4	boats	3	incorrect	1.54066075850278
220089	1	stim043_animate_human_baby_3.png	43	animate	human	baby	3	0	4	boats	3	incorrect	1.54066075850278
220289	1	stim113_inanimate_clothing_shirt_1.png	113	inanimate	clothing	shirt	1	0	4	boats	3	incorrect	1.54066075850278
220489	1	stim001_animate_aquatic_crab_1.png	1	animate	aquatic	crab	1	0	4	boats	3	incorrect	1.54066075850278
220689	1	stim069_animate_insect_butterfly_1.png	69	animate	insect	butterfly	1	0	4	boats	3	incorrect	1.54066075850278
220889	1	stim197_inanimate_tools_wrench_1.png	197	inanimate	tools	wrench	1	0	4	boats	3	incorrect	1.54066075850278
221089	1	stim194_inanimate_tools_scissors_2.png	194	inanimate	tools	scissors	2	0	4	boats	3	incorrect	1.54066075850278
221289	1	stim175_inanimate_plants_tree_3.png	175	inanimate	plants	tree	3	0	4	boats	3	incorrect	1.54066075850278
221489	1	stim053_animate_human_faces_1.png	53	animate	human	faces	1	0	4	boats	3	incorrect	1.54066075850278
221689	1	stim180_inanimate_plants_tulip_4.png	180	inanimate	plants	tulip	4	0	4	boats	3	incorrect	1.54066075850278
221889	1	stim190_inanimate_tools_pan_2.png	190	inanimate	tools	pan	2	0	4	boats	3	incorrect	1.54066075850278
222089	1	stim056_animate_human_faces_4.png	56	animate	human	faces	4	0	4	boats	3	incorrect	1.54066075850278
222289	1	stim144_inanimate_furniture_bed_4.png	144	inanimate	furniture	bed	4	0	4	boats	3	incorrect	1.54066075850278
222489	1	stim021_animate_bird_chicken_1.png	21	animate	bird	chicken	1	0	4	boats	3	incorrect	1.54066075850278
222689	1	stim133_inanimate_fruits_pineapple_1.png	133	inanimate	fruits	pineapple	1	0	4	boats	3	incorrect	1.54066075850278
222889	1	stim179_inanimate_plants_tulip_3.png	179	inanimate	plants	tulip	3	0	4	boats	3	incorrect	1.54066075850278
223089	1	stim204_targets_object_boats_4.png	204	targets	object	boats	4	1	4	boats	3	incorrect	1.54066075850278
223289	1	stim185_inanimate_tools_hammer_1.png	185	inanimate	tools	hammer	1	0	4	boats	3	incorrect	1.54066075850278
223489	1	stim121_inanimate_fruits_apple_1.png	121	inanimate	fruits	apple	1	0	4	boats	3	incorrect	1.54066075850278
223689	1	stim017_animate_aquatic_shrimp_1.png	17	animate	aquatic	shrimp	1	0	4	boats	3	incorrect	1.54066075850278
223889	1	stim109_inanimate_clothing_jeans_1.png	109	inanimate	clothing	jeans	1	0	4	boats	3	incorrect	1.54066075850278
224089	1	stim026_animate_bird_duck_2.png	26	animate	bird	duck	2	0	4	boats	3	incorrect	1.54066075850278
224289	1	stim176_inanimate_plants_tree_4.png	176	inanimate	plants	tree	4	0	4	boats	3	incorrect	1.54066075850278
224489	1	stim143_inanimate_furniture_bed_3.png	143	inanimate	furniture	bed	3	0	4	boats	3	incorrect	1.54066075850278
224689	1	stim022_animate_bird_chicken_2.png	22	animate	bird	chicken	2	0	4	boats	3	incorrect	1.54066075850278
224889	1	stim010_animate_aquatic_seahorse_2.png	10	animate	aquatic	seahorse	2	0	4	boats	3	incorrect	1.54066075850278
225089	1	stim108_inanimate_clothing_hat_4.png	108	inanimate	clothing	hat	4	0	4	boats	3	incorrect	1.54066075850278
225289	1	stim135_inanimate_fruits_pineapple_3.png	135	inanimate	fruits	pineapple	3	0	4	boats	3	incorrect	1.54066075850278
225489	1	stim057_animate_human_sports_1.png	57	animate	human	sports	1	0	4	boats	3	incorrect	1.54066075850278
225689	1	stim106_inanimate_clothing_hat_2.png	106	inanimate	clothing	hat	2	0	4	boats	3	incorrect	1.54066075850278
225889	1	stim018_animate_aquatic_shrimp_2.png	18	animate	aquatic	shrimp	2	0	4	boats	3	incorrect	1.54066075850278
226089	1	stim075_animate_insect_dragonfly_3.png	75	animate	insect	dragonfly	3	0	4	boats	3	incorrect	1.54066075850278
226289	1	stim118_inanimate_clothing_socks_2.png	118	inanimate	clothing	socks	2	0	4	boats	3	incorrect	1.54066075850278
226489	1	stim042_animate_human_baby_2.png	42	animate	human	baby	2	0	4	boats	3	incorrect	1.54066075850278
226689	1	stim047_animate_human_child_3.png	47	animate	human	child	3	0	4	boats	3	incorrect	1.54066075850278
226889	1	stim102_inanimate_clothing_gloves_2.png	102	inanimate	clothing	gloves	2	0	4	boats	3	incorrect	1.54066075850278
227089	1	stim067_animate_insect_bug_3.png	67	animate	insect	bug	3	0	4	boats	3	incorrect	1.54066075850278
227289	1	stim115_inanimate_clothing_shirt_3.png	115	inanimate	clothing	shirt	3	0	4	boats	3	incorrect	1.54066075850278
227489	1	stim070_animate_insect_butterfly_2.png	70	animate	insect	butterfly	2	0	4	boats	3	incorrect	1.54066075850278
227689	1	stim138_inanimate_fruits_strawberry_2.png	138	inanimate	fruits	strawberry	2	0	4	boats	3	incorrect	1.54066075850278
227889	1	stim032_animate_bird_parrot_4.png	32	animate	bird	parrot	4	0	4	boats	3	incorrect	1.54066075850278
228089	1	stim163_inanimate_plants_bush_3.png	163	inanimate	plants	bush	3	0	4	boats	3	incorrect	1.54066075850278
228289	1	stim199_inanimate_tools_wrench_3.png	199	inanimate	tools	wrench	3	0	4	boats	3	incorrect	1.54066075850278
228489	1	stim187_inanimate_tools_hammer_3.png	187	inanimate	tools	hammer	3	0	4	boats	3	incorrect	1.54066075850278
228689	1	stim160_inanimate_furniture_table_4.png	160	inanimate	furniture	table	4	0	4	boats	3	incorrect	1.54066075850278
228889	1	stim195_inanimate_tools_scissors_3.png	195	inanimate	tools	scissors	3	0	4	boats	3	incorrect	1.54066075850278
229089	1	stim104_inanimate_clothing_gloves_4.png	104	inanimate	clothing	gloves	4	0	4	boats	3	incorrect	1.54066075850278
229289	1	stim167_inanimate_plants_cactus_3.png	167	inanimate	plants	cactus	3	0	4	boats	3	incorrect	1.54066075850278
229489	1	stim169_inanimate_plants_sunflower_1.png	169	inanimate	plants	sunflower	1	0	4	boats	3	incorrect	1.54066075850278
229689	1	stim033_animate_bird_peacock_1.png	33	animate	bird	peacock	1	0	4	boats	3	incorrect	1.54066075850278
229889	1	stim188_inanimate_tools_hammer_4.png	188	inanimate	tools	hammer	4	0	4	boats	3	incorrect	1.54066075850278
230089	1	stim110_inanimate_clothing_jeans_2.png	110	inanimate	clothing	jeans	2	0	4	boats	3	incorrect	1.54066075850278
230289	1	stim105_inanimate_clothing_hat_1.png	105	inanimate	clothing	hat	1	0	4	boats	3	incorrect	1.54066075850278
230489	1	stim073_animate_insect_dragonfly_1.png	73	animate	insect	dragonfly	1	0	4	boats	3	incorrect	1.54066075850278
230689	1	stim174_inanimate_plants_tree_2.png	174	inanimate	plants	tree	2	0	4	boats	3	incorrect	1.54066075850278
230889	1	stim061_animate_insect_ant_1.png	61	animate	insect	ant	1	0	4	boats	3	incorrect	1.54066075850278
231089	1	stim165_inanimate_plants_cactus_1.png	165	inanimate	plants	cactus	1	0	4	boats	3	incorrect	1.54066075850278
231289	1	stim168_inanimate_plants_cactus_4.png	168	inanimate	plants	cactus	4	0	4	boats	3	incorrect	1.54066075850278
231489	1	stim064_animate_insect_ant_4.png	64	animate	insect	ant	4	0	4	boats	3	incorrect	1.54066075850278
231689	1	stim181_inanimate_tools_broom_1.png	181	inanimate	tools	broom	1	0	4	boats	3	incorrect	1.54066075850278
231889	1	stim029_animate_bird_parrot_1.png	29	animate	bird	parrot	1	0	4	boats	3	incorrect	1.54066075850278
232089	1	stim036_animate_bird_peacock_4.png	36	animate	bird	peacock	4	0	4	boats	3	incorrect	1.54066075850278
232289	1	stim139_inanimate_fruits_strawberry_3.png	139	inanimate	fruits	strawberry	3	0	4	boats	3	incorrect	1.54066075850278
232489	1	stim196_inanimate_tools_scissors_4.png	196	inanimate	tools	scissors	4	0	4	boats	3	incorrect	1.54066075850278
232689	1	stim182_inanimate_tools_broom_2.png	182	inanimate	tools	broom	2	0	4	boats	3	incorrect	1.54066075850278
232889	1	stim150_inanimate_furniture_closet_2.png	150	inanimate	furniture	closet	2	0	4	boats	3	incorrect	1.54066075850278
233089	1	stim161_inanimate_plants_bush_1.png	161	inanimate	plants	bush	1	0	4	boats	3	incorrect	1.54066075850278
245290	1	stim049_animate_human_clown_1.png	49	animate	human	clown	1	0	5	boats	2	incorrect	1.50553704076447
245490	1	stim133_inanimate_fruits_pineapple_1.png	133	inanimate	fruits	pineapple	1	0	5	boats	2	incorrect	1.50553704076447
245690	1	stim051_animate_human_clown_3.png	51	animate	human	clown	3	0	5	boats	2	incorrect	1.50553704076447
245890	1	stim048_animate_human_child_4.png	48	animate	human	child	4	0	5	boats	2	incorrect	1.50553704076447
246090	1	stim101_inanimate_clothing_gloves_1.png	101	inanimate	clothing	gloves	1	0	5	boats	2	incorrect	1.50553704076447
246290	1	stim057_animate_human_sports_1.png	57	animate	human	sports	1	0	5	boats	2	incorrect	1.50553704076447
246490	1	stim037_animate_bird_penguin_1.png	37	animate	bird	penguin	1	0	5	boats	2	incorrect	1.50553704076447
246690	1	stim192_inanimate_tools_pan_4.png	192	inanimate	tools	pan	4	0	5	boats	2	incorrect	1.50553704076447
246890	1	stim174_inanimate_plants_tree_2.png	174	inanimate	plants	tree	2	0	5	boats	2	incorrect	1.50553704076447
247090	1	stim064_animate_insect_ant_4.png	64	animate	insect	ant	4	0	5	boats	2	incorrect	1.50553704076447
247290	1	stim115_inanimate_clothing_shirt_3.png	115	inanimate	clothing	shirt	3	0	5	boats	2	incorrect	1.50553704076447
247490	1	stim108_inanimate_clothing_hat_4.png	108	inanimate	clothing	hat	4	0	5	boats	2	incorrect	1.50553704076447
247690	1	stim080_animate_insect_grasshopper_4.png	80	animate	insect	grasshopper	4	0	5	boats	2	incorrect	1.50553704076447
247890	1	stim165_inanimate_plants_cactus_1.png	165	inanimate	plants	cactus	1	0	5	boats	2	incorrect	1.50553704076447
248090	1	stim111_inanimate_clothing_jeans_3.png	111	inanimate	clothing	jeans	3	0	5	boats	2	incorrect	1.50553704076447
248290	1	stim022_animate_bird_chicken_2.png	22	animate	bird	chicken	2	0	5	boats	2	incorrect	1.50553704076447
248490	1	stim120_inanimate_clothing_socks_4.png	120	inanimate	clothing	socks	4	0	5	boats	2	incorrect	1.50553704076447
248690	1	stim097_animate_mammal_rhino_1.png	97	animate	mammal	rhino	1	0	5	boats	2	incorrect	1.50553704076447
248890	1	stim150_inanimate_furniture_closet_2.png	150	inanimate	furniture	closet	2	0	5	boats	2	incorrect	1.50553704076447
249090	1	stim116_inanimate_clothing_shirt_4.png	116	inanimate	clothing	shirt	4	0	5	boats	2	incorrect	1.50553704076447
249290	1	stim038_animate_bird_penguin_2.png	38	animate	bird	penguin	2	0	5	boats	2	incorrect	1.50553704076447
249490	1	stim088_animate_mammal_giraffe_4.png	88	animate	mammal	giraffe	4	0	5	boats	2	incorrect	1.50553704076447
249690	1	stim018_animate_aquatic_shrimp_2.png	18	animate	aquatic	shrimp	2	0	5	boats	2	incorrect	1.50553704076447
249890	1	stim154_inanimate_furniture_sofa_2.png	154	inanimate	furniture	sofa	2	0	5	boats	2	incorrect	1.50553704076447
250090	1	stim002_animate_aquatic_crab_2.png	2	animate	aquatic	crab	2	0	5	boats	2	incorrect	1.50553704076447
250290	1	stim013_animate_aquatic_shark_1.png	13	animate	aquatic	shark	1	0	5	boats	2	incorrect	1.50553704076447
250490	1	stim105_inanimate_clothing_hat_1.png	105	inanimate	clothing	hat	1	0	5	boats	2	incorrect	1.50553704076447
250690	1	stim001_animate_aquatic_crab_1.png	1	animate	aquatic	crab	1	0	5	boats	2	incorrect	1.50553704076447
250890	1	stim008_animate_aquatic_fish_4.png	8	animate	aquatic	fish	4	0	5	boats	2	incorrect	1.50553704076447
251090	1	stim071_animate_insect_butterfly_3.png	71	animate	insect	butterfly	3	0	5	boats	2	incorrect	1.50553704076447
251290	1	stim109_inanimate_clothing_jeans_1.png	109	inanimate	clothing	jeans	1	0	5	boats	2	incorrect	1.50553704076447
251490	1	stim187_inanimate_tools_hammer_3.png	187	inanimate	tools	hammer	3	0	5	boats	2	incorrect	1.50553704076447
251690	1	stim161_inanimate_plants_bush_1.png	161	inanimate	plants	bush	1	0	5	boats	2	incorrect	1.50553704076447
251890	1	stim026_animate_bird_duck_2.png	26	animate	bird	duck	2	0	5	boats	2	incorrect	1.50553704076447
252090	1	stim163_inanimate_plants_bush_3.png	163	inanimate	plants	bush	3	0	5	boats	2	incorrect	1.50553704076447
252290	1	stim035_animate_bird_peacock_3.png	35	animate	bird	peacock	3	0	5	boats	2	incorrect	1.50553704076447
252490	1	stim195_inanimate_tools_scissors_3.png	195	inanimate	tools	scissors	3	0	5	boats	2	incorrect	1.50553704076447
252690	1	stim034_animate_bird_peacock_2.png	34	animate	bird	peacock	2	0	5	boats	2	incorrect	1.50553704076447
252890	1	stim189_inanimate_tools_pan_1.png	189	inanimate	tools	pan	1	0	5	boats	2	incorrect	1.50553704076447
253090	1	stim110_inanimate_clothing_jeans_2.png	110	inanimate	clothing	jeans	2	0	5	boats	2	incorrect	1.50553704076447
253290	1	stim121_inanimate_fruits_apple_1.png	121	inanimate	fruits	apple	1	0	5	boats	2	incorrect	1.50553704076447
253490	1	stim134_inanimate_fruits_pineapple_2.png	134	inanimate	fruits	pineapple	2	0	5	boats	2	incorrect	1.50553704076447
253690	1	stim041_animate_human_baby_1.png	41	animate	human	baby	1	0	5	boats	2	incorrect	1.50553704076447
253890	1	stim066_animate_insect_bug_2.png	66	animate	insect	bug	2	0	5	boats	2	incorrect	1.50553704076447
254090	1	stim090_animate_mammal_kangaroo_2.png	90	animate	mammal	kangaroo	2	0	5	boats	2	incorrect	1.50553704076447
254290	1	stim103_inanimate_clothing_gloves_3.png	103	inanimate	clothing	gloves	3	0	5	boats	2	incorrect	1.50553704076447
254490	1	stim081_animate_mammal_cow_1.png	81	animate	mammal	cow	1	0	5	boats	2	incorrect	1.50553704076447
254690	1	stim112_inanimate_clothing_jeans_4.png	112	inanimate	clothing	jeans	4	0	5	boats	2	incorrect	1.50553704076447
254890	1	stim030_animate_bird_parrot_2.png	30	animate	bird	parrot	2	0	5	boats	2	incorrect	1.50553704076447
255090	1	stim095_animate_mammal_monkey_3.png	95	animate	mammal	monkey	3	0	5	boats	2	incorrect	1.50553704076447
255290	1	stim126_inanimate_fruits_banana_2.png	126	inanimate	fruits	banana	2	0	5	boats	2	incorrect	1.50553704076447
255490	1	stim016_animate_aquatic_shark_4.png	16	animate	aquatic	shark	4	0	5	boats	2	incorrect	1.50553704076447
255690	1	stim009_animate_aquatic_seahorse_1.png	9	animate	aquatic	seahorse	1	0	5	boats	2	incorrect	1.50553704076447
255890	1	stim135_inanimate_fruits_pineapple_3.png	135	inanimate	fruits	pineapple	3	0	5	boats	2	incorrect	1.50553704076447
256090	1	stim032_animate_bird_parrot_4.png	32	animate	bird	parrot	4	0	5	boats	2	incorrect	1.50553704076447
256290	1	stim171_inanimate_plants_sunflower_3.png	171	inanimate	plants	sunflower	3	0	5	boats	2	incorrect	1.50553704076447
256490	1	stim077_animate_insect_grasshopper_1.png	77	animate	insect	grasshopper	1	0	5	boats	2	incorrect	1.50553704076447
256690	1	stim178_inanimate_plants_tulip_2.png	178	inanimate	plants	tulip	2	0	5	boats	2	incorrect	1.50553704076447
256890	1	stim199_inanimate_tools_wrench_3.png	199	inanimate	tools	wrench	3	0	5	boats	2	incorrect	1.50553704076447
257090	1	stim152_inanimate_furniture_closet_4.png	152	inanimate	furniture	closet	4	0	5	boats	2	incorrect	1.50553704076447
257290	1	stim185_inanimate_tools_hammer_1.png	185	inanimate	tools	hammer	1	0	5	boats	2	incorrect	1.50553704076447
257490	1	stim028_animate_bird_duck_4.png	28	animate	bird	duck	4	0	5	boats	2	incorrect	1.50553704076447
257690	1	stim073_animate_insect_dragonfly_1.png	73	animate	insect	dragonfly	1	0	5	boats	2	incorrect	1.50553704076447
257890	1	stim070_animate_insect_butterfly_2.png	70	animate	insect	butterfly	2	0	5	boats	2	incorrect	1.50553704076447
258090	1	stim184_inanimate_tools_broom_4.png	184	inanimate	tools	broom	4	0	5	boats	2	incorrect	1.50553704076447
258290	1	stim078_animate_insect_grasshopper_2.png	78	animate	insect	grasshopper	2	0	5	boats	2	incorrect	1.50553704076447
258490	1	stim176_inanimate_plants_tree_4.png	176	inanimate	plants	tree	4	0	5	boats	2	incorrect	1.50553704076447
258690	1	stim208_targets_object_boats_4.png	208	targets	object	boats	4	1	5	boats	2	incorrect	1.50553704076447
258890	1	stim098_animate_mammal_rhino_2.png	98	animate	mammal	rhino	2	0	5	boats	2	incorrect	1.50553704076447
259090	1	stim128_inanimate_fruits_banana_4.png	128	inanimate	fruits	banana	4	0	5	boats	2	incorrect	1.50553704076447
259290	1	stim014_animate_aquatic_shark_2.png	14	animate	aquatic	shark	2	0	5	boats	2	incorrect	1.50553704076447
259490	1	stim127_inanimate_fruits_banana_3.png	127	inanimate	fruits	banana	3	0	5	boats	2	incorrect	1.50553704076447
259690	1	stim144_inanimate_furniture_bed_4.png	144	inanimate	furniture	bed	4	0	5	boats	2	incorrect	1.50553704076447
259890	1	stim117_inanimate_clothing_socks_1.png	117	inanimate	clothing	socks	1	0	5	boats	2	incorrect	1.50553704076447
260090	1	stim062_animate_insect_ant_2.png	62	animate	insect	ant	2	0	5	boats	2	incorrect	1.50553704076447
260290	1	stim167_inanimate_plants_cactus_3.png	167	inanimate	plants	cactus	3	0	5	boats	2	incorrect	1.50553704076447
260490	1	stim017_animate_aquatic_shrimp_1.png	17	animate	aquatic	shrimp	1	0	5	boats	2	incorrect	1.50553704076447
260690	1	stim061_animate_insect_ant_1.png	61	animate	insect	ant	1	0	5	boats	2	incorrect	1.50553704076447
260890	1	stim011_animate_aquatic_seahorse_3.png	11	animate	aquatic	seahorse	3	0	5	boats	2	incorrect	1.50553704076447
261090	1	stim132_inanimate_fruits_grape_4.png	132	inanimate	fruits	grape	4	0	5	boats	2	incorrect	1.50553704076447
261290	1	stim072_animate_insect_butterfly_4.png	72	animate	insect	butterfly	4	0	5	boats	2	incorrect	1.50553704076447
261490	1	stim157_inanimate_furniture_table_1.png	157	inanimate	furniture	table	1	0	5	boats	2	incorrect	1.50553704076447
