onset	duration	stimulusname	stimulusnumber	levelA	levelB	levelC	withinexemplarnumber	istarget	trialnumber	condition	response	correct	rt
66942	1	stim055_animate_human_faces_3.png	55	animate	human	faces	3	0	1	boats	4	correct	0.931493593379855
67142	1	stim073_animate_insect_dragonfly_1.png	73	animate	insect	dragonfly	1	0	1	boats	4	correct	0.931493593379855
67342	1	stim096_animate_mammal_monkey_4.png	96	animate	mammal	monkey	4	0	1	boats	4	correct	0.931493593379855
67542	1	stim003_animate_aquatic_crab_3.png	3	animate	aquatic	crab	3	0	1	boats	4	correct	0.931493593379855
67743	1	stim180_inanimate_plants_tulip_4.png	180	inanimate	plants	tulip	4	0	1	boats	4	correct	0.931493593379855
67942	1	stim040_animate_bird_penguin_4.png	40	animate	bird	penguin	4	0	1	boats	4	correct	0.931493593379855
68142	1	stim191_inanimate_tools_pan_3.png	191	inanimate	tools	pan	3	0	1	boats	4	correct	0.931493593379855
68342	1	stim092_animate_mammal_kangaroo_4.png	92	animate	mammal	kangaroo	4	0	1	boats	4	correct	0.931493593379855
68542	1	stim014_animate_aquatic_shark_2.png	14	animate	aquatic	shark	2	0	1	boats	4	correct	0.931493593379855
68742	1	stim117_inanimate_clothing_socks_1.png	117	inanimate	clothing	socks	1	0	1	boats	4	correct	0.931493593379855
68942	1	stim057_animate_human_sports_1.png	57	animate	human	sports	1	0	1	boats	4	correct	0.931493593379855
69142	1	stim091_animate_mammal_kangaroo_3.png	91	animate	mammal	kangaroo	3	0	1	boats	4	correct	0.931493593379855
69342	1	stim019_animate_aquatic_shrimp_3.png	19	animate	aquatic	shrimp	3	0	1	boats	4	correct	0.931493593379855
69542	1	stim185_inanimate_tools_hammer_1.png	185	inanimate	tools	hammer	1	0	1	boats	4	correct	0.931493593379855
69742	1	stim066_animate_insect_bug_2.png	66	animate	insect	bug	2	0	1	boats	4	correct	0.931493593379855
69942	1	stim098_animate_mammal_rhino_2.png	98	animate	mammal	rhino	2	0	1	boats	4	correct	0.931493593379855
70142	1	stim107_inanimate_clothing_hat_3.png	107	inanimate	clothing	hat	3	0	1	boats	4	correct	0.931493593379855
70342	1	stim181_inanimate_tools_broom_1.png	181	inanimate	tools	broom	1	0	1	boats	4	correct	0.931493593379855
70543	1	stim088_animate_mammal_giraffe_4.png	88	animate	mammal	giraffe	4	0	1	boats	4	correct	0.931493593379855
70742	1	stim047_animate_human_child_3.png	47	animate	human	child	3	0	1	boats	4	correct	0.931493593379855
70942	1	stim001_animate_aquatic_crab_1.png	1	animate	aquatic	crab	1	0	1	boats	4	correct	0.931493593379855
71142	1	stim104_inanimate_clothing_gloves_4.png	104	inanimate	clothing	gloves	4	0	1	boats	4	correct	0.931493593379855
71342	1	stim045_animate_human_child_1.png	45	animate	human	child	1	0	1	boats	4	correct	0.931493593379855
71542	1	stim178_inanimate_plants_tulip_2.png	178	inanimate	plants	tulip	2	0	1	boats	4	correct	0.931493593379855
71742	1	stim118_inanimate_clothing_socks_2.png	118	inanimate	clothing	socks	2	0	1	boats	4	correct	0.931493593379855
71942	1	stim004_animate_aquatic_crab_4.png	4	animate	aquatic	crab	4	0	1	boats	4	correct	0.931493593379855
72142	1	stim023_animate_bird_chicken_3.png	23	animate	bird	chicken	3	0	1	boats	4	correct	0.931493593379855
72342	1	stim112_inanimate_clothing_jeans_4.png	112	inanimate	clothing	jeans	4	0	1	boats	4	correct	0.931493593379855
72542	1	stim026_animate_bird_duck_2.png	26	animate	bird	duck	2	0	1	boats	4	correct	0.931493593379855
72742	1	stim188_inanimate_tools_hammer_4.png	188	inanimate	tools	hammer	4	0	1	boats	4	correct	0.931493593379855
72942	1	stim043_animate_human_baby_3.png	43	animate	human	baby	3	0	1	boats	4	correct	0.931493593379855
73142	1	stim094_animate_mammal_monkey_2.png	94	animate	mammal	monkey	2	0	1	boats	4	correct	0.931493593379855
73342	1	stim068_animate_insect_bug_4.png	68	animate	insect	bug	4	0	1	boats	4	correct	0.931493593379855
73542	1	stim103_inanimate_clothing_gloves_3.png	103	inanimate	clothing	gloves	3	0	1	boats	4	correct	0.931493593379855
73742	1	stim183_inanimate_tools_broom_3.png	183	inanimate	tools	broom	3	0	1	boats	4	correct	0.931493593379855
73942	1	stim148_inanimate_furniture_chair_4.png	148	inanimate	furniture	chair	4	0	1	boats	4	correct	0.931493593379855
74142	1	stim173_inanimate_plants_tree_1.png	173	inanimate	plants	tree	1	0	1	boats	4	correct	0.931493593379855
74342	1	stim111_inanimate_clothing_jeans_3.png	111	inanimate	clothing	jeans	3	0	1	boats	4	correct	0.931493593379855
74542	1	stim070_animate_insect_butterfly_2.png	70	animate	insect	butterfly	2	0	1	boats	4	correct	0.931493593379855
74742	1	stim194_inanimate_tools_scissors_2.png	194	inanimate	tools	scissors	2	0	1	boats	4	correct	0.931493593379855
74942	1	stim082_animate_mammal_cow_2.png	82	animate	mammal	cow	2	0	1	boats	4	correct	0.931493593379855
75142	1	stim202_targets_object_boats_2.png	202	targets	object	boats	2	1	1	boats	4	correct	0.931493593379855
75342	1	stim010_animate_aquatic_seahorse_2.png	10	animate	aquatic	seahorse	2	0	1	boats	4	correct	0.931493593379855
75542	1	stim129_inanimate_fruits_grape_1.png	129	inanimate	fruits	grape	1	0	1	boats	4	correct	0.931493593379855
75742	1	stim160_inanimate_furniture_table_4.png	160	inanimate	furniture	table	4	0	1	boats	4	correct	0.931493593379855
75942	1	stim013_animate_aquatic_shark_1.png	13	animate	aquatic	shark	1	0	1	boats	4	correct	0.931493593379855
76142	1	stim065_animate_insect_bug_1.png	65	animate	insect	bug	1	0	1	boats	4	correct	0.931493593379855
76342	1	stim087_animate_mammal_giraffe_3.png	87	animate	mammal	giraffe	3	0	1	boats	4	correct	0.931493593379855
76542	1	stim184_inanimate_tools_broom_4.png	184	inanimate	tools	broom	4	0	1	boats	4	correct	0.931493593379855
76742	1	stim018_animate_aquatic_shrimp_2.png	18	animate	aquatic	shrimp	2	0	1	boats	4	correct	0.931493593379855
76942	1	stim149_inanimate_furniture_closet_1.png	149	inanimate	furniture	closet	1	0	1	boats	4	correct	0.931493593379855
77142	1	stim142_inanimate_furniture_bed_2.png	142	inanimate	furniture	bed	2	0	1	boats	4	correct	0.931493593379855
77342	1	stim069_animate_insect_butterfly_1.png	69	animate	insect	butterfly	1	0	1	boats	4	correct	0.931493593379855
77542	1	stim172_inanimate_plants_sunflower_4.png	172	inanimate	plants	sunflower	4	0	1	boats	4	correct	0.931493593379855
77742	1	stim100_animate_mammal_rhino_4.png	100	animate	mammal	rhino	4	0	1	boats	4	correct	0.931493593379855
77942	1	stim086_animate_mammal_giraffe_2.png	86	animate	mammal	giraffe	2	0	1	boats	4	correct	0.931493593379855
78142	1	stim144_inanimate_furniture_bed_4.png	144	inanimate	furniture	bed	4	0	1	boats	4	correct	0.931493593379855
78342	1	stim187_inanimate_tools_hammer_3.png	187	inanimate	tools	hammer	3	0	1	boats	4	correct	0.931493593379855
78542	1	stim163_inanimate_plants_bush_3.png	163	inanimate	plants	bush	3	0	1	boats	4	correct	0.931493593379855
78742	1	stim150_inanimate_furniture_closet_2.png	150	inanimate	furniture	closet	2	0	1	boats	4	correct	0.931493593379855
78942	1	stim062_animate_insect_ant_2.png	62	animate	insect	ant	2	0	1	boats	4	correct	0.931493593379855
79142	1	stim182_inanimate_tools_broom_2.png	182	inanimate	tools	broom	2	0	1	boats	4	correct	0.931493593379855
79342	1	stim007_animate_aquatic_fish_3.png	7	animate	aquatic	fish	3	0	1	boats	4	correct	0.931493593379855
79542	1	stim199_inanimate_tools_wrench_3.png	199	inanimate	tools	wrench	3	0	1	boats	4	correct	0.931493593379855
79742	1	stim122_inanimate_fruits_apple_2.png	122	inanimate	fruits	apple	2	0	1	boats	4	correct	0.931493593379855
79943	1	stim076_animate_insect_dragonfly_4.png	76	animate	insect	dragonfly	4	0	1	boats	4	correct	0.931493593379855
80143	1	stim126_inanimate_fruits_banana_2.png	126	inanimate	fruits	banana	2	0	1	boats	4	correct	0.931493593379855
80343	1	stim168_inanimate_plants_cactus_4.png	168	inanimate	plants	cactus	4	0	1	boats	4	correct	0.931493593379855
80542	1	stim167_inanimate_plants_cactus_3.png	167	inanimate	plants	cactus	3	0	1	boats	4	correct	0.931493593379855
80743	1	stim059_animate_human_sports_3.png	59	animate	human	sports	3	0	1	boats	4	correct	0.931493593379855
80943	1	stim127_inanimate_fruits_banana_3.png	127	inanimate	fruits	banana	3	0	1	boats	4	correct	0.931493593379855
81143	1	stim130_inanimate_fruits_grape_2.png	130	inanimate	fruits	grape	2	0	1	boats	4	correct	0.931493593379855
81343	1	stim155_inanimate_furniture_sofa_3.png	155	inanimate	furniture	sofa	3	0	1	boats	4	correct	0.931493593379855
81543	1	stim119_inanimate_clothing_socks_3.png	119	inanimate	clothing	socks	3	0	1	boats	4	correct	0.931493593379855
81743	1	stim061_animate_insect_ant_1.png	61	animate	insect	ant	1	0	1	boats	4	correct	0.931493593379855
81943	1	stim125_inanimate_fruits_banana_1.png	125	inanimate	fruits	banana	1	0	1	boats	4	correct	0.931493593379855
82143	1	stim166_inanimate_plants_cactus_2.png	166	inanimate	plants	cactus	2	0	1	boats	4	correct	0.931493593379855
82343	1	stim020_animate_aquatic_shrimp_4.png	20	animate	aquatic	shrimp	4	0	1	boats	4	correct	0.931493593379855
82543	1	stim034_animate_bird_peacock_2.png	34	animate	bird	peacock	2	0	1	boats	4	correct	0.931493593379855
82743	1	stim072_animate_insect_butterfly_4.png	72	animate	insect	butterfly	4	0	1	boats	4	correct	0.931493593379855
82943	1	stim170_inanimate_plants_sunflower_2.png	170	inanimate	plants	sunflower	2	0	1	boats	4	correct	0.931493593379855
83143	1	stim190_inanimate_tools_pan_2.png	190	inanimate	tools	pan	2	0	1	boats	4	correct	0.931493593379855
83343	1	stim113_inanimate_clothing_shirt_1.png	113	inanimate	clothing	shirt	1	0	1	boats	4	correct	0.931493593379855
83543	1	stim099_animate_mammal_rhino_3.png	99	animate	mammal	rhino	3	0	1	boats	4	correct	0.931493593379855
83743	1	stim044_animate_human_baby_4.png	44	animate	human	baby	4	0	1	boats	4	correct	0.931493593379855
83943	1	stim136_inanimate_fruits_pineapple_4.png	136	inanimate	fruits	pineapple	4	0	1	boats	4	correct	0.931493593379855
84143	1	stim016_animate_aquatic_shark_4.png	16	animate	aquatic	shark	4	0	1	boats	4	correct	0.931493593379855
84343	1	stim006_animate_aquatic_fish_2.png	6	animate	aquatic	fish	2	0	1	boats	4	correct	0.931493593379855
84543	1	stim021_animate_bird_chicken_1.png	21	animate	bird	chicken	1	0	1	boats	4	correct	0.931493593379855
84743	1	stim027_animate_bird_duck_3.png	27	animate	bird	duck	3	0	1	boats	4	correct	0.931493593379855
84943	1	stim208_targets_object_boats_4.png	208	targets	object	boats	4	1	1	boats	4	correct	0.931493593379855
85143	1	stim189_inanimate_tools_pan_1.png	189	inanimate	tools	pan	1	0	1	boats	4	correct	0.931493593379855
85343	1	stim033_animate_bird_peacock_1.png	33	animate	bird	peacock	1	0	1	boats	4	correct	0.931493593379855
85543	1	stim138_inanimate_fruits_strawberry_2.png	138	inanimate	fruits	strawberry	2	0	1	boats	4	correct	0.931493593379855
85743	1	stim017_animate_aquatic_shrimp_1.png	17	animate	aquatic	shrimp	1	0	1	boats	4	correct	0.931493593379855
85943	1	stim067_animate_insect_bug_3.png	67	animate	insect	bug	3	0	1	boats	4	correct	0.931493593379855
86143	1	stim176_inanimate_plants_tree_4.png	176	inanimate	plants	tree	4	0	1	boats	4	correct	0.931493593379855
86343	1	stim025_animate_bird_duck_1.png	25	animate	bird	duck	1	0	1	boats	4	correct	0.931493593379855
86543	1	stim110_inanimate_clothing_jeans_2.png	110	inanimate	clothing	jeans	2	0	1	boats	4	correct	0.931493593379855
86743	1	stim161_inanimate_plants_bush_1.png	161	inanimate	plants	bush	1	0	1	boats	4	correct	0.931493593379855
86943	1	stim192_inanimate_tools_pan_4.png	192	inanimate	tools	pan	4	0	1	boats	4	correct	0.931493593379855
87143	1	stim080_animate_insect_grasshopper_4.png	80	animate	insect	grasshopper	4	0	1	boats	4	correct	0.931493593379855
87343	1	stim083_animate_mammal_cow_3.png	83	animate	mammal	cow	3	0	1	boats	4	correct	0.931493593379855
87543	1	stim075_animate_insect_dragonfly_3.png	75	animate	insect	dragonfly	3	0	1	boats	4	correct	0.931493593379855
87743	1	stim052_animate_human_clown_4.png	52	animate	human	clown	4	0	1	boats	4	correct	0.931493593379855
87943	1	stim157_inanimate_furniture_table_1.png	157	inanimate	furniture	table	1	0	1	boats	4	correct	0.931493593379855
88143	1	stim120_inanimate_clothing_socks_4.png	120	inanimate	clothing	socks	4	0	1	boats	4	correct	0.931493593379855
88343	1	stim154_inanimate_furniture_sofa_2.png	154	inanimate	furniture	sofa	2	0	1	boats	4	correct	0.931493593379855
88543	1	stim037_animate_bird_penguin_1.png	37	animate	bird	penguin	1	0	1	boats	4	correct	0.931493593379855
88743	1	stim105_inanimate_clothing_hat_1.png	105	inanimate	clothing	hat	1	0	1	boats	4	correct	0.931493593379855
88943	1	stim175_inanimate_plants_tree_3.png	175	inanimate	plants	tree	3	0	1	boats	4	correct	0.931493593379855
89143	1	stim079_animate_insect_grasshopper_3.png	79	animate	insect	grasshopper	3	0	1	boats	4	correct	0.931493593379855
89343	1	stim153_inanimate_furniture_sofa_1.png	153	inanimate	furniture	sofa	1	0	1	boats	4	correct	0.931493593379855
89543	1	stim074_animate_insect_dragonfly_2.png	74	animate	insect	dragonfly	2	0	1	boats	4	correct	0.931493593379855
89743	1	stim011_animate_aquatic_seahorse_3.png	11	animate	aquatic	seahorse	3	0	1	boats	4	correct	0.931493593379855
89943	1	stim081_animate_mammal_cow_1.png	81	animate	mammal	cow	1	0	1	boats	4	correct	0.931493593379855
90143	1	stim145_inanimate_furniture_chair_1.png	145	inanimate	furniture	chair	1	0	1	boats	4	correct	0.931493593379855
90343	1	stim137_inanimate_fruits_strawberry_1.png	137	inanimate	fruits	strawberry	1	0	1	boats	4	correct	0.931493593379855
90543	1	stim041_animate_human_baby_1.png	41	animate	human	baby	1	0	1	boats	4	correct	0.931493593379855
90743	1	stim046_animate_human_child_2.png	46	animate	human	child	2	0	1	boats	4	correct	0.931493593379855
90943	1	stim147_inanimate_furniture_chair_3.png	147	inanimate	furniture	chair	3	0	1	boats	4	correct	0.931493593379855
91143	1	stim132_inanimate_fruits_grape_4.png	132	inanimate	fruits	grape	4	0	1	boats	4	correct	0.931493593379855
91343	1	stim050_animate_human_clown_2.png	50	animate	human	clown	2	0	1	boats	4	correct	0.931493593379855
91543	1	stim039_animate_bird_penguin_3.png	39	animate	bird	penguin	3	0	1	boats	4	correct	0.931493593379855
91743	1	stim140_inanimate_fruits_strawberry_4.png	140	inanimate	fruits	strawberry	4	0	1	boats	4	correct	0.931493593379855
91943	1	stim204_targets_object_boats_4.png	204	targets	object	boats	4	1	1	boats	4	correct	0.931493593379855
92143	1	stim049_animate_human_clown_1.png	49	animate	human	clown	1	0	1	boats	4	correct	0.931493593379855
92343	1	stim042_animate_human_baby_2.png	42	animate	human	baby	2	0	1	boats	4	correct	0.931493593379855
92543	1	stim151_inanimate_furniture_closet_3.png	151	inanimate	furniture	closet	3	0	1	boats	4	correct	0.931493593379855
92743	1	stim123_inanimate_fruits_apple_3.png	123	inanimate	fruits	apple	3	0	1	boats	4	correct	0.931493593379855
92943	1	stim022_animate_bird_chicken_2.png	22	animate	bird	chicken	2	0	1	boats	4	correct	0.931493593379855
93143	1	stim116_inanimate_clothing_shirt_4.png	116	inanimate	clothing	shirt	4	0	1	boats	4	correct	0.931493593379855
93343	1	stim124_inanimate_fruits_apple_4.png	124	inanimate	fruits	apple	4	0	1	boats	4	correct	0.931493593379855
93543	1	stim038_animate_bird_penguin_2.png	38	animate	bird	penguin	2	0	1	boats	4	correct	0.931493593379855
93743	1	stim093_animate_mammal_monkey_1.png	93	animate	mammal	monkey	1	0	1	boats	4	correct	0.931493593379855
93943	1	stim141_inanimate_furniture_bed_1.png	141	inanimate	furniture	bed	1	0	1	boats	4	correct	0.931493593379855
94143	1	stim143_inanimate_furniture_bed_3.png	143	inanimate	furniture	bed	3	0	1	boats	4	correct	0.931493593379855
94343	1	stim084_animate_mammal_cow_4.png	84	animate	mammal	cow	4	0	1	boats	4	correct	0.931493593379855
94543	1	stim060_animate_human_sports_4.png	60	animate	human	sports	4	0	1	boats	4	correct	0.931493593379855
94743	1	stim085_animate_mammal_giraffe_1.png	85	animate	mammal	giraffe	1	0	1	boats	4	correct	0.931493593379855
94943	1	stim162_inanimate_plants_bush_2.png	162	inanimate	plants	bush	2	0	1	boats	4	correct	0.931493593379855
95143	1	stim179_inanimate_plants_tulip_3.png	179	inanimate	plants	tulip	3	0	1	boats	4	correct	0.931493593379855
95343	1	stim036_animate_bird_peacock_4.png	36	animate	bird	peacock	4	0	1	boats	4	correct	0.931493593379855
95543	1	stim032_animate_bird_parrot_4.png	32	animate	bird	parrot	4	0	1	boats	4	correct	0.931493593379855
95743	1	stim106_inanimate_clothing_hat_2.png	106	inanimate	clothing	hat	2	0	1	boats	4	correct	0.931493593379855
95943	1	stim012_animate_aquatic_seahorse_4.png	12	animate	aquatic	seahorse	4	0	1	boats	4	correct	0.931493593379855
96143	1	stim009_animate_aquatic_seahorse_1.png	9	animate	aquatic	seahorse	1	0	1	boats	4	correct	0.931493593379855
96343	1	stim156_inanimate_furniture_sofa_4.png	156	inanimate	furniture	sofa	4	0	1	boats	4	correct	0.931493593379855
96543	1	stim095_animate_mammal_monkey_3.png	95	animate	mammal	monkey	3	0	1	boats	4	correct	0.931493593379855
96743	1	stim109_inanimate_clothing_jeans_1.png	109	inanimate	clothing	jeans	1	0	1	boats	4	correct	0.931493593379855
96943	1	stim201_targets_object_boats_1.png	201	targets	object	boats	1	1	1	boats	4	correct	0.931493593379855
97143	1	stim193_inanimate_tools_scissors_1.png	193	inanimate	tools	scissors	1	0	1	boats	4	correct	0.931493593379855
97343	1	stim134_inanimate_fruits_pineapple_2.png	134	inanimate	fruits	pineapple	2	0	1	boats	4	correct	0.931493593379855
97543	1	stim077_animate_insect_grasshopper_1.png	77	animate	insect	grasshopper	1	0	1	boats	4	correct	0.931493593379855
97743	1	stim090_animate_mammal_kangaroo_2.png	90	animate	mammal	kangaroo	2	0	1	boats	4	correct	0.931493593379855
97943	1	stim108_inanimate_clothing_hat_4.png	108	inanimate	clothing	hat	4	0	1	boats	4	correct	0.931493593379855
98143	1	stim048_animate_human_child_4.png	48	animate	human	child	4	0	1	boats	4	correct	0.931493593379855
98343	1	stim174_inanimate_plants_tree_2.png	174	inanimate	plants	tree	2	0	1	boats	4	correct	0.931493593379855
98543	1	stim005_animate_aquatic_fish_1.png	5	animate	aquatic	fish	1	0	1	boats	4	correct	0.931493593379855
98743	1	stim035_animate_bird_peacock_3.png	35	animate	bird	peacock	3	0	1	boats	4	correct	0.931493593379855
98943	1	stim089_animate_mammal_kangaroo_1.png	89	animate	mammal	kangaroo	1	0	1	boats	4	correct	0.931493593379855
99143	1	stim071_animate_insect_butterfly_3.png	71	animate	insect	butterfly	3	0	1	boats	4	correct	0.931493593379855
99343	1	stim078_animate_insect_grasshopper_2.png	78	animate	insect	grasshopper	2	0	1	boats	4	correct	0.931493593379855
99543	1	stim028_animate_bird_duck_4.png	28	animate	bird	duck	4	0	1	boats	4	correct	0.931493593379855
99743	1	stim121_inanimate_fruits_apple_1.png	121	inanimate	fruits	apple	1	0	1	boats	4	correct	0.931493593379855
99943	1	stim097_animate_mammal_rhino_1.png	97	animate	mammal	rhino	1	0	1	boats	4	correct	0.931493593379855
100143	1	stim002_animate_aquatic_crab_2.png	2	animate	aquatic	crab	2	0	1	boats	4	correct	0.931493593379855
100343	1	stim195_inanimate_tools_scissors_3.png	195	inanimate	tools	scissors	3	0	1	boats	4	correct	0.931493593379855
100543	1	stim177_inanimate_plants_tulip_1.png	177	inanimate	plants	tulip	1	0	1	boats	4	correct	0.931493593379855
100743	1	stim139_inanimate_fruits_strawberry_3.png	139	inanimate	fruits	strawberry	3	0	1	boats	4	correct	0.931493593379855
100943	1	stim158_inanimate_furniture_table_2.png	158	inanimate	furniture	table	2	0	1	boats	4	correct	0.931493593379855
101143	1	stim164_inanimate_plants_bush_4.png	164	inanimate	plants	bush	4	0	1	boats	4	correct	0.931493593379855
101343	1	stim101_inanimate_clothing_gloves_1.png	101	inanimate	clothing	gloves	1	0	1	boats	4	correct	0.931493593379855
101543	1	stim128_inanimate_fruits_banana_4.png	128	inanimate	fruits	banana	4	0	1	boats	4	correct	0.931493593379855
101743	1	stim063_animate_insect_ant_3.png	63	animate	insect	ant	3	0	1	boats	4	correct	0.931493593379855
101943	1	stim053_animate_human_faces_1.png	53	animate	human	faces	1	0	1	boats	4	correct	0.931493593379855
102143	1	stim015_animate_aquatic_shark_3.png	15	animate	aquatic	shark	3	0	1	boats	4	correct	0.931493593379855
102343	1	stim159_inanimate_furniture_table_3.png	159	inanimate	furniture	table	3	0	1	boats	4	correct	0.931493593379855
102543	1	stim133_inanimate_fruits_pineapple_1.png	133	inanimate	fruits	pineapple	1	0	1	boats	4	correct	0.931493593379855
102743	1	stim135_inanimate_fruits_pineapple_3.png	135	inanimate	fruits	pineapple	3	0	1	boats	4	correct	0.931493593379855
102943	1	stim169_inanimate_plants_sunflower_1.png	169	inanimate	plants	sunflower	1	0	1	boats	4	correct	0.931493593379855
103143	1	stim054_animate_human_faces_2.png	54	animate	human	faces	2	0	1	boats	4	correct	0.931493593379855
103343	1	stim114_inanimate_clothing_shirt_2.png	114	inanimate	clothing	shirt	2	0	1	boats	4	correct	0.931493593379855
103543	1	stim024_animate_bird_chicken_4.png	24	animate	bird	chicken	4	0	1	boats	4	correct	0.931493593379855
103743	1	stim029_animate_bird_parrot_1.png	29	animate	bird	parrot	1	0	1	boats	4	correct	0.931493593379855
103943	1	stim152_inanimate_furniture_closet_4.png	152	inanimate	furniture	closet	4	0	1	boats	4	correct	0.931493593379855
104143	1	stim131_inanimate_fruits_grape_3.png	131	inanimate	fruits	grape	3	0	1	boats	4	correct	0.931493593379855
104343	1	stim056_animate_human_faces_4.png	56	animate	human	faces	4	0	1	boats	4	correct	0.931493593379855
104543	1	stim197_inanimate_tools_wrench_1.png	197	inanimate	tools	wrench	1	0	1	boats	4	correct	0.931493593379855
104743	1	stim171_inanimate_plants_sunflower_3.png	171	inanimate	plants	sunflower	3	0	1	boats	4	correct	0.931493593379855
104943	1	stim064_animate_insect_ant_4.png	64	animate	insect	ant	4	0	1	boats	4	correct	0.931493593379855
105143	1	stim146_inanimate_furniture_chair_2.png	146	inanimate	furniture	chair	2	0	1	boats	4	correct	0.931493593379855
105343	1	stim196_inanimate_tools_scissors_4.png	196	inanimate	tools	scissors	4	0	1	boats	4	correct	0.931493593379855
105543	1	stim051_animate_human_clown_3.png	51	animate	human	clown	3	0	1	boats	4	correct	0.931493593379855
105743	1	stim186_inanimate_tools_hammer_2.png	186	inanimate	tools	hammer	2	0	1	boats	4	correct	0.931493593379855
105943	1	stim031_animate_bird_parrot_3.png	31	animate	bird	parrot	3	0	1	boats	4	correct	0.931493593379855
106143	1	stim058_animate_human_sports_2.png	58	animate	human	sports	2	0	1	boats	4	correct	0.931493593379855
106343	1	stim165_inanimate_plants_cactus_1.png	165	inanimate	plants	cactus	1	0	1	boats	4	correct	0.931493593379855
106543	1	stim115_inanimate_clothing_shirt_3.png	115	inanimate	clothing	shirt	3	0	1	boats	4	correct	0.931493593379855
106743	1	stim198_inanimate_tools_wrench_2.png	198	inanimate	tools	wrench	2	0	1	boats	4	correct	0.931493593379855
106943	1	stim008_animate_aquatic_fish_4.png	8	animate	aquatic	fish	4	0	1	boats	4	correct	0.931493593379855
107143	1	stim030_animate_bird_parrot_2.png	30	animate	bird	parrot	2	0	1	boats	4	correct	0.931493593379855
107343	1	stim200_inanimate_tools_wrench_4.png	200	inanimate	tools	wrench	4	0	1	boats	4	correct	0.931493593379855
107543	1	stim102_inanimate_clothing_gloves_2.png	102	inanimate	clothing	gloves	2	0	1	boats	4	correct	0.931493593379855
128294	1	stim175_inanimate_plants_tree_3.png	175	inanimate	plants	tree	3	0	2	boats	2	correct	2.00339066272136
128494	1	stim129_inanimate_fruits_grape_1.png	129	inanimate	fruits	grape	1	0	2	boats	2	correct	2.00339066272136
128694	1	stim040_animate_bird_penguin_4.png	40	animate	bird	penguin	4	0	2	boats	2	correct	2.00339066272136
128894	1	stim060_animate_human_sports_4.png	60	animate	human	sports	4	0	2	boats	2	correct	2.00339066272136
129094	1	stim097_animate_mammal_rhino_1.png	97	animate	mammal	rhino	1	0	2	boats	2	correct	2.00339066272136
129294	1	stim054_animate_human_faces_2.png	54	animate	human	faces	2	0	2	boats	2	correct	2.00339066272136
129494	1	stim038_animate_bird_penguin_2.png	38	animate	bird	penguin	2	0	2	boats	2	correct	2.00339066272136
129694	1	stim035_animate_bird_peacock_3.png	35	animate	bird	peacock	3	0	2	boats	2	correct	2.00339066272136
129894	1	stim086_animate_mammal_giraffe_2.png	86	animate	mammal	giraffe	2	0	2	boats	2	correct	2.00339066272136
130094	1	stim127_inanimate_fruits_banana_3.png	127	inanimate	fruits	banana	3	0	2	boats	2	correct	2.00339066272136
130294	1	stim146_inanimate_furniture_chair_2.png	146	inanimate	furniture	chair	2	0	2	boats	2	correct	2.00339066272136
130494	1	stim185_inanimate_tools_hammer_1.png	185	inanimate	tools	hammer	1	0	2	boats	2	correct	2.00339066272136
130694	1	stim032_animate_bird_parrot_4.png	32	animate	bird	parrot	4	0	2	boats	2	correct	2.00339066272136
130894	1	stim191_inanimate_tools_pan_3.png	191	inanimate	tools	pan	3	0	2	boats	2	correct	2.00339066272136
131094	1	stim005_animate_aquatic_fish_1.png	5	animate	aquatic	fish	1	0	2	boats	2	correct	2.00339066272136
131294	1	stim182_inanimate_tools_broom_2.png	182	inanimate	tools	broom	2	0	2	boats	2	correct	2.00339066272136
131494	1	stim069_animate_insect_butterfly_1.png	69	animate	insect	butterfly	1	0	2	boats	2	correct	2.00339066272136
131694	1	stim168_inanimate_plants_cactus_4.png	168	inanimate	plants	cactus	4	0	2	boats	2	correct	2.00339066272136
131894	1	stim056_animate_human_faces_4.png	56	animate	human	faces	4	0	2	boats	2	correct	2.00339066272136
132094	1	stim145_inanimate_furniture_chair_1.png	145	inanimate	furniture	chair	1	0	2	boats	2	correct	2.00339066272136
132294	1	stim096_animate_mammal_monkey_4.png	96	animate	mammal	monkey	4	0	2	boats	2	correct	2.00339066272136
132494	1	stim075_animate_insect_dragonfly_3.png	75	animate	insect	dragonfly	3	0	2	boats	2	correct	2.00339066272136
132694	1	stim008_animate_aquatic_fish_4.png	8	animate	aquatic	fish	4	0	2	boats	2	correct	2.00339066272136
132894	1	stim151_inanimate_furniture_closet_3.png	151	inanimate	furniture	closet	3	0	2	boats	2	correct	2.00339066272136
133094	1	stim138_inanimate_fruits_strawberry_2.png	138	inanimate	fruits	strawberry	2	0	2	boats	2	correct	2.00339066272136
133294	1	stim139_inanimate_fruits_strawberry_3.png	139	inanimate	fruits	strawberry	3	0	2	boats	2	correct	2.00339066272136
133494	1	stim064_animate_insect_ant_4.png	64	animate	insect	ant	4	0	2	boats	2	correct	2.00339066272136
133694	1	stim114_inanimate_clothing_shirt_2.png	114	inanimate	clothing	shirt	2	0	2	boats	2	correct	2.00339066272136
133894	1	stim171_inanimate_plants_sunflower_3.png	171	inanimate	plants	sunflower	3	0	2	boats	2	correct	2.00339066272136
134094	1	stim154_inanimate_furniture_sofa_2.png	154	inanimate	furniture	sofa	2	0	2	boats	2	correct	2.00339066272136
134294	1	stim157_inanimate_furniture_table_1.png	157	inanimate	furniture	table	1	0	2	boats	2	correct	2.00339066272136
134494	1	stim164_inanimate_plants_bush_4.png	164	inanimate	plants	bush	4	0	2	boats	2	correct	2.00339066272136
134694	1	stim028_animate_bird_duck_4.png	28	animate	bird	duck	4	0	2	boats	2	correct	2.00339066272136
134894	1	stim120_inanimate_clothing_socks_4.png	120	inanimate	clothing	socks	4	0	2	boats	2	correct	2.00339066272136
135094	1	stim047_animate_human_child_3.png	47	animate	human	child	3	0	2	boats	2	correct	2.00339066272136
135294	1	stim159_inanimate_furniture_table_3.png	159	inanimate	furniture	table	3	0	2	boats	2	correct	2.00339066272136
135494	1	stim036_animate_bird_peacock_4.png	36	animate	bird	peacock	4	0	2	boats	2	correct	2.00339066272136
135694	1	stim160_inanimate_furniture_table_4.png	160	inanimate	furniture	table	4	0	2	boats	2	correct	2.00339066272136
135894	1	stim017_animate_aquatic_shrimp_1.png	17	animate	aquatic	shrimp	1	0	2	boats	2	correct	2.00339066272136
136094	1	stim083_animate_mammal_cow_3.png	83	animate	mammal	cow	3	0	2	boats	2	correct	2.00339066272136
136294	1	stim089_animate_mammal_kangaroo_1.png	89	animate	mammal	kangaroo	1	0	2	boats	2	correct	2.00339066272136
136494	1	stim181_inanimate_tools_broom_1.png	181	inanimate	tools	broom	1	0	2	boats	2	correct	2.00339066272136
136694	1	stim183_inanimate_tools_broom_3.png	183	inanimate	tools	broom	3	0	2	boats	2	correct	2.00339066272136
136894	1	stim170_inanimate_plants_sunflower_2.png	170	inanimate	plants	sunflower	2	0	2	boats	2	correct	2.00339066272136
137094	1	stim158_inanimate_furniture_table_2.png	158	inanimate	furniture	table	2	0	2	boats	2	correct	2.00339066272136
137294	1	stim126_inanimate_fruits_banana_2.png	126	inanimate	fruits	banana	2	0	2	boats	2	correct	2.00339066272136
137494	1	stim187_inanimate_tools_hammer_3.png	187	inanimate	tools	hammer	3	0	2	boats	2	correct	2.00339066272136
137694	1	stim079_animate_insect_grasshopper_3.png	79	animate	insect	grasshopper	3	0	2	boats	2	correct	2.00339066272136
137894	1	stim179_inanimate_plants_tulip_3.png	179	inanimate	plants	tulip	3	0	2	boats	2	correct	2.00339066272136
138094	1	stim046_animate_human_child_2.png	46	animate	human	child	2	0	2	boats	2	correct	2.00339066272136
138294	1	stim106_inanimate_clothing_hat_2.png	106	inanimate	clothing	hat	2	0	2	boats	2	correct	2.00339066272136
138494	1	stim189_inanimate_tools_pan_1.png	189	inanimate	tools	pan	1	0	2	boats	2	correct	2.00339066272136
138694	1	stim077_animate_insect_grasshopper_1.png	77	animate	insect	grasshopper	1	0	2	boats	2	correct	2.00339066272136
138894	1	stim053_animate_human_faces_1.png	53	animate	human	faces	1	0	2	boats	2	correct	2.00339066272136
139094	1	stim088_animate_mammal_giraffe_4.png	88	animate	mammal	giraffe	4	0	2	boats	2	correct	2.00339066272136
139294	1	stim148_inanimate_furniture_chair_4.png	148	inanimate	furniture	chair	4	0	2	boats	2	correct	2.00339066272136
139494	1	stim041_animate_human_baby_1.png	41	animate	human	baby	1	0	2	boats	2	correct	2.00339066272136
139694	1	stim142_inanimate_furniture_bed_2.png	142	inanimate	furniture	bed	2	0	2	boats	2	correct	2.00339066272136
139894	1	stim011_animate_aquatic_seahorse_3.png	11	animate	aquatic	seahorse	3	0	2	boats	2	correct	2.00339066272136
140094	1	stim002_animate_aquatic_crab_2.png	2	animate	aquatic	crab	2	0	2	boats	2	correct	2.00339066272136
140294	1	stim121_inanimate_fruits_apple_1.png	121	inanimate	fruits	apple	1	0	2	boats	2	correct	2.00339066272136
140494	1	stim066_animate_insect_bug_2.png	66	animate	insect	bug	2	0	2	boats	2	correct	2.00339066272136
140694	1	stim052_animate_human_clown_4.png	52	animate	human	clown	4	0	2	boats	2	correct	2.00339066272136
140894	1	stim013_animate_aquatic_shark_1.png	13	animate	aquatic	shark	1	0	2	boats	2	correct	2.00339066272136
141094	1	stim024_animate_bird_chicken_4.png	24	animate	bird	chicken	4	0	2	boats	2	correct	2.00339066272136
141294	1	stim055_animate_human_faces_3.png	55	animate	human	faces	3	0	2	boats	2	correct	2.00339066272136
141494	1	stim107_inanimate_clothing_hat_3.png	107	inanimate	clothing	hat	3	0	2	boats	2	correct	2.00339066272136
141694	1	stim166_inanimate_plants_cactus_2.png	166	inanimate	plants	cactus	2	0	2	boats	2	correct	2.00339066272136
141894	1	stim136_inanimate_fruits_pineapple_4.png	136	inanimate	fruits	pineapple	4	0	2	boats	2	correct	2.00339066272136
142094	1	stim076_animate_insect_dragonfly_4.png	76	animate	insect	dragonfly	4	0	2	boats	2	correct	2.00339066272136
142294	1	stim147_inanimate_furniture_chair_3.png	147	inanimate	furniture	chair	3	0	2	boats	2	correct	2.00339066272136
142494	1	stim034_animate_bird_peacock_2.png	34	animate	bird	peacock	2	0	2	boats	2	correct	2.00339066272136
142694	1	stim149_inanimate_furniture_closet_1.png	149	inanimate	furniture	closet	1	0	2	boats	2	correct	2.00339066272136
142894	1	stim190_inanimate_tools_pan_2.png	190	inanimate	tools	pan	2	0	2	boats	2	correct	2.00339066272136
143094	1	stim070_animate_insect_butterfly_2.png	70	animate	insect	butterfly	2	0	2	boats	2	correct	2.00339066272136
143294	1	stim030_animate_bird_parrot_2.png	30	animate	bird	parrot	2	0	2	boats	2	correct	2.00339066272136
143494	1	stim021_animate_bird_chicken_1.png	21	animate	bird	chicken	1	0	2	boats	2	correct	2.00339066272136
143694	1	stim116_inanimate_clothing_shirt_4.png	116	inanimate	clothing	shirt	4	0	2	boats	2	correct	2.00339066272136
143894	1	stim141_inanimate_furniture_bed_1.png	141	inanimate	furniture	bed	1	0	2	boats	2	correct	2.00339066272136
144094	1	stim110_inanimate_clothing_jeans_2.png	110	inanimate	clothing	jeans	2	0	2	boats	2	correct	2.00339066272136
144294	1	stim207_targets_object_boats_3.png	207	targets	object	boats	3	1	2	boats	2	correct	2.00339066272136
144494	1	stim085_animate_mammal_giraffe_1.png	85	animate	mammal	giraffe	1	0	2	boats	2	correct	2.00339066272136
144694	1	stim198_inanimate_tools_wrench_2.png	198	inanimate	tools	wrench	2	0	2	boats	2	correct	2.00339066272136
144894	1	stim029_animate_bird_parrot_1.png	29	animate	bird	parrot	1	0	2	boats	2	correct	2.00339066272136
145094	1	stim186_inanimate_tools_hammer_2.png	186	inanimate	tools	hammer	2	0	2	boats	2	correct	2.00339066272136
145294	1	stim150_inanimate_furniture_closet_2.png	150	inanimate	furniture	closet	2	0	2	boats	2	correct	2.00339066272136
145494	1	stim009_animate_aquatic_seahorse_1.png	9	animate	aquatic	seahorse	1	0	2	boats	2	correct	2.00339066272136
145694	1	stim080_animate_insect_grasshopper_4.png	80	animate	insect	grasshopper	4	0	2	boats	2	correct	2.00339066272136
145894	1	stim045_animate_human_child_1.png	45	animate	human	child	1	0	2	boats	2	correct	2.00339066272136
146094	1	stim137_inanimate_fruits_strawberry_1.png	137	inanimate	fruits	strawberry	1	0	2	boats	2	correct	2.00339066272136
146294	1	stim105_inanimate_clothing_hat_1.png	105	inanimate	clothing	hat	1	0	2	boats	2	correct	2.00339066272136
146494	1	stim109_inanimate_clothing_jeans_1.png	109	inanimate	clothing	jeans	1	0	2	boats	2	correct	2.00339066272136
146694	1	stim031_animate_bird_parrot_3.png	31	animate	bird	parrot	3	0	2	boats	2	correct	2.00339066272136
146894	1	stim102_inanimate_clothing_gloves_2.png	102	inanimate	clothing	gloves	2	0	2	boats	2	correct	2.00339066272136
147094	1	stim016_animate_aquatic_shark_4.png	16	animate	aquatic	shark	4	0	2	boats	2	correct	2.00339066272136
147294	1	stim193_inanimate_tools_scissors_1.png	193	inanimate	tools	scissors	1	0	2	boats	2	correct	2.00339066272136
147494	1	stim018_animate_aquatic_shrimp_2.png	18	animate	aquatic	shrimp	2	0	2	boats	2	correct	2.00339066272136
147694	1	stim122_inanimate_fruits_apple_2.png	122	inanimate	fruits	apple	2	0	2	boats	2	correct	2.00339066272136
147894	1	stim167_inanimate_plants_cactus_3.png	167	inanimate	plants	cactus	3	0	2	boats	2	correct	2.00339066272136
148094	1	stim087_animate_mammal_giraffe_3.png	87	animate	mammal	giraffe	3	0	2	boats	2	correct	2.00339066272136
148294	1	stim073_animate_insect_dragonfly_1.png	73	animate	insect	dragonfly	1	0	2	boats	2	correct	2.00339066272136
148494	1	stim143_inanimate_furniture_bed_3.png	143	inanimate	furniture	bed	3	0	2	boats	2	correct	2.00339066272136
148694	1	stim025_animate_bird_duck_1.png	25	animate	bird	duck	1	0	2	boats	2	correct	2.00339066272136
148894	1	stim130_inanimate_fruits_grape_2.png	130	inanimate	fruits	grape	2	0	2	boats	2	correct	2.00339066272136
149094	1	stim007_animate_aquatic_fish_3.png	7	animate	aquatic	fish	3	0	2	boats	2	correct	2.00339066272136
149294	1	stim022_animate_bird_chicken_2.png	22	animate	bird	chicken	2	0	2	boats	2	correct	2.00339066272136
149494	1	stim004_animate_aquatic_crab_4.png	4	animate	aquatic	crab	4	0	2	boats	2	correct	2.00339066272136
149694	1	stim050_animate_human_clown_2.png	50	animate	human	clown	2	0	2	boats	2	correct	2.00339066272136
149894	1	stim174_inanimate_plants_tree_2.png	174	inanimate	plants	tree	2	0	2	boats	2	correct	2.00339066272136
150094	1	stim095_animate_mammal_monkey_3.png	95	animate	mammal	monkey	3	0	2	boats	2	correct	2.00339066272136
150294	1	stim123_inanimate_fruits_apple_3.png	123	inanimate	fruits	apple	3	0	2	boats	2	correct	2.00339066272136
150494	1	stim133_inanimate_fruits_pineapple_1.png	133	inanimate	fruits	pineapple	1	0	2	boats	2	correct	2.00339066272136
150694	1	stim082_animate_mammal_cow_2.png	82	animate	mammal	cow	2	0	2	boats	2	correct	2.00339066272136
150894	1	stim006_animate_aquatic_fish_2.png	6	animate	aquatic	fish	2	0	2	boats	2	correct	2.00339066272136
151094	1	stim144_inanimate_furniture_bed_4.png	144	inanimate	furniture	bed	4	0	2	boats	2	correct	2.00339066272136
151294	1	stim015_animate_aquatic_shark_3.png	15	animate	aquatic	shark	3	0	2	boats	2	correct	2.00339066272136
151494	1	stim092_animate_mammal_kangaroo_4.png	92	animate	mammal	kangaroo	4	0	2	boats	2	correct	2.00339066272136
151694	1	stim172_inanimate_plants_sunflower_4.png	172	inanimate	plants	sunflower	4	0	2	boats	2	correct	2.00339066272136
151894	1	stim176_inanimate_plants_tree_4.png	176	inanimate	plants	tree	4	0	2	boats	2	correct	2.00339066272136
152094	1	stim061_animate_insect_ant_1.png	61	animate	insect	ant	1	0	2	boats	2	correct	2.00339066272136
152294	1	stim067_animate_insect_bug_3.png	67	animate	insect	bug	3	0	2	boats	2	correct	2.00339066272136
152494	1	stim058_animate_human_sports_2.png	58	animate	human	sports	2	0	2	boats	2	correct	2.00339066272136
152694	1	stim001_animate_aquatic_crab_1.png	1	animate	aquatic	crab	1	0	2	boats	2	correct	2.00339066272136
152894	1	stim125_inanimate_fruits_banana_1.png	125	inanimate	fruits	banana	1	0	2	boats	2	correct	2.00339066272136
153094	1	stim111_inanimate_clothing_jeans_3.png	111	inanimate	clothing	jeans	3	0	2	boats	2	correct	2.00339066272136
153294	1	stim201_targets_object_boats_1.png	201	targets	object	boats	1	1	2	boats	2	correct	2.00339066272136
153494	1	stim019_animate_aquatic_shrimp_3.png	19	animate	aquatic	shrimp	3	0	2	boats	2	correct	2.00339066272136
153694	1	stim184_inanimate_tools_broom_4.png	184	inanimate	tools	broom	4	0	2	boats	2	correct	2.00339066272136
153894	1	stim101_inanimate_clothing_gloves_1.png	101	inanimate	clothing	gloves	1	0	2	boats	2	correct	2.00339066272136
154094	1	stim048_animate_human_child_4.png	48	animate	human	child	4	0	2	boats	2	correct	2.00339066272136
154294	1	stim134_inanimate_fruits_pineapple_2.png	134	inanimate	fruits	pineapple	2	0	2	boats	2	correct	2.00339066272136
154494	1	stim044_animate_human_baby_4.png	44	animate	human	baby	4	0	2	boats	2	correct	2.00339066272136
154694	1	stim194_inanimate_tools_scissors_2.png	194	inanimate	tools	scissors	2	0	2	boats	2	correct	2.00339066272136
154894	1	stim023_animate_bird_chicken_3.png	23	animate	bird	chicken	3	0	2	boats	2	correct	2.00339066272136
155094	1	stim012_animate_aquatic_seahorse_4.png	12	animate	aquatic	seahorse	4	0	2	boats	2	correct	2.00339066272136
155294	1	stim078_animate_insect_grasshopper_2.png	78	animate	insect	grasshopper	2	0	2	boats	2	correct	2.00339066272136
155494	1	stim051_animate_human_clown_3.png	51	animate	human	clown	3	0	2	boats	2	correct	2.00339066272136
155694	1	stim163_inanimate_plants_bush_3.png	163	inanimate	plants	bush	3	0	2	boats	2	correct	2.00339066272136
155894	1	stim169_inanimate_plants_sunflower_1.png	169	inanimate	plants	sunflower	1	0	2	boats	2	correct	2.00339066272136
156094	1	stim099_animate_mammal_rhino_3.png	99	animate	mammal	rhino	3	0	2	boats	2	correct	2.00339066272136
156294	1	stim197_inanimate_tools_wrench_1.png	197	inanimate	tools	wrench	1	0	2	boats	2	correct	2.00339066272136
156494	1	stim063_animate_insect_ant_3.png	63	animate	insect	ant	3	0	2	boats	2	correct	2.00339066272136
156694	1	stim188_inanimate_tools_hammer_4.png	188	inanimate	tools	hammer	4	0	2	boats	2	correct	2.00339066272136
156894	1	stim192_inanimate_tools_pan_4.png	192	inanimate	tools	pan	4	0	2	boats	2	correct	2.00339066272136
157094	1	stim043_animate_human_baby_3.png	43	animate	human	baby	3	0	2	boats	2	correct	2.00339066272136
157294	1	stim014_animate_aquatic_shark_2.png	14	animate	aquatic	shark	2	0	2	boats	2	correct	2.00339066272136
157494	1	stim057_animate_human_sports_1.png	57	animate	human	sports	1	0	2	boats	2	correct	2.00339066272136
157694	1	stim199_inanimate_tools_wrench_3.png	199	inanimate	tools	wrench	3	0	2	boats	2	correct	2.00339066272136
157894	1	stim200_inanimate_tools_wrench_4.png	200	inanimate	tools	wrench	4	0	2	boats	2	correct	2.00339066272136
158094	1	stim104_inanimate_clothing_gloves_4.png	104	inanimate	clothing	gloves	4	0	2	boats	2	correct	2.00339066272136
158294	1	stim119_inanimate_clothing_socks_3.png	119	inanimate	clothing	socks	3	0	2	boats	2	correct	2.00339066272136
158494	1	stim162_inanimate_plants_bush_2.png	162	inanimate	plants	bush	2	0	2	boats	2	correct	2.00339066272136
158694	1	stim180_inanimate_plants_tulip_4.png	180	inanimate	plants	tulip	4	0	2	boats	2	correct	2.00339066272136
158894	1	stim128_inanimate_fruits_banana_4.png	128	inanimate	fruits	banana	4	0	2	boats	2	correct	2.00339066272136
159094	1	stim068_animate_insect_bug_4.png	68	animate	insect	bug	4	0	2	boats	2	correct	2.00339066272136
159294	1	stim033_animate_bird_peacock_1.png	33	animate	bird	peacock	1	0	2	boats	2	correct	2.00339066272136
159494	1	stim093_animate_mammal_monkey_1.png	93	animate	mammal	monkey	1	0	2	boats	2	correct	2.00339066272136
159694	1	stim103_inanimate_clothing_gloves_3.png	103	inanimate	clothing	gloves	3	0	2	boats	2	correct	2.00339066272136
159894	1	stim065_animate_insect_bug_1.png	65	animate	insect	bug	1	0	2	boats	2	correct	2.00339066272136
160094	1	stim112_inanimate_clothing_jeans_4.png	112	inanimate	clothing	jeans	4	0	2	boats	2	correct	2.00339066272136
160294	1	stim020_animate_aquatic_shrimp_4.png	20	animate	aquatic	shrimp	4	0	2	boats	2	correct	2.00339066272136
160494	1	stim173_inanimate_plants_tree_1.png	173	inanimate	plants	tree	1	0	2	boats	2	correct	2.00339066272136
160694	1	stim165_inanimate_plants_cactus_1.png	165	inanimate	plants	cactus	1	0	2	boats	2	correct	2.00339066272136
160894	1	stim098_animate_mammal_rhino_2.png	98	animate	mammal	rhino	2	0	2	boats	2	correct	2.00339066272136
161094	1	stim115_inanimate_clothing_shirt_3.png	115	inanimate	clothing	shirt	3	0	2	boats	2	correct	2.00339066272136
161294	1	stim108_inanimate_clothing_hat_4.png	108	inanimate	clothing	hat	4	0	2	boats	2	correct	2.00339066272136
161494	1	stim161_inanimate_plants_bush_1.png	161	inanimate	plants	bush	1	0	2	boats	2	correct	2.00339066272136
161694	1	stim062_animate_insect_ant_2.png	62	animate	insect	ant	2	0	2	boats	2	correct	2.00339066272136
161894	1	stim074_animate_insect_dragonfly_2.png	74	animate	insect	dragonfly	2	0	2	boats	2	correct	2.00339066272136
162094	1	stim072_animate_insect_butterfly_4.png	72	animate	insect	butterfly	4	0	2	boats	2	correct	2.00339066272136
162294	1	stim153_inanimate_furniture_sofa_1.png	153	inanimate	furniture	sofa	1	0	2	boats	2	correct	2.00339066272136
162494	1	stim081_animate_mammal_cow_1.png	81	animate	mammal	cow	1	0	2	boats	2	correct	2.00339066272136
162694	1	stim152_inanimate_furniture_closet_4.png	152	inanimate	furniture	closet	4	0	2	boats	2	correct	2.00339066272136
162894	1	stim132_inanimate_fruits_grape_4.png	132	inanimate	fruits	grape	4	0	2	boats	2	correct	2.00339066272136
163094	1	stim049_animate_human_clown_1.png	49	animate	human	clown	1	0	2	boats	2	correct	2.00339066272136
163294	1	stim118_inanimate_clothing_socks_2.png	118	inanimate	clothing	socks	2	0	2	boats	2	correct	2.00339066272136
163494	1	stim177_inanimate_plants_tulip_1.png	177	inanimate	plants	tulip	1	0	2	boats	2	correct	2.00339066272136
163694	1	stim117_inanimate_clothing_socks_1.png	117	inanimate	clothing	socks	1	0	2	boats	2	correct	2.00339066272136
163894	1	stim140_inanimate_fruits_strawberry_4.png	140	inanimate	fruits	strawberry	4	0	2	boats	2	correct	2.00339066272136
164094	1	stim039_animate_bird_penguin_3.png	39	animate	bird	penguin	3	0	2	boats	2	correct	2.00339066272136
164294	1	stim178_inanimate_plants_tulip_2.png	178	inanimate	plants	tulip	2	0	2	boats	2	correct	2.00339066272136
164494	1	stim084_animate_mammal_cow_4.png	84	animate	mammal	cow	4	0	2	boats	2	correct	2.00339066272136
164694	1	stim091_animate_mammal_kangaroo_3.png	91	animate	mammal	kangaroo	3	0	2	boats	2	correct	2.00339066272136
164894	1	stim037_animate_bird_penguin_1.png	37	animate	bird	penguin	1	0	2	boats	2	correct	2.00339066272136
165094	1	stim195_inanimate_tools_scissors_3.png	195	inanimate	tools	scissors	3	0	2	boats	2	correct	2.00339066272136
165294	1	stim026_animate_bird_duck_2.png	26	animate	bird	duck	2	0	2	boats	2	correct	2.00339066272136
165495	1	stim059_animate_human_sports_3.png	59	animate	human	sports	3	0	2	boats	2	correct	2.00339066272136
165694	1	stim100_animate_mammal_rhino_4.png	100	animate	mammal	rhino	4	0	2	boats	2	correct	2.00339066272136
165894	1	stim094_animate_mammal_monkey_2.png	94	animate	mammal	monkey	2	0	2	boats	2	correct	2.00339066272136
166094	1	stim042_animate_human_baby_2.png	42	animate	human	baby	2	0	2	boats	2	correct	2.00339066272136
166294	1	stim010_animate_aquatic_seahorse_2.png	10	animate	aquatic	seahorse	2	0	2	boats	2	correct	2.00339066272136
166494	1	stim071_animate_insect_butterfly_3.png	71	animate	insect	butterfly	3	0	2	boats	2	correct	2.00339066272136
166694	1	stim156_inanimate_furniture_sofa_4.png	156	inanimate	furniture	sofa	4	0	2	boats	2	correct	2.00339066272136
166894	1	stim113_inanimate_clothing_shirt_1.png	113	inanimate	clothing	shirt	1	0	2	boats	2	correct	2.00339066272136
167094	1	stim155_inanimate_furniture_sofa_3.png	155	inanimate	furniture	sofa	3	0	2	boats	2	correct	2.00339066272136
167294	1	stim124_inanimate_fruits_apple_4.png	124	inanimate	fruits	apple	4	0	2	boats	2	correct	2.00339066272136
167494	1	stim027_animate_bird_duck_3.png	27	animate	bird	duck	3	0	2	boats	2	correct	2.00339066272136
167695	1	stim090_animate_mammal_kangaroo_2.png	90	animate	mammal	kangaroo	2	0	2	boats	2	correct	2.00339066272136
167895	1	stim135_inanimate_fruits_pineapple_3.png	135	inanimate	fruits	pineapple	3	0	2	boats	2	correct	2.00339066272136
168095	1	stim196_inanimate_tools_scissors_4.png	196	inanimate	tools	scissors	4	0	2	boats	2	correct	2.00339066272136
168295	1	stim131_inanimate_fruits_grape_3.png	131	inanimate	fruits	grape	3	0	2	boats	2	correct	2.00339066272136
168495	1	stim003_animate_aquatic_crab_3.png	3	animate	aquatic	crab	3	0	2	boats	2	correct	2.00339066272136
180778	1	stim065_animate_insect_bug_1.png	65	animate	insect	bug	1	0	3	boats	2	correct	1.43962099280907
180978	1	stim141_inanimate_furniture_bed_1.png	141	inanimate	furniture	bed	1	0	3	boats	2	correct	1.43962099280907
181178	1	stim158_inanimate_furniture_table_2.png	158	inanimate	furniture	table	2	0	3	boats	2	correct	1.43962099280907
181378	1	stim028_animate_bird_duck_4.png	28	animate	bird	duck	4	0	3	boats	2	correct	1.43962099280907
181578	1	stim177_inanimate_plants_tulip_1.png	177	inanimate	plants	tulip	1	0	3	boats	2	correct	1.43962099280907
181778	1	stim072_animate_insect_butterfly_4.png	72	animate	insect	butterfly	4	0	3	boats	2	correct	1.43962099280907
181978	1	stim137_inanimate_fruits_strawberry_1.png	137	inanimate	fruits	strawberry	1	0	3	boats	2	correct	1.43962099280907
182178	1	stim193_inanimate_tools_scissors_1.png	193	inanimate	tools	scissors	1	0	3	boats	2	correct	1.43962099280907
182378	1	stim097_animate_mammal_rhino_1.png	97	animate	mammal	rhino	1	0	3	boats	2	correct	1.43962099280907
182578	1	stim088_animate_mammal_giraffe_4.png	88	animate	mammal	giraffe	4	0	3	boats	2	correct	1.43962099280907
182778	1	stim087_animate_mammal_giraffe_3.png	87	animate	mammal	giraffe	3	0	3	boats	2	correct	1.43962099280907
182978	1	stim004_animate_aquatic_crab_4.png	4	animate	aquatic	crab	4	0	3	boats	2	correct	1.43962099280907
183178	1	stim060_animate_human_sports_4.png	60	animate	human	sports	4	0	3	boats	2	correct	1.43962099280907
183378	1	stim125_inanimate_fruits_banana_1.png	125	inanimate	fruits	banana	1	0	3	boats	2	correct	1.43962099280907
183578	1	stim010_animate_aquatic_seahorse_2.png	10	animate	aquatic	seahorse	2	0	3	boats	2	correct	1.43962099280907
183778	1	stim157_inanimate_furniture_table_1.png	157	inanimate	furniture	table	1	0	3	boats	2	correct	1.43962099280907
183978	1	stim074_animate_insect_dragonfly_2.png	74	animate	insect	dragonfly	2	0	3	boats	2	correct	1.43962099280907
184178	1	stim112_inanimate_clothing_jeans_4.png	112	inanimate	clothing	jeans	4	0	3	boats	2	correct	1.43962099280907
184378	1	stim068_animate_insect_bug_4.png	68	animate	insect	bug	4	0	3	boats	2	correct	1.43962099280907
184578	1	stim159_inanimate_furniture_table_3.png	159	inanimate	furniture	table	3	0	3	boats	2	correct	1.43962099280907
184778	1	stim194_inanimate_tools_scissors_2.png	194	inanimate	tools	scissors	2	0	3	boats	2	correct	1.43962099280907
184978	1	stim050_animate_human_clown_2.png	50	animate	human	clown	2	0	3	boats	2	correct	1.43962099280907
185178	1	stim129_inanimate_fruits_grape_1.png	129	inanimate	fruits	grape	1	0	3	boats	2	correct	1.43962099280907
185378	1	stim029_animate_bird_parrot_1.png	29	animate	bird	parrot	1	0	3	boats	2	correct	1.43962099280907
185578	1	stim106_inanimate_clothing_hat_2.png	106	inanimate	clothing	hat	2	0	3	boats	2	correct	1.43962099280907
185778	1	stim083_animate_mammal_cow_3.png	83	animate	mammal	cow	3	0	3	boats	2	correct	1.43962099280907
185978	1	stim046_animate_human_child_2.png	46	animate	human	child	2	0	3	boats	2	correct	1.43962099280907
186178	1	stim052_animate_human_clown_4.png	52	animate	human	clown	4	0	3	boats	2	correct	1.43962099280907
186378	1	stim079_animate_insect_grasshopper_3.png	79	animate	insect	grasshopper	3	0	3	boats	2	correct	1.43962099280907
186578	1	stim192_inanimate_tools_pan_4.png	192	inanimate	tools	pan	4	0	3	boats	2	correct	1.43962099280907
186778	1	stim167_inanimate_plants_cactus_3.png	167	inanimate	plants	cactus	3	0	3	boats	2	correct	1.43962099280907
186978	1	stim115_inanimate_clothing_shirt_3.png	115	inanimate	clothing	shirt	3	0	3	boats	2	correct	1.43962099280907
187178	1	stim113_inanimate_clothing_shirt_1.png	113	inanimate	clothing	shirt	1	0	3	boats	2	correct	1.43962099280907
187378	1	stim009_animate_aquatic_seahorse_1.png	9	animate	aquatic	seahorse	1	0	3	boats	2	correct	1.43962099280907
187578	1	stim075_animate_insect_dragonfly_3.png	75	animate	insect	dragonfly	3	0	3	boats	2	correct	1.43962099280907
187778	1	stim093_animate_mammal_monkey_1.png	93	animate	mammal	monkey	1	0	3	boats	2	correct	1.43962099280907
187978	1	stim176_inanimate_plants_tree_4.png	176	inanimate	plants	tree	4	0	3	boats	2	correct	1.43962099280907
188178	1	stim117_inanimate_clothing_socks_1.png	117	inanimate	clothing	socks	1	0	3	boats	2	correct	1.43962099280907
188378	1	stim101_inanimate_clothing_gloves_1.png	101	inanimate	clothing	gloves	1	0	3	boats	2	correct	1.43962099280907
188578	1	stim169_inanimate_plants_sunflower_1.png	169	inanimate	plants	sunflower	1	0	3	boats	2	correct	1.43962099280907
188778	1	stim120_inanimate_clothing_socks_4.png	120	inanimate	clothing	socks	4	0	3	boats	2	correct	1.43962099280907
188978	1	stim020_animate_aquatic_shrimp_4.png	20	animate	aquatic	shrimp	4	0	3	boats	2	correct	1.43962099280907
189178	1	stim134_inanimate_fruits_pineapple_2.png	134	inanimate	fruits	pineapple	2	0	3	boats	2	correct	1.43962099280907
189378	1	stim107_inanimate_clothing_hat_3.png	107	inanimate	clothing	hat	3	0	3	boats	2	correct	1.43962099280907
189578	1	stim119_inanimate_clothing_socks_3.png	119	inanimate	clothing	socks	3	0	3	boats	2	correct	1.43962099280907
189778	1	stim188_inanimate_tools_hammer_4.png	188	inanimate	tools	hammer	4	0	3	boats	2	correct	1.43962099280907
189978	1	stim003_animate_aquatic_crab_3.png	3	animate	aquatic	crab	3	0	3	boats	2	correct	1.43962099280907
190178	1	stim185_inanimate_tools_hammer_1.png	185	inanimate	tools	hammer	1	0	3	boats	2	correct	1.43962099280907
190378	1	stim089_animate_mammal_kangaroo_1.png	89	animate	mammal	kangaroo	1	0	3	boats	2	correct	1.43962099280907
190578	1	stim039_animate_bird_penguin_3.png	39	animate	bird	penguin	3	0	3	boats	2	correct	1.43962099280907
190778	1	stim040_animate_bird_penguin_4.png	40	animate	bird	penguin	4	0	3	boats	2	correct	1.43962099280907
190978	1	stim058_animate_human_sports_2.png	58	animate	human	sports	2	0	3	boats	2	correct	1.43962099280907
191178	1	stim005_animate_aquatic_fish_1.png	5	animate	aquatic	fish	1	0	3	boats	2	correct	1.43962099280907
191378	1	stim077_animate_insect_grasshopper_1.png	77	animate	insect	grasshopper	1	0	3	boats	2	correct	1.43962099280907
191578	1	stim151_inanimate_furniture_closet_3.png	151	inanimate	furniture	closet	3	0	3	boats	2	correct	1.43962099280907
191778	1	stim076_animate_insect_dragonfly_4.png	76	animate	insect	dragonfly	4	0	3	boats	2	correct	1.43962099280907
191978	1	stim001_animate_aquatic_crab_1.png	1	animate	aquatic	crab	1	0	3	boats	2	correct	1.43962099280907
192178	1	stim184_inanimate_tools_broom_4.png	184	inanimate	tools	broom	4	0	3	boats	2	correct	1.43962099280907
192378	1	stim015_animate_aquatic_shark_3.png	15	animate	aquatic	shark	3	0	3	boats	2	correct	1.43962099280907
192578	1	stim133_inanimate_fruits_pineapple_1.png	133	inanimate	fruits	pineapple	1	0	3	boats	2	correct	1.43962099280907
192778	1	stim111_inanimate_clothing_jeans_3.png	111	inanimate	clothing	jeans	3	0	3	boats	2	correct	1.43962099280907
192978	1	stim014_animate_aquatic_shark_2.png	14	animate	aquatic	shark	2	0	3	boats	2	correct	1.43962099280907
193178	1	stim180_inanimate_plants_tulip_4.png	180	inanimate	plants	tulip	4	0	3	boats	2	correct	1.43962099280907
193378	1	stim082_animate_mammal_cow_2.png	82	animate	mammal	cow	2	0	3	boats	2	correct	1.43962099280907
193578	1	stim172_inanimate_plants_sunflower_4.png	172	inanimate	plants	sunflower	4	0	3	boats	2	correct	1.43962099280907
193778	1	stim098_animate_mammal_rhino_2.png	98	animate	mammal	rhino	2	0	3	boats	2	correct	1.43962099280907
193978	1	stim067_animate_insect_bug_3.png	67	animate	insect	bug	3	0	3	boats	2	correct	1.43962099280907
194178	1	stim116_inanimate_clothing_shirt_4.png	116	inanimate	clothing	shirt	4	0	3	boats	2	correct	1.43962099280907
194378	1	stim189_inanimate_tools_pan_1.png	189	inanimate	tools	pan	1	0	3	boats	2	correct	1.43962099280907
194578	1	stim011_animate_aquatic_seahorse_3.png	11	animate	aquatic	seahorse	3	0	3	boats	2	correct	1.43962099280907
194778	1	stim124_inanimate_fruits_apple_4.png	124	inanimate	fruits	apple	4	0	3	boats	2	correct	1.43962099280907
194978	1	stim012_animate_aquatic_seahorse_4.png	12	animate	aquatic	seahorse	4	0	3	boats	2	correct	1.43962099280907
195178	1	stim108_inanimate_clothing_hat_4.png	108	inanimate	clothing	hat	4	0	3	boats	2	correct	1.43962099280907
195378	1	stim057_animate_human_sports_1.png	57	animate	human	sports	1	0	3	boats	2	correct	1.43962099280907
195578	1	stim208_targets_object_boats_4.png	208	targets	object	boats	4	1	3	boats	2	correct	1.43962099280907
195778	1	stim100_animate_mammal_rhino_4.png	100	animate	mammal	rhino	4	0	3	boats	2	correct	1.43962099280907
195978	1	stim054_animate_human_faces_2.png	54	animate	human	faces	2	0	3	boats	2	correct	1.43962099280907
196178	1	stim150_inanimate_furniture_closet_2.png	150	inanimate	furniture	closet	2	0	3	boats	2	correct	1.43962099280907
196378	1	stim118_inanimate_clothing_socks_2.png	118	inanimate	clothing	socks	2	0	3	boats	2	correct	1.43962099280907
196578	1	stim022_animate_bird_chicken_2.png	22	animate	bird	chicken	2	0	3	boats	2	correct	1.43962099280907
196779	1	stim051_animate_human_clown_3.png	51	animate	human	clown	3	0	3	boats	2	correct	1.43962099280907
196979	1	stim048_animate_human_child_4.png	48	animate	human	child	4	0	3	boats	2	correct	1.43962099280907
197178	1	stim032_animate_bird_parrot_4.png	32	animate	bird	parrot	4	0	3	boats	2	correct	1.43962099280907
197379	1	stim199_inanimate_tools_wrench_3.png	199	inanimate	tools	wrench	3	0	3	boats	2	correct	1.43962099280907
197579	1	stim195_inanimate_tools_scissors_3.png	195	inanimate	tools	scissors	3	0	3	boats	2	correct	1.43962099280907
197779	1	stim102_inanimate_clothing_gloves_2.png	102	inanimate	clothing	gloves	2	0	3	boats	2	correct	1.43962099280907
197979	1	stim016_animate_aquatic_shark_4.png	16	animate	aquatic	shark	4	0	3	boats	2	correct	1.43962099280907
198179	1	stim143_inanimate_furniture_bed_3.png	143	inanimate	furniture	bed	3	0	3	boats	2	correct	1.43962099280907
198379	1	stim163_inanimate_plants_bush_3.png	163	inanimate	plants	bush	3	0	3	boats	2	correct	1.43962099280907
198579	1	stim090_animate_mammal_kangaroo_2.png	90	animate	mammal	kangaroo	2	0	3	boats	2	correct	1.43962099280907
198779	1	stim155_inanimate_furniture_sofa_3.png	155	inanimate	furniture	sofa	3	0	3	boats	2	correct	1.43962099280907
198979	1	stim181_inanimate_tools_broom_1.png	181	inanimate	tools	broom	1	0	3	boats	2	correct	1.43962099280907
199179	1	stim056_animate_human_faces_4.png	56	animate	human	faces	4	0	3	boats	2	correct	1.43962099280907
199379	1	stim147_inanimate_furniture_chair_3.png	147	inanimate	furniture	chair	3	0	3	boats	2	correct	1.43962099280907
199579	1	stim008_animate_aquatic_fish_4.png	8	animate	aquatic	fish	4	0	3	boats	2	correct	1.43962099280907
199779	1	stim024_animate_bird_chicken_4.png	24	animate	bird	chicken	4	0	3	boats	2	correct	1.43962099280907
199979	1	stim031_animate_bird_parrot_3.png	31	animate	bird	parrot	3	0	3	boats	2	correct	1.43962099280907
200179	1	stim146_inanimate_furniture_chair_2.png	146	inanimate	furniture	chair	2	0	3	boats	2	correct	1.43962099280907
200379	1	stim161_inanimate_plants_bush_1.png	161	inanimate	plants	bush	1	0	3	boats	2	correct	1.43962099280907
200579	1	stim059_animate_human_sports_3.png	59	animate	human	sports	3	0	3	boats	2	correct	1.43962099280907
200779	1	stim002_animate_aquatic_crab_2.png	2	animate	aquatic	crab	2	0	3	boats	2	correct	1.43962099280907
200979	1	stim110_inanimate_clothing_jeans_2.png	110	inanimate	clothing	jeans	2	0	3	boats	2	correct	1.43962099280907
201179	1	stim190_inanimate_tools_pan_2.png	190	inanimate	tools	pan	2	0	3	boats	2	correct	1.43962099280907
201379	1	stim138_inanimate_fruits_strawberry_2.png	138	inanimate	fruits	strawberry	2	0	3	boats	2	correct	1.43962099280907
201579	1	stim030_animate_bird_parrot_2.png	30	animate	bird	parrot	2	0	3	boats	2	correct	1.43962099280907
201779	1	stim006_animate_aquatic_fish_2.png	6	animate	aquatic	fish	2	0	3	boats	2	correct	1.43962099280907
201979	1	stim135_inanimate_fruits_pineapple_3.png	135	inanimate	fruits	pineapple	3	0	3	boats	2	correct	1.43962099280907
202179	1	stim007_animate_aquatic_fish_3.png	7	animate	aquatic	fish	3	0	3	boats	2	correct	1.43962099280907
202379	1	stim197_inanimate_tools_wrench_1.png	197	inanimate	tools	wrench	1	0	3	boats	2	correct	1.43962099280907
202579	1	stim105_inanimate_clothing_hat_1.png	105	inanimate	clothing	hat	1	0	3	boats	2	correct	1.43962099280907
202779	1	stim026_animate_bird_duck_2.png	26	animate	bird	duck	2	0	3	boats	2	correct	1.43962099280907
202979	1	stim114_inanimate_clothing_shirt_2.png	114	inanimate	clothing	shirt	2	0	3	boats	2	correct	1.43962099280907
203179	1	stim198_inanimate_tools_wrench_2.png	198	inanimate	tools	wrench	2	0	3	boats	2	correct	1.43962099280907
203379	1	stim047_animate_human_child_3.png	47	animate	human	child	3	0	3	boats	2	correct	1.43962099280907
203579	1	stim127_inanimate_fruits_banana_3.png	127	inanimate	fruits	banana	3	0	3	boats	2	correct	1.43962099280907
203779	1	stim186_inanimate_tools_hammer_2.png	186	inanimate	tools	hammer	2	0	3	boats	2	correct	1.43962099280907
203979	1	stim033_animate_bird_peacock_1.png	33	animate	bird	peacock	1	0	3	boats	2	correct	1.43962099280907
204179	1	stim044_animate_human_baby_4.png	44	animate	human	baby	4	0	3	boats	2	correct	1.43962099280907
204379	1	stim109_inanimate_clothing_jeans_1.png	109	inanimate	clothing	jeans	1	0	3	boats	2	correct	1.43962099280907
204579	1	stim023_animate_bird_chicken_3.png	23	animate	bird	chicken	3	0	3	boats	2	correct	1.43962099280907
204779	1	stim035_animate_bird_peacock_3.png	35	animate	bird	peacock	3	0	3	boats	2	correct	1.43962099280907
204979	1	stim064_animate_insect_ant_4.png	64	animate	insect	ant	4	0	3	boats	2	correct	1.43962099280907
205179	1	stim132_inanimate_fruits_grape_4.png	132	inanimate	fruits	grape	4	0	3	boats	2	correct	1.43962099280907
205379	1	stim203_targets_object_boats_3.png	203	targets	object	boats	3	1	3	boats	2	correct	1.43962099280907
205579	1	stim081_animate_mammal_cow_1.png	81	animate	mammal	cow	1	0	3	boats	2	correct	1.43962099280907
205779	1	stim178_inanimate_plants_tulip_2.png	178	inanimate	plants	tulip	2	0	3	boats	2	correct	1.43962099280907
205979	1	stim055_animate_human_faces_3.png	55	animate	human	faces	3	0	3	boats	2	correct	1.43962099280907
206179	1	stim131_inanimate_fruits_grape_3.png	131	inanimate	fruits	grape	3	0	3	boats	2	correct	1.43962099280907
206379	1	stim019_animate_aquatic_shrimp_3.png	19	animate	aquatic	shrimp	3	0	3	boats	2	correct	1.43962099280907
206579	1	stim103_inanimate_clothing_gloves_3.png	103	inanimate	clothing	gloves	3	0	3	boats	2	correct	1.43962099280907
206779	1	stim063_animate_insect_ant_3.png	63	animate	insect	ant	3	0	3	boats	2	correct	1.43962099280907
206979	1	stim021_animate_bird_chicken_1.png	21	animate	bird	chicken	1	0	3	boats	2	correct	1.43962099280907
207179	1	stim042_animate_human_baby_2.png	42	animate	human	baby	2	0	3	boats	2	correct	1.43962099280907
207379	1	stim025_animate_bird_duck_1.png	25	animate	bird	duck	1	0	3	boats	2	correct	1.43962099280907
207579	1	stim145_inanimate_furniture_chair_1.png	145	inanimate	furniture	chair	1	0	3	boats	2	correct	1.43962099280907
207779	1	stim092_animate_mammal_kangaroo_4.png	92	animate	mammal	kangaroo	4	0	3	boats	2	correct	1.43962099280907
207979	1	stim128_inanimate_fruits_banana_4.png	128	inanimate	fruits	banana	4	0	3	boats	2	correct	1.43962099280907
208179	1	stim078_animate_insect_grasshopper_2.png	78	animate	insect	grasshopper	2	0	3	boats	2	correct	1.43962099280907
208379	1	stim095_animate_mammal_monkey_3.png	95	animate	mammal	monkey	3	0	3	boats	2	correct	1.43962099280907
208579	1	stim069_animate_insect_butterfly_1.png	69	animate	insect	butterfly	1	0	3	boats	2	correct	1.43962099280907
208779	1	stim053_animate_human_faces_1.png	53	animate	human	faces	1	0	3	boats	2	correct	1.43962099280907
208979	1	stim073_animate_insect_dragonfly_1.png	73	animate	insect	dragonfly	1	0	3	boats	2	correct	1.43962099280907
209179	1	stim017_animate_aquatic_shrimp_1.png	17	animate	aquatic	shrimp	1	0	3	boats	2	correct	1.43962099280907
209379	1	stim038_animate_bird_penguin_2.png	38	animate	bird	penguin	2	0	3	boats	2	correct	1.43962099280907
209579	1	stim018_animate_aquatic_shrimp_2.png	18	animate	aquatic	shrimp	2	0	3	boats	2	correct	1.43962099280907
209779	1	stim144_inanimate_furniture_bed_4.png	144	inanimate	furniture	bed	4	0	3	boats	2	correct	1.43962099280907
209979	1	stim165_inanimate_plants_cactus_1.png	165	inanimate	plants	cactus	1	0	3	boats	2	correct	1.43962099280907
210179	1	stim166_inanimate_plants_cactus_2.png	166	inanimate	plants	cactus	2	0	3	boats	2	correct	1.43962099280907
210379	1	stim096_animate_mammal_monkey_4.png	96	animate	mammal	monkey	4	0	3	boats	2	correct	1.43962099280907
210579	1	stim154_inanimate_furniture_sofa_2.png	154	inanimate	furniture	sofa	2	0	3	boats	2	correct	1.43962099280907
210779	1	stim173_inanimate_plants_tree_1.png	173	inanimate	plants	tree	1	0	3	boats	2	correct	1.43962099280907
210979	1	stim123_inanimate_fruits_apple_3.png	123	inanimate	fruits	apple	3	0	3	boats	2	correct	1.43962099280907
211179	1	stim049_animate_human_clown_1.png	49	animate	human	clown	1	0	3	boats	2	correct	1.43962099280907
211379	1	stim043_animate_human_baby_3.png	43	animate	human	baby	3	0	3	boats	2	correct	1.43962099280907
211579	1	stim162_inanimate_plants_bush_2.png	162	inanimate	plants	bush	2	0	3	boats	2	correct	1.43962099280907
211779	1	stim164_inanimate_plants_bush_4.png	164	inanimate	plants	bush	4	0	3	boats	2	correct	1.43962099280907
211979	1	stim140_inanimate_fruits_strawberry_4.png	140	inanimate	fruits	strawberry	4	0	3	boats	2	correct	1.43962099280907
212179	1	stim121_inanimate_fruits_apple_1.png	121	inanimate	fruits	apple	1	0	3	boats	2	correct	1.43962099280907
212379	1	stim153_inanimate_furniture_sofa_1.png	153	inanimate	furniture	sofa	1	0	3	boats	2	correct	1.43962099280907
212579	1	stim104_inanimate_clothing_gloves_4.png	104	inanimate	clothing	gloves	4	0	3	boats	2	correct	1.43962099280907
212779	1	stim130_inanimate_fruits_grape_2.png	130	inanimate	fruits	grape	2	0	3	boats	2	correct	1.43962099280907
212979	1	stim174_inanimate_plants_tree_2.png	174	inanimate	plants	tree	2	0	3	boats	2	correct	1.43962099280907
213179	1	stim084_animate_mammal_cow_4.png	84	animate	mammal	cow	4	0	3	boats	2	correct	1.43962099280907
213379	1	stim148_inanimate_furniture_chair_4.png	148	inanimate	furniture	chair	4	0	3	boats	2	correct	1.43962099280907
213579	1	stim099_animate_mammal_rhino_3.png	99	animate	mammal	rhino	3	0	3	boats	2	correct	1.43962099280907
213779	1	stim094_animate_mammal_monkey_2.png	94	animate	mammal	monkey	2	0	3	boats	2	correct	1.43962099280907
213979	1	stim080_animate_insect_grasshopper_4.png	80	animate	insect	grasshopper	4	0	3	boats	2	correct	1.43962099280907
214179	1	stim187_inanimate_tools_hammer_3.png	187	inanimate	tools	hammer	3	0	3	boats	2	correct	1.43962099280907
214379	1	stim182_inanimate_tools_broom_2.png	182	inanimate	tools	broom	2	0	3	boats	2	correct	1.43962099280907
214579	1	stim171_inanimate_plants_sunflower_3.png	171	inanimate	plants	sunflower	3	0	3	boats	2	correct	1.43962099280907
214779	1	stim142_inanimate_furniture_bed_2.png	142	inanimate	furniture	bed	2	0	3	boats	2	correct	1.43962099280907
214979	1	stim037_animate_bird_penguin_1.png	37	animate	bird	penguin	1	0	3	boats	2	correct	1.43962099280907
215179	1	stim168_inanimate_plants_cactus_4.png	168	inanimate	plants	cactus	4	0	3	boats	2	correct	1.43962099280907
215379	1	stim200_inanimate_tools_wrench_4.png	200	inanimate	tools	wrench	4	0	3	boats	2	correct	1.43962099280907
215579	1	stim122_inanimate_fruits_apple_2.png	122	inanimate	fruits	apple	2	0	3	boats	2	correct	1.43962099280907
215779	1	stim036_animate_bird_peacock_4.png	36	animate	bird	peacock	4	0	3	boats	2	correct	1.43962099280907
215979	1	stim160_inanimate_furniture_table_4.png	160	inanimate	furniture	table	4	0	3	boats	2	correct	1.43962099280907
216179	1	stim175_inanimate_plants_tree_3.png	175	inanimate	plants	tree	3	0	3	boats	2	correct	1.43962099280907
216379	1	stim027_animate_bird_duck_3.png	27	animate	bird	duck	3	0	3	boats	2	correct	1.43962099280907
216579	1	stim013_animate_aquatic_shark_1.png	13	animate	aquatic	shark	1	0	3	boats	2	correct	1.43962099280907
216779	1	stim126_inanimate_fruits_banana_2.png	126	inanimate	fruits	banana	2	0	3	boats	2	correct	1.43962099280907
216979	1	stim136_inanimate_fruits_pineapple_4.png	136	inanimate	fruits	pineapple	4	0	3	boats	2	correct	1.43962099280907
217179	1	stim179_inanimate_plants_tulip_3.png	179	inanimate	plants	tulip	3	0	3	boats	2	correct	1.43962099280907
217379	1	stim045_animate_human_child_1.png	45	animate	human	child	1	0	3	boats	2	correct	1.43962099280907
217579	1	stim086_animate_mammal_giraffe_2.png	86	animate	mammal	giraffe	2	0	3	boats	2	correct	1.43962099280907
217779	1	stim066_animate_insect_bug_2.png	66	animate	insect	bug	2	0	3	boats	2	correct	1.43962099280907
217979	1	stim156_inanimate_furniture_sofa_4.png	156	inanimate	furniture	sofa	4	0	3	boats	2	correct	1.43962099280907
218179	1	stim070_animate_insect_butterfly_2.png	70	animate	insect	butterfly	2	0	3	boats	2	correct	1.43962099280907
218379	1	stim061_animate_insect_ant_1.png	61	animate	insect	ant	1	0	3	boats	2	correct	1.43962099280907
218579	1	stim034_animate_bird_peacock_2.png	34	animate	bird	peacock	2	0	3	boats	2	correct	1.43962099280907
218779	1	stim085_animate_mammal_giraffe_1.png	85	animate	mammal	giraffe	1	0	3	boats	2	correct	1.43962099280907
218979	1	stim191_inanimate_tools_pan_3.png	191	inanimate	tools	pan	3	0	3	boats	2	correct	1.43962099280907
219179	1	stim170_inanimate_plants_sunflower_2.png	170	inanimate	plants	sunflower	2	0	3	boats	2	correct	1.43962099280907
219379	1	stim071_animate_insect_butterfly_3.png	71	animate	insect	butterfly	3	0	3	boats	2	correct	1.43962099280907
219579	1	stim149_inanimate_furniture_closet_1.png	149	inanimate	furniture	closet	1	0	3	boats	2	correct	1.43962099280907
219779	1	stim196_inanimate_tools_scissors_4.png	196	inanimate	tools	scissors	4	0	3	boats	2	correct	1.43962099280907
219979	1	stim091_animate_mammal_kangaroo_3.png	91	animate	mammal	kangaroo	3	0	3	boats	2	correct	1.43962099280907
220179	1	stim062_animate_insect_ant_2.png	62	animate	insect	ant	2	0	3	boats	2	correct	1.43962099280907
220379	1	stim041_animate_human_baby_1.png	41	animate	human	baby	1	0	3	boats	2	correct	1.43962099280907
220579	1	stim152_inanimate_furniture_closet_4.png	152	inanimate	furniture	closet	4	0	3	boats	2	correct	1.43962099280907
220779	1	stim139_inanimate_fruits_strawberry_3.png	139	inanimate	fruits	strawberry	3	0	3	boats	2	correct	1.43962099280907
220979	1	stim183_inanimate_tools_broom_3.png	183	inanimate	tools	broom	3	0	3	boats	2	correct	1.43962099280907
236796	1	stim123_inanimate_fruits_apple_3.png	123	inanimate	fruits	apple	3	0	4	stars	3	correct	1.55485671543283
236996	1	stim100_animate_mammal_rhino_4.png	100	animate	mammal	rhino	4	0	4	stars	3	correct	1.55485671543283
237196	1	stim167_inanimate_plants_cactus_3.png	167	inanimate	plants	cactus	3	0	4	stars	3	correct	1.55485671543283
237396	1	stim164_inanimate_plants_bush_4.png	164	inanimate	plants	bush	4	0	4	stars	3	correct	1.55485671543283
237596	1	stim007_animate_aquatic_fish_3.png	7	animate	aquatic	fish	3	0	4	stars	3	correct	1.55485671543283
237796	1	stim104_inanimate_clothing_gloves_4.png	104	inanimate	clothing	gloves	4	0	4	stars	3	correct	1.55485671543283
237996	1	stim185_inanimate_tools_hammer_1.png	185	inanimate	tools	hammer	1	0	4	stars	3	correct	1.55485671543283
238196	1	stim134_inanimate_fruits_pineapple_2.png	134	inanimate	fruits	pineapple	2	0	4	stars	3	correct	1.55485671543283
238396	1	stim021_animate_bird_chicken_1.png	21	animate	bird	chicken	1	0	4	stars	3	correct	1.55485671543283
238596	1	stim030_animate_bird_parrot_2.png	30	animate	bird	parrot	2	0	4	stars	3	correct	1.55485671543283
238796	1	stim027_animate_bird_duck_3.png	27	animate	bird	duck	3	0	4	stars	3	correct	1.55485671543283
238996	1	stim075_animate_insect_dragonfly_3.png	75	animate	insect	dragonfly	3	0	4	stars	3	correct	1.55485671543283
239196	1	stim120_inanimate_clothing_socks_4.png	120	inanimate	clothing	socks	4	0	4	stars	3	correct	1.55485671543283
239396	1	stim168_inanimate_plants_cactus_4.png	168	inanimate	plants	cactus	4	0	4	stars	3	correct	1.55485671543283
239596	1	stim005_animate_aquatic_fish_1.png	5	animate	aquatic	fish	1	0	4	stars	3	correct	1.55485671543283
239796	1	stim150_inanimate_furniture_closet_2.png	150	inanimate	furniture	closet	2	0	4	stars	3	correct	1.55485671543283
239996	1	stim032_animate_bird_parrot_4.png	32	animate	bird	parrot	4	0	4	stars	3	correct	1.55485671543283
240196	1	stim170_inanimate_plants_sunflower_2.png	170	inanimate	plants	sunflower	2	0	4	stars	3	correct	1.55485671543283
240396	1	stim117_inanimate_clothing_socks_1.png	117	inanimate	clothing	socks	1	0	4	stars	3	correct	1.55485671543283
240596	1	stim198_inanimate_tools_wrench_2.png	198	inanimate	tools	wrench	2	0	4	stars	3	correct	1.55485671543283
240796	1	stim149_inanimate_furniture_closet_1.png	149	inanimate	furniture	closet	1	0	4	stars	3	correct	1.55485671543283
240996	1	stim003_animate_aquatic_crab_3.png	3	animate	aquatic	crab	3	0	4	stars	3	correct	1.55485671543283
241196	1	stim083_animate_mammal_cow_3.png	83	animate	mammal	cow	3	0	4	stars	3	correct	1.55485671543283
241396	1	stim110_inanimate_clothing_jeans_2.png	110	inanimate	clothing	jeans	2	0	4	stars	3	correct	1.55485671543283
241596	1	stim025_animate_bird_duck_1.png	25	animate	bird	duck	1	0	4	stars	3	correct	1.55485671543283
241796	1	stim029_animate_bird_parrot_1.png	29	animate	bird	parrot	1	0	4	stars	3	correct	1.55485671543283
241996	1	stim176_inanimate_plants_tree_4.png	176	inanimate	plants	tree	4	0	4	stars	3	correct	1.55485671543283
242196	1	stim113_inanimate_clothing_shirt_1.png	113	inanimate	clothing	shirt	1	0	4	stars	3	correct	1.55485671543283
242396	1	stim088_animate_mammal_giraffe_4.png	88	animate	mammal	giraffe	4	0	4	stars	3	correct	1.55485671543283
242596	1	stim142_inanimate_furniture_bed_2.png	142	inanimate	furniture	bed	2	0	4	stars	3	correct	1.55485671543283
242796	1	stim175_inanimate_plants_tree_3.png	175	inanimate	plants	tree	3	0	4	stars	3	correct	1.55485671543283
242996	1	stim040_animate_bird_penguin_4.png	40	animate	bird	penguin	4	0	4	stars	3	correct	1.55485671543283
243196	1	stim048_animate_human_child_4.png	48	animate	human	child	4	0	4	stars	3	correct	1.55485671543283
243396	1	stim055_animate_human_faces_3.png	55	animate	human	faces	3	0	4	stars	3	correct	1.55485671543283
243596	1	stim013_animate_aquatic_shark_1.png	13	animate	aquatic	shark	1	0	4	stars	3	correct	1.55485671543283
243796	1	stim144_inanimate_furniture_bed_4.png	144	inanimate	furniture	bed	4	0	4	stars	3	correct	1.55485671543283
243996	1	stim200_inanimate_tools_wrench_4.png	200	inanimate	tools	wrench	4	0	4	stars	3	correct	1.55485671543283
244196	1	stim018_animate_aquatic_shrimp_2.png	18	animate	aquatic	shrimp	2	0	4	stars	3	correct	1.55485671543283
244396	1	stim074_animate_insect_dragonfly_2.png	74	animate	insect	dragonfly	2	0	4	stars	3	correct	1.55485671543283
244596	1	stim020_animate_aquatic_shrimp_4.png	20	animate	aquatic	shrimp	4	0	4	stars	3	correct	1.55485671543283
244796	1	stim090_animate_mammal_kangaroo_2.png	90	animate	mammal	kangaroo	2	0	4	stars	3	correct	1.55485671543283
244996	1	stim072_animate_insect_butterfly_4.png	72	animate	insect	butterfly	4	0	4	stars	3	correct	1.55485671543283
245196	1	stim085_animate_mammal_giraffe_1.png	85	animate	mammal	giraffe	1	0	4	stars	3	correct	1.55485671543283
245396	1	stim191_inanimate_tools_pan_3.png	191	inanimate	tools	pan	3	0	4	stars	3	correct	1.55485671543283
245596	1	stim138_inanimate_fruits_strawberry_2.png	138	inanimate	fruits	strawberry	2	0	4	stars	3	correct	1.55485671543283
245796	1	stim070_animate_insect_butterfly_2.png	70	animate	insect	butterfly	2	0	4	stars	3	correct	1.55485671543283
245996	1	stim049_animate_human_clown_1.png	49	animate	human	clown	1	0	4	stars	3	correct	1.55485671543283
246196	1	stim023_animate_bird_chicken_3.png	23	animate	bird	chicken	3	0	4	stars	3	correct	1.55485671543283
246396	1	stim112_inanimate_clothing_jeans_4.png	112	inanimate	clothing	jeans	4	0	4	stars	3	correct	1.55485671543283
246596	1	stim148_inanimate_furniture_chair_4.png	148	inanimate	furniture	chair	4	0	4	stars	3	correct	1.55485671543283
246796	1	stim002_animate_aquatic_crab_2.png	2	animate	aquatic	crab	2	0	4	stars	3	correct	1.55485671543283
246996	1	stim068_animate_insect_bug_4.png	68	animate	insect	bug	4	0	4	stars	3	correct	1.55485671543283
247196	1	stim042_animate_human_baby_2.png	42	animate	human	baby	2	0	4	stars	3	correct	1.55485671543283
247396	1	stim033_animate_bird_peacock_1.png	33	animate	bird	peacock	1	0	4	stars	3	correct	1.55485671543283
247596	1	stim172_inanimate_plants_sunflower_4.png	172	inanimate	plants	sunflower	4	0	4	stars	3	correct	1.55485671543283
247796	1	stim062_animate_insect_ant_2.png	62	animate	insect	ant	2	0	4	stars	3	correct	1.55485671543283
247996	1	stim153_inanimate_furniture_sofa_1.png	153	inanimate	furniture	sofa	1	0	4	stars	3	correct	1.55485671543283
248196	1	stim016_animate_aquatic_shark_4.png	16	animate	aquatic	shark	4	0	4	stars	3	correct	1.55485671543283
248396	1	stim019_animate_aquatic_shrimp_3.png	19	animate	aquatic	shrimp	3	0	4	stars	3	correct	1.55485671543283
248596	1	stim190_inanimate_tools_pan_2.png	190	inanimate	tools	pan	2	0	4	stars	3	correct	1.55485671543283
248796	1	stim109_inanimate_clothing_jeans_1.png	109	inanimate	clothing	jeans	1	0	4	stars	3	correct	1.55485671543283
248996	1	stim115_inanimate_clothing_shirt_3.png	115	inanimate	clothing	shirt	3	0	4	stars	3	correct	1.55485671543283
249196	1	stim046_animate_human_child_2.png	46	animate	human	child	2	0	4	stars	3	correct	1.55485671543283
249396	1	stim106_inanimate_clothing_hat_2.png	106	inanimate	clothing	hat	2	0	4	stars	3	correct	1.55485671543283
249596	1	stim162_inanimate_plants_bush_2.png	162	inanimate	plants	bush	2	0	4	stars	3	correct	1.55485671543283
249796	1	stim118_inanimate_clothing_socks_2.png	118	inanimate	clothing	socks	2	0	4	stars	3	correct	1.55485671543283
249996	1	stim009_animate_aquatic_seahorse_1.png	9	animate	aquatic	seahorse	1	0	4	stars	3	correct	1.55485671543283
250196	1	stim213_targets_shapes_star_1.png	213	targets	shapes	star	1	1	4	stars	3	correct	1.55485671543283
250396	1	stim178_inanimate_plants_tulip_2.png	178	inanimate	plants	tulip	2	0	4	stars	3	correct	1.55485671543283
250596	1	stim145_inanimate_furniture_chair_1.png	145	inanimate	furniture	chair	1	0	4	stars	3	correct	1.55485671543283
250796	1	stim195_inanimate_tools_scissors_3.png	195	inanimate	tools	scissors	3	0	4	stars	3	correct	1.55485671543283
250996	1	stim058_animate_human_sports_2.png	58	animate	human	sports	2	0	4	stars	3	correct	1.55485671543283
251196	1	stim193_inanimate_tools_scissors_1.png	193	inanimate	tools	scissors	1	0	4	stars	3	correct	1.55485671543283
251396	1	stim108_inanimate_clothing_hat_4.png	108	inanimate	clothing	hat	4	0	4	stars	3	correct	1.55485671543283
251596	1	stim182_inanimate_tools_broom_2.png	182	inanimate	tools	broom	2	0	4	stars	3	correct	1.55485671543283
251796	1	stim179_inanimate_plants_tulip_3.png	179	inanimate	plants	tulip	3	0	4	stars	3	correct	1.55485671543283
251996	1	stim143_inanimate_furniture_bed_3.png	143	inanimate	furniture	bed	3	0	4	stars	3	correct	1.55485671543283
252196	1	stim114_inanimate_clothing_shirt_2.png	114	inanimate	clothing	shirt	2	0	4	stars	3	correct	1.55485671543283
252396	1	stim066_animate_insect_bug_2.png	66	animate	insect	bug	2	0	4	stars	3	correct	1.55485671543283
252596	1	stim059_animate_human_sports_3.png	59	animate	human	sports	3	0	4	stars	3	correct	1.55485671543283
252796	1	stim116_inanimate_clothing_shirt_4.png	116	inanimate	clothing	shirt	4	0	4	stars	3	correct	1.55485671543283
252996	1	stim130_inanimate_fruits_grape_2.png	130	inanimate	fruits	grape	2	0	4	stars	3	correct	1.55485671543283
253196	1	stim140_inanimate_fruits_strawberry_4.png	140	inanimate	fruits	strawberry	4	0	4	stars	3	correct	1.55485671543283
253396	1	stim051_animate_human_clown_3.png	51	animate	human	clown	3	0	4	stars	3	correct	1.55485671543283
253596	1	stim161_inanimate_plants_bush_1.png	161	inanimate	plants	bush	1	0	4	stars	3	correct	1.55485671543283
253796	1	stim011_animate_aquatic_seahorse_3.png	11	animate	aquatic	seahorse	3	0	4	stars	3	correct	1.55485671543283
253996	1	stim096_animate_mammal_monkey_4.png	96	animate	mammal	monkey	4	0	4	stars	3	correct	1.55485671543283
254196	1	stim147_inanimate_furniture_chair_3.png	147	inanimate	furniture	chair	3	0	4	stars	3	correct	1.55485671543283
254396	1	stim052_animate_human_clown_4.png	52	animate	human	clown	4	0	4	stars	3	correct	1.55485671543283
254596	1	stim131_inanimate_fruits_grape_3.png	131	inanimate	fruits	grape	3	0	4	stars	3	correct	1.55485671543283
254796	1	stim035_animate_bird_peacock_3.png	35	animate	bird	peacock	3	0	4	stars	3	correct	1.55485671543283
254996	1	stim194_inanimate_tools_scissors_2.png	194	inanimate	tools	scissors	2	0	4	stars	3	correct	1.55485671543283
255196	1	stim092_animate_mammal_kangaroo_4.png	92	animate	mammal	kangaroo	4	0	4	stars	3	correct	1.55485671543283
255396	1	stim128_inanimate_fruits_banana_4.png	128	inanimate	fruits	banana	4	0	4	stars	3	correct	1.55485671543283
255596	1	stim165_inanimate_plants_cactus_1.png	165	inanimate	plants	cactus	1	0	4	stars	3	correct	1.55485671543283
255797	1	stim135_inanimate_fruits_pineapple_3.png	135	inanimate	fruits	pineapple	3	0	4	stars	3	correct	1.55485671543283
255997	1	stim121_inanimate_fruits_apple_1.png	121	inanimate	fruits	apple	1	0	4	stars	3	correct	1.55485671543283
256197	1	stim012_animate_aquatic_seahorse_4.png	12	animate	aquatic	seahorse	4	0	4	stars	3	correct	1.55485671543283
256397	1	stim097_animate_mammal_rhino_1.png	97	animate	mammal	rhino	1	0	4	stars	3	correct	1.55485671543283
256597	1	stim127_inanimate_fruits_banana_3.png	127	inanimate	fruits	banana	3	0	4	stars	3	correct	1.55485671543283
256797	1	stim069_animate_insect_butterfly_1.png	69	animate	insect	butterfly	1	0	4	stars	3	correct	1.55485671543283
256997	1	stim047_animate_human_child_3.png	47	animate	human	child	3	0	4	stars	3	correct	1.55485671543283
257197	1	stim080_animate_insect_grasshopper_4.png	80	animate	insect	grasshopper	4	0	4	stars	3	correct	1.55485671543283
257397	1	stim137_inanimate_fruits_strawberry_1.png	137	inanimate	fruits	strawberry	1	0	4	stars	3	correct	1.55485671543283
257597	1	stim124_inanimate_fruits_apple_4.png	124	inanimate	fruits	apple	4	0	4	stars	3	correct	1.55485671543283
257797	1	stim155_inanimate_furniture_sofa_3.png	155	inanimate	furniture	sofa	3	0	4	stars	3	correct	1.55485671543283
257997	1	stim210_targets_shapes_star_2.png	210	targets	shapes	star	2	1	4	stars	3	correct	1.55485671543283
258197	1	stim028_animate_bird_duck_4.png	28	animate	bird	duck	4	0	4	stars	3	correct	1.55485671543283
258397	1	stim001_animate_aquatic_crab_1.png	1	animate	aquatic	crab	1	0	4	stars	3	correct	1.55485671543283
258597	1	stim063_animate_insect_ant_3.png	63	animate	insect	ant	3	0	4	stars	3	correct	1.55485671543283
258797	1	stim037_animate_bird_penguin_1.png	37	animate	bird	penguin	1	0	4	stars	3	correct	1.55485671543283
258997	1	stim163_inanimate_plants_bush_3.png	163	inanimate	plants	bush	3	0	4	stars	3	correct	1.55485671543283
259197	1	stim024_animate_bird_chicken_4.png	24	animate	bird	chicken	4	0	4	stars	3	correct	1.55485671543283
259397	1	stim181_inanimate_tools_broom_1.png	181	inanimate	tools	broom	1	0	4	stars	3	correct	1.55485671543283
259597	1	stim081_animate_mammal_cow_1.png	81	animate	mammal	cow	1	0	4	stars	3	correct	1.55485671543283
259797	1	stim189_inanimate_tools_pan_1.png	189	inanimate	tools	pan	1	0	4	stars	3	correct	1.55485671543283
259997	1	stim084_animate_mammal_cow_4.png	84	animate	mammal	cow	4	0	4	stars	3	correct	1.55485671543283
260197	1	stim076_animate_insect_dragonfly_4.png	76	animate	insect	dragonfly	4	0	4	stars	3	correct	1.55485671543283
260397	1	stim004_animate_aquatic_crab_4.png	4	animate	aquatic	crab	4	0	4	stars	3	correct	1.55485671543283
260597	1	stim022_animate_bird_chicken_2.png	22	animate	bird	chicken	2	0	4	stars	3	correct	1.55485671543283
260797	1	stim192_inanimate_tools_pan_4.png	192	inanimate	tools	pan	4	0	4	stars	3	correct	1.55485671543283
260997	1	stim136_inanimate_fruits_pineapple_4.png	136	inanimate	fruits	pineapple	4	0	4	stars	3	correct	1.55485671543283
261197	1	stim082_animate_mammal_cow_2.png	82	animate	mammal	cow	2	0	4	stars	3	correct	1.55485671543283
261397	1	stim111_inanimate_clothing_jeans_3.png	111	inanimate	clothing	jeans	3	0	4	stars	3	correct	1.55485671543283
261597	1	stim010_animate_aquatic_seahorse_2.png	10	animate	aquatic	seahorse	2	0	4	stars	3	correct	1.55485671543283
261797	1	stim160_inanimate_furniture_table_4.png	160	inanimate	furniture	table	4	0	4	stars	3	correct	1.55485671543283
261997	1	stim086_animate_mammal_giraffe_2.png	86	animate	mammal	giraffe	2	0	4	stars	3	correct	1.55485671543283
262197	1	stim151_inanimate_furniture_closet_3.png	151	inanimate	furniture	closet	3	0	4	stars	3	correct	1.55485671543283
262397	1	stim133_inanimate_fruits_pineapple_1.png	133	inanimate	fruits	pineapple	1	0	4	stars	3	correct	1.55485671543283
262597	1	stim126_inanimate_fruits_banana_2.png	126	inanimate	fruits	banana	2	0	4	stars	3	correct	1.55485671543283
262797	1	stim015_animate_aquatic_shark_3.png	15	animate	aquatic	shark	3	0	4	stars	3	correct	1.55485671543283
262997	1	stim188_inanimate_tools_hammer_4.png	188	inanimate	tools	hammer	4	0	4	stars	3	correct	1.55485671543283
263197	1	stim098_animate_mammal_rhino_2.png	98	animate	mammal	rhino	2	0	4	stars	3	correct	1.55485671543283
263397	1	stim039_animate_bird_penguin_3.png	39	animate	bird	penguin	3	0	4	stars	3	correct	1.55485671543283
263597	1	stim152_inanimate_furniture_closet_4.png	152	inanimate	furniture	closet	4	0	4	stars	3	correct	1.55485671543283
263797	1	stim173_inanimate_plants_tree_1.png	173	inanimate	plants	tree	1	0	4	stars	3	correct	1.55485671543283
263997	1	stim008_animate_aquatic_fish_4.png	8	animate	aquatic	fish	4	0	4	stars	3	correct	1.55485671543283
264197	1	stim091_animate_mammal_kangaroo_3.png	91	animate	mammal	kangaroo	3	0	4	stars	3	correct	1.55485671543283
264397	1	stim199_inanimate_tools_wrench_3.png	199	inanimate	tools	wrench	3	0	4	stars	3	correct	1.55485671543283
264597	1	stim180_inanimate_plants_tulip_4.png	180	inanimate	plants	tulip	4	0	4	stars	3	correct	1.55485671543283
264797	1	stim129_inanimate_fruits_grape_1.png	129	inanimate	fruits	grape	1	0	4	stars	3	correct	1.55485671543283
264997	1	stim060_animate_human_sports_4.png	60	animate	human	sports	4	0	4	stars	3	correct	1.55485671543283
265197	1	stim089_animate_mammal_kangaroo_1.png	89	animate	mammal	kangaroo	1	0	4	stars	3	correct	1.55485671543283
265397	1	stim122_inanimate_fruits_apple_2.png	122	inanimate	fruits	apple	2	0	4	stars	3	correct	1.55485671543283
265597	1	stim036_animate_bird_peacock_4.png	36	animate	bird	peacock	4	0	4	stars	3	correct	1.55485671543283
265797	1	stim102_inanimate_clothing_gloves_2.png	102	inanimate	clothing	gloves	2	0	4	stars	3	correct	1.55485671543283
265997	1	stim211_targets_shapes_star_3.png	211	targets	shapes	star	3	1	4	stars	3	correct	1.55485671543283
266197	1	stim093_animate_mammal_monkey_1.png	93	animate	mammal	monkey	1	0	4	stars	3	correct	1.55485671543283
266397	1	stim174_inanimate_plants_tree_2.png	174	inanimate	plants	tree	2	0	4	stars	3	correct	1.55485671543283
266597	1	stim156_inanimate_furniture_sofa_4.png	156	inanimate	furniture	sofa	4	0	4	stars	3	correct	1.55485671543283
266797	1	stim107_inanimate_clothing_hat_3.png	107	inanimate	clothing	hat	3	0	4	stars	3	correct	1.55485671543283
266997	1	stim006_animate_aquatic_fish_2.png	6	animate	aquatic	fish	2	0	4	stars	3	correct	1.55485671543283
267197	1	stim057_animate_human_sports_1.png	57	animate	human	sports	1	0	4	stars	3	correct	1.55485671543283
267397	1	stim119_inanimate_clothing_socks_3.png	119	inanimate	clothing	socks	3	0	4	stars	3	correct	1.55485671543283
267597	1	stim043_animate_human_baby_3.png	43	animate	human	baby	3	0	4	stars	3	correct	1.55485671543283
267797	1	stim071_animate_insect_butterfly_3.png	71	animate	insect	butterfly	3	0	4	stars	3	correct	1.55485671543283
267997	1	stim079_animate_insect_grasshopper_3.png	79	animate	insect	grasshopper	3	0	4	stars	3	correct	1.55485671543283
268197	1	stim041_animate_human_baby_1.png	41	animate	human	baby	1	0	4	stars	3	correct	1.55485671543283
268397	1	stim054_animate_human_faces_2.png	54	animate	human	faces	2	0	4	stars	3	correct	1.55485671543283
268597	1	stim105_inanimate_clothing_hat_1.png	105	inanimate	clothing	hat	1	0	4	stars	3	correct	1.55485671543283
268797	1	stim125_inanimate_fruits_banana_1.png	125	inanimate	fruits	banana	1	0	4	stars	3	correct	1.55485671543283
268997	1	stim141_inanimate_furniture_bed_1.png	141	inanimate	furniture	bed	1	0	4	stars	3	correct	1.55485671543283
269197	1	stim171_inanimate_plants_sunflower_3.png	171	inanimate	plants	sunflower	3	0	4	stars	3	correct	1.55485671543283
269397	1	stim139_inanimate_fruits_strawberry_3.png	139	inanimate	fruits	strawberry	3	0	4	stars	3	correct	1.55485671543283
269597	1	stim094_animate_mammal_monkey_2.png	94	animate	mammal	monkey	2	0	4	stars	3	correct	1.55485671543283
269797	1	stim026_animate_bird_duck_2.png	26	animate	bird	duck	2	0	4	stars	3	correct	1.55485671543283
269997	1	stim095_animate_mammal_monkey_3.png	95	animate	mammal	monkey	3	0	4	stars	3	correct	1.55485671543283
270197	1	stim166_inanimate_plants_cactus_2.png	166	inanimate	plants	cactus	2	0	4	stars	3	correct	1.55485671543283
270397	1	stim184_inanimate_tools_broom_4.png	184	inanimate	tools	broom	4	0	4	stars	3	correct	1.55485671543283
270597	1	stim078_animate_insect_grasshopper_2.png	78	animate	insect	grasshopper	2	0	4	stars	3	correct	1.55485671543283
270797	1	stim061_animate_insect_ant_1.png	61	animate	insect	ant	1	0	4	stars	3	correct	1.55485671543283
270997	1	stim050_animate_human_clown_2.png	50	animate	human	clown	2	0	4	stars	3	correct	1.55485671543283
271197	1	stim154_inanimate_furniture_sofa_2.png	154	inanimate	furniture	sofa	2	0	4	stars	3	correct	1.55485671543283
271397	1	stim014_animate_aquatic_shark_2.png	14	animate	aquatic	shark	2	0	4	stars	3	correct	1.55485671543283
271597	1	stim157_inanimate_furniture_table_1.png	157	inanimate	furniture	table	1	0	4	stars	3	correct	1.55485671543283
271797	1	stim077_animate_insect_grasshopper_1.png	77	animate	insect	grasshopper	1	0	4	stars	3	correct	1.55485671543283
271997	1	stim038_animate_bird_penguin_2.png	38	animate	bird	penguin	2	0	4	stars	3	correct	1.55485671543283
272197	1	stim101_inanimate_clothing_gloves_1.png	101	inanimate	clothing	gloves	1	0	4	stars	3	correct	1.55485671543283
272397	1	stim056_animate_human_faces_4.png	56	animate	human	faces	4	0	4	stars	3	correct	1.55485671543283
272597	1	stim064_animate_insect_ant_4.png	64	animate	insect	ant	4	0	4	stars	3	correct	1.55485671543283
272797	1	stim017_animate_aquatic_shrimp_1.png	17	animate	aquatic	shrimp	1	0	4	stars	3	correct	1.55485671543283
272997	1	stim034_animate_bird_peacock_2.png	34	animate	bird	peacock	2	0	4	stars	3	correct	1.55485671543283
273197	1	stim177_inanimate_plants_tulip_1.png	177	inanimate	plants	tulip	1	0	4	stars	3	correct	1.55485671543283
273397	1	stim183_inanimate_tools_broom_3.png	183	inanimate	tools	broom	3	0	4	stars	3	correct	1.55485671543283
273597	1	stim103_inanimate_clothing_gloves_3.png	103	inanimate	clothing	gloves	3	0	4	stars	3	correct	1.55485671543283
273797	1	stim053_animate_human_faces_1.png	53	animate	human	faces	1	0	4	stars	3	correct	1.55485671543283
273997	1	stim187_inanimate_tools_hammer_3.png	187	inanimate	tools	hammer	3	0	4	stars	3	correct	1.55485671543283
274197	1	stim197_inanimate_tools_wrench_1.png	197	inanimate	tools	wrench	1	0	4	stars	3	correct	1.55485671543283
274397	1	stim045_animate_human_child_1.png	45	animate	human	child	1	0	4	stars	3	correct	1.55485671543283
274597	1	stim031_animate_bird_parrot_3.png	31	animate	bird	parrot	3	0	4	stars	3	correct	1.55485671543283
274797	1	stim065_animate_insect_bug_1.png	65	animate	insect	bug	1	0	4	stars	3	correct	1.55485671543283
274997	1	stim073_animate_insect_dragonfly_1.png	73	animate	insect	dragonfly	1	0	4	stars	3	correct	1.55485671543283
275197	1	stim159_inanimate_furniture_table_3.png	159	inanimate	furniture	table	3	0	4	stars	3	correct	1.55485671543283
275397	1	stim132_inanimate_fruits_grape_4.png	132	inanimate	fruits	grape	4	0	4	stars	3	correct	1.55485671543283
275597	1	stim146_inanimate_furniture_chair_2.png	146	inanimate	furniture	chair	2	0	4	stars	3	correct	1.55485671543283
275797	1	stim067_animate_insect_bug_3.png	67	animate	insect	bug	3	0	4	stars	3	correct	1.55485671543283
275997	1	stim196_inanimate_tools_scissors_4.png	196	inanimate	tools	scissors	4	0	4	stars	3	correct	1.55485671543283
276197	1	stim044_animate_human_baby_4.png	44	animate	human	baby	4	0	4	stars	3	correct	1.55485671543283
276397	1	stim099_animate_mammal_rhino_3.png	99	animate	mammal	rhino	3	0	4	stars	3	correct	1.55485671543283
276597	1	stim087_animate_mammal_giraffe_3.png	87	animate	mammal	giraffe	3	0	4	stars	3	correct	1.55485671543283
276797	1	stim186_inanimate_tools_hammer_2.png	186	inanimate	tools	hammer	2	0	4	stars	3	correct	1.55485671543283
276997	1	stim158_inanimate_furniture_table_2.png	158	inanimate	furniture	table	2	0	4	stars	3	correct	1.55485671543283
277197	1	stim169_inanimate_plants_sunflower_1.png	169	inanimate	plants	sunflower	1	0	4	stars	3	correct	1.55485671543283
291447	1	stim168_inanimate_plants_cactus_4.png	168	inanimate	plants	cactus	4	0	5	boats	4	correct	1.22684599366039
291647	1	stim101_inanimate_clothing_gloves_1.png	101	inanimate	clothing	gloves	1	0	5	boats	4	correct	1.22684599366039
291847	1	stim017_animate_aquatic_shrimp_1.png	17	animate	aquatic	shrimp	1	0	5	boats	4	correct	1.22684599366039
292047	1	stim185_inanimate_tools_hammer_1.png	185	inanimate	tools	hammer	1	0	5	boats	4	correct	1.22684599366039
292247	1	stim088_animate_mammal_giraffe_4.png	88	animate	mammal	giraffe	4	0	5	boats	4	correct	1.22684599366039
292447	1	stim173_inanimate_plants_tree_1.png	173	inanimate	plants	tree	1	0	5	boats	4	correct	1.22684599366039
292647	1	stim010_animate_aquatic_seahorse_2.png	10	animate	aquatic	seahorse	2	0	5	boats	4	correct	1.22684599366039
292847	1	stim051_animate_human_clown_3.png	51	animate	human	clown	3	0	5	boats	4	correct	1.22684599366039
293047	1	stim095_animate_mammal_monkey_3.png	95	animate	mammal	monkey	3	0	5	boats	4	correct	1.22684599366039
293247	1	stim130_inanimate_fruits_grape_2.png	130	inanimate	fruits	grape	2	0	5	boats	4	correct	1.22684599366039
293447	1	stim158_inanimate_furniture_table_2.png	158	inanimate	furniture	table	2	0	5	boats	4	correct	1.22684599366039
293647	1	stim079_animate_insect_grasshopper_3.png	79	animate	insect	grasshopper	3	0	5	boats	4	correct	1.22684599366039
293847	1	stim008_animate_aquatic_fish_4.png	8	animate	aquatic	fish	4	0	5	boats	4	correct	1.22684599366039
294047	1	stim195_inanimate_tools_scissors_3.png	195	inanimate	tools	scissors	3	0	5	boats	4	correct	1.22684599366039
294247	1	stim034_animate_bird_peacock_2.png	34	animate	bird	peacock	2	0	5	boats	4	correct	1.22684599366039
294447	1	stim166_inanimate_plants_cactus_2.png	166	inanimate	plants	cactus	2	0	5	boats	4	correct	1.22684599366039
294647	1	stim035_animate_bird_peacock_3.png	35	animate	bird	peacock	3	0	5	boats	4	correct	1.22684599366039
294847	1	stim190_inanimate_tools_pan_2.png	190	inanimate	tools	pan	2	0	5	boats	4	correct	1.22684599366039
295047	1	stim112_inanimate_clothing_jeans_4.png	112	inanimate	clothing	jeans	4	0	5	boats	4	correct	1.22684599366039
295247	1	stim080_animate_insect_grasshopper_4.png	80	animate	insect	grasshopper	4	0	5	boats	4	correct	1.22684599366039
295447	1	stim070_animate_insect_butterfly_2.png	70	animate	insect	butterfly	2	0	5	boats	4	correct	1.22684599366039
295647	1	stim025_animate_bird_duck_1.png	25	animate	bird	duck	1	0	5	boats	4	correct	1.22684599366039
295847	1	stim044_animate_human_baby_4.png	44	animate	human	baby	4	0	5	boats	4	correct	1.22684599366039
296047	1	stim071_animate_insect_butterfly_3.png	71	animate	insect	butterfly	3	0	5	boats	4	correct	1.22684599366039
296247	1	stim189_inanimate_tools_pan_1.png	189	inanimate	tools	pan	1	0	5	boats	4	correct	1.22684599366039
296447	1	stim018_animate_aquatic_shrimp_2.png	18	animate	aquatic	shrimp	2	0	5	boats	4	correct	1.22684599366039
296647	1	stim110_inanimate_clothing_jeans_2.png	110	inanimate	clothing	jeans	2	0	5	boats	4	correct	1.22684599366039
296847	1	stim181_inanimate_tools_broom_1.png	181	inanimate	tools	broom	1	0	5	boats	4	correct	1.22684599366039
297047	1	stim108_inanimate_clothing_hat_4.png	108	inanimate	clothing	hat	4	0	5	boats	4	correct	1.22684599366039
297247	1	stim109_inanimate_clothing_jeans_1.png	109	inanimate	clothing	jeans	1	0	5	boats	4	correct	1.22684599366039
297447	1	stim005_animate_aquatic_fish_1.png	5	animate	aquatic	fish	1	0	5	boats	4	correct	1.22684599366039
297647	1	stim084_animate_mammal_cow_4.png	84	animate	mammal	cow	4	0	5	boats	4	correct	1.22684599366039
297847	1	stim107_inanimate_clothing_hat_3.png	107	inanimate	clothing	hat	3	0	5	boats	4	correct	1.22684599366039
298047	1	stim161_inanimate_plants_bush_1.png	161	inanimate	plants	bush	1	0	5	boats	4	correct	1.22684599366039
298247	1	stim081_animate_mammal_cow_1.png	81	animate	mammal	cow	1	0	5	boats	4	correct	1.22684599366039
298447	1	stim033_animate_bird_peacock_1.png	33	animate	bird	peacock	1	0	5	boats	4	correct	1.22684599366039
298647	1	stim170_inanimate_plants_sunflower_2.png	170	inanimate	plants	sunflower	2	0	5	boats	4	correct	1.22684599366039
298847	1	stim120_inanimate_clothing_socks_4.png	120	inanimate	clothing	socks	4	0	5	boats	4	correct	1.22684599366039
299047	1	stim178_inanimate_plants_tulip_2.png	178	inanimate	plants	tulip	2	0	5	boats	4	correct	1.22684599366039
299247	1	stim193_inanimate_tools_scissors_1.png	193	inanimate	tools	scissors	1	0	5	boats	4	correct	1.22684599366039
299447	1	stim156_inanimate_furniture_sofa_4.png	156	inanimate	furniture	sofa	4	0	5	boats	4	correct	1.22684599366039
299647	1	stim024_animate_bird_chicken_4.png	24	animate	bird	chicken	4	0	5	boats	4	correct	1.22684599366039
299848	1	stim019_animate_aquatic_shrimp_3.png	19	animate	aquatic	shrimp	3	0	5	boats	4	correct	1.22684599366039
300048	1	stim078_animate_insect_grasshopper_2.png	78	animate	insect	grasshopper	2	0	5	boats	4	correct	1.22684599366039
300247	1	stim012_animate_aquatic_seahorse_4.png	12	animate	aquatic	seahorse	4	0	5	boats	4	correct	1.22684599366039
300447	1	stim154_inanimate_furniture_sofa_2.png	154	inanimate	furniture	sofa	2	0	5	boats	4	correct	1.22684599366039
300648	1	stim118_inanimate_clothing_socks_2.png	118	inanimate	clothing	socks	2	0	5	boats	4	correct	1.22684599366039
300848	1	stim028_animate_bird_duck_4.png	28	animate	bird	duck	4	0	5	boats	4	correct	1.22684599366039
301048	1	stim102_inanimate_clothing_gloves_2.png	102	inanimate	clothing	gloves	2	0	5	boats	4	correct	1.22684599366039
301248	1	stim055_animate_human_faces_3.png	55	animate	human	faces	3	0	5	boats	4	correct	1.22684599366039
301448	1	stim122_inanimate_fruits_apple_2.png	122	inanimate	fruits	apple	2	0	5	boats	4	correct	1.22684599366039
301648	1	stim100_animate_mammal_rhino_4.png	100	animate	mammal	rhino	4	0	5	boats	4	correct	1.22684599366039
301848	1	stim089_animate_mammal_kangaroo_1.png	89	animate	mammal	kangaroo	1	0	5	boats	4	correct	1.22684599366039
302048	1	stim075_animate_insect_dragonfly_3.png	75	animate	insect	dragonfly	3	0	5	boats	4	correct	1.22684599366039
302248	1	stim204_targets_object_boats_4.png	204	targets	object	boats	4	1	5	boats	4	correct	1.22684599366039
302448	1	stim162_inanimate_plants_bush_2.png	162	inanimate	plants	bush	2	0	5	boats	4	correct	1.22684599366039
302648	1	stim011_animate_aquatic_seahorse_3.png	11	animate	aquatic	seahorse	3	0	5	boats	4	correct	1.22684599366039
302848	1	stim150_inanimate_furniture_closet_2.png	150	inanimate	furniture	closet	2	0	5	boats	4	correct	1.22684599366039
303048	1	stim197_inanimate_tools_wrench_1.png	197	inanimate	tools	wrench	1	0	5	boats	4	correct	1.22684599366039
303248	1	stim144_inanimate_furniture_bed_4.png	144	inanimate	furniture	bed	4	0	5	boats	4	correct	1.22684599366039
303448	1	stim119_inanimate_clothing_socks_3.png	119	inanimate	clothing	socks	3	0	5	boats	4	correct	1.22684599366039
303648	1	stim026_animate_bird_duck_2.png	26	animate	bird	duck	2	0	5	boats	4	correct	1.22684599366039
303848	1	stim091_animate_mammal_kangaroo_3.png	91	animate	mammal	kangaroo	3	0	5	boats	4	correct	1.22684599366039
304048	1	stim037_animate_bird_penguin_1.png	37	animate	bird	penguin	1	0	5	boats	4	correct	1.22684599366039
304248	1	stim163_inanimate_plants_bush_3.png	163	inanimate	plants	bush	3	0	5	boats	4	correct	1.22684599366039
304448	1	stim052_animate_human_clown_4.png	52	animate	human	clown	4	0	5	boats	4	correct	1.22684599366039
304648	1	stim022_animate_bird_chicken_2.png	22	animate	bird	chicken	2	0	5	boats	4	correct	1.22684599366039
304848	1	stim036_animate_bird_peacock_4.png	36	animate	bird	peacock	4	0	5	boats	4	correct	1.22684599366039
305048	1	stim054_animate_human_faces_2.png	54	animate	human	faces	2	0	5	boats	4	correct	1.22684599366039
305248	1	stim114_inanimate_clothing_shirt_2.png	114	inanimate	clothing	shirt	2	0	5	boats	4	correct	1.22684599366039
305448	1	stim003_animate_aquatic_crab_3.png	3	animate	aquatic	crab	3	0	5	boats	4	correct	1.22684599366039
305648	1	stim139_inanimate_fruits_strawberry_3.png	139	inanimate	fruits	strawberry	3	0	5	boats	4	correct	1.22684599366039
305848	1	stim117_inanimate_clothing_socks_1.png	117	inanimate	clothing	socks	1	0	5	boats	4	correct	1.22684599366039
306048	1	stim125_inanimate_fruits_banana_1.png	125	inanimate	fruits	banana	1	0	5	boats	4	correct	1.22684599366039
306248	1	stim007_animate_aquatic_fish_3.png	7	animate	aquatic	fish	3	0	5	boats	4	correct	1.22684599366039
306448	1	stim040_animate_bird_penguin_4.png	40	animate	bird	penguin	4	0	5	boats	4	correct	1.22684599366039
306648	1	stim121_inanimate_fruits_apple_1.png	121	inanimate	fruits	apple	1	0	5	boats	4	correct	1.22684599366039
306848	1	stim198_inanimate_tools_wrench_2.png	198	inanimate	tools	wrench	2	0	5	boats	4	correct	1.22684599366039
307048	1	stim043_animate_human_baby_3.png	43	animate	human	baby	3	0	5	boats	4	correct	1.22684599366039
307248	1	stim057_animate_human_sports_1.png	57	animate	human	sports	1	0	5	boats	4	correct	1.22684599366039
307448	1	stim085_animate_mammal_giraffe_1.png	85	animate	mammal	giraffe	1	0	5	boats	4	correct	1.22684599366039
307648	1	stim039_animate_bird_penguin_3.png	39	animate	bird	penguin	3	0	5	boats	4	correct	1.22684599366039
307848	1	stim030_animate_bird_parrot_2.png	30	animate	bird	parrot	2	0	5	boats	4	correct	1.22684599366039
308048	1	stim074_animate_insect_dragonfly_2.png	74	animate	insect	dragonfly	2	0	5	boats	4	correct	1.22684599366039
308248	1	stim058_animate_human_sports_2.png	58	animate	human	sports	2	0	5	boats	4	correct	1.22684599366039
308448	1	stim077_animate_insect_grasshopper_1.png	77	animate	insect	grasshopper	1	0	5	boats	4	correct	1.22684599366039
