onset	duration	stimulusname	stimulusnumber	levelA	levelB	levelC	withinexemplarnumber	istarget	trialnumber	condition	response	correct	rt
26685	1	stim005_animate_aquatic_fish_1.png	5	animate	aquatic	fish	1	0	1	stars	3	correct	1.17348310077796
26735	1	stim179_inanimate_plants_tulip_3.png	179	inanimate	plants	tulip	3	0	1	stars	3	correct	1.17348310077796
26785	1	stim117_inanimate_clothing_socks_1.png	117	inanimate	clothing	socks	1	0	1	stars	3	correct	1.17348310077796
26835	1	stim013_animate_aquatic_shark_1.png	13	animate	aquatic	shark	1	0	1	stars	3	correct	1.17348310077796
26885	1	stim035_animate_bird_peacock_3.png	35	animate	bird	peacock	3	0	1	stars	3	correct	1.17348310077796
26935	1	stim014_animate_aquatic_shark_2.png	14	animate	aquatic	shark	2	0	1	stars	3	correct	1.17348310077796
26985	1	stim150_inanimate_furniture_closet_2.png	150	inanimate	furniture	closet	2	0	1	stars	3	correct	1.17348310077796
27035	1	stim064_animate_insect_ant_4.png	64	animate	insect	ant	4	0	1	stars	3	correct	1.17348310077796
27085	1	stim040_animate_bird_penguin_4.png	40	animate	bird	penguin	4	0	1	stars	3	correct	1.17348310077796
27135	1	stim180_inanimate_plants_tulip_4.png	180	inanimate	plants	tulip	4	0	1	stars	3	correct	1.17348310077796
27185	1	stim134_inanimate_fruits_pineapple_2.png	134	inanimate	fruits	pineapple	2	0	1	stars	3	correct	1.17348310077796
27235	1	stim120_inanimate_clothing_socks_4.png	120	inanimate	clothing	socks	4	0	1	stars	3	correct	1.17348310077796
27285	1	stim156_inanimate_furniture_sofa_4.png	156	inanimate	furniture	sofa	4	0	1	stars	3	correct	1.17348310077796
27335	1	stim023_animate_bird_chicken_3.png	23	animate	bird	chicken	3	0	1	stars	3	correct	1.17348310077796
27385	1	stim019_animate_aquatic_shrimp_3.png	19	animate	aquatic	shrimp	3	0	1	stars	3	correct	1.17348310077796
27435	1	stim094_animate_mammal_monkey_2.png	94	animate	mammal	monkey	2	0	1	stars	3	correct	1.17348310077796
27485	1	stim136_inanimate_fruits_pineapple_4.png	136	inanimate	fruits	pineapple	4	0	1	stars	3	correct	1.17348310077796
27535	1	stim038_animate_bird_penguin_2.png	38	animate	bird	penguin	2	0	1	stars	3	correct	1.17348310077796
27585	1	stim165_inanimate_plants_cactus_1.png	165	inanimate	plants	cactus	1	0	1	stars	3	correct	1.17348310077796
27635	1	stim187_inanimate_tools_hammer_3.png	187	inanimate	tools	hammer	3	0	1	stars	3	correct	1.17348310077796
27685	1	stim033_animate_bird_peacock_1.png	33	animate	bird	peacock	1	0	1	stars	3	correct	1.17348310077796
27735	1	stim138_inanimate_fruits_strawberry_2.png	138	inanimate	fruits	strawberry	2	0	1	stars	3	correct	1.17348310077796
27785	1	stim008_animate_aquatic_fish_4.png	8	animate	aquatic	fish	4	0	1	stars	3	correct	1.17348310077796
27835	1	stim010_animate_aquatic_seahorse_2.png	10	animate	aquatic	seahorse	2	0	1	stars	3	correct	1.17348310077796
27885	1	stim163_inanimate_plants_bush_3.png	163	inanimate	plants	bush	3	0	1	stars	3	correct	1.17348310077796
27935	1	stim161_inanimate_plants_bush_1.png	161	inanimate	plants	bush	1	0	1	stars	3	correct	1.17348310077796
27985	1	stim137_inanimate_fruits_strawberry_1.png	137	inanimate	fruits	strawberry	1	0	1	stars	3	correct	1.17348310077796
28035	1	stim098_animate_mammal_rhino_2.png	98	animate	mammal	rhino	2	0	1	stars	3	correct	1.17348310077796
28085	1	stim182_inanimate_tools_broom_2.png	182	inanimate	tools	broom	2	0	1	stars	3	correct	1.17348310077796
28135	1	stim109_inanimate_clothing_jeans_1.png	109	inanimate	clothing	jeans	1	0	1	stars	3	correct	1.17348310077796
28185	1	stim145_inanimate_furniture_chair_1.png	145	inanimate	furniture	chair	1	0	1	stars	3	correct	1.17348310077796
28235	1	stim081_animate_mammal_cow_1.png	81	animate	mammal	cow	1	0	1	stars	3	correct	1.17348310077796
28285	1	stim103_inanimate_clothing_gloves_3.png	103	inanimate	clothing	gloves	3	0	1	stars	3	correct	1.17348310077796
28335	1	stim050_animate_human_clown_2.png	50	animate	human	clown	2	0	1	stars	3	correct	1.17348310077796
28385	1	stim162_inanimate_plants_bush_2.png	162	inanimate	plants	bush	2	0	1	stars	3	correct	1.17348310077796
28435	1	stim192_inanimate_tools_pan_4.png	192	inanimate	tools	pan	4	0	1	stars	3	correct	1.17348310077796
28485	1	stim190_inanimate_tools_pan_2.png	190	inanimate	tools	pan	2	0	1	stars	3	correct	1.17348310077796
28535	1	stim142_inanimate_furniture_bed_2.png	142	inanimate	furniture	bed	2	0	1	stars	3	correct	1.17348310077796
28585	1	stim028_animate_bird_duck_4.png	28	animate	bird	duck	4	0	1	stars	3	correct	1.17348310077796
28635	1	stim091_animate_mammal_kangaroo_3.png	91	animate	mammal	kangaroo	3	0	1	stars	3	correct	1.17348310077796
28685	1	stim076_animate_insect_dragonfly_4.png	76	animate	insect	dragonfly	4	0	1	stars	3	correct	1.17348310077796
28735	1	stim101_inanimate_clothing_gloves_1.png	101	inanimate	clothing	gloves	1	0	1	stars	3	correct	1.17348310077796
28785	1	stim112_inanimate_clothing_jeans_4.png	112	inanimate	clothing	jeans	4	0	1	stars	3	correct	1.17348310077796
28835	1	stim100_animate_mammal_rhino_4.png	100	animate	mammal	rhino	4	0	1	stars	3	correct	1.17348310077796
28885	1	stim184_inanimate_tools_broom_4.png	184	inanimate	tools	broom	4	0	1	stars	3	correct	1.17348310077796
28935	1	stim020_animate_aquatic_shrimp_4.png	20	animate	aquatic	shrimp	4	0	1	stars	3	correct	1.17348310077796
28985	1	stim059_animate_human_sports_3.png	59	animate	human	sports	3	0	1	stars	3	correct	1.17348310077796
29035	1	stim057_animate_human_sports_1.png	57	animate	human	sports	1	0	1	stars	3	correct	1.17348310077796
29085	1	stim022_animate_bird_chicken_2.png	22	animate	bird	chicken	2	0	1	stars	3	correct	1.17348310077796
29135	1	stim049_animate_human_clown_1.png	49	animate	human	clown	1	0	1	stars	3	correct	1.17348310077796
29185	1	stim151_inanimate_furniture_closet_3.png	151	inanimate	furniture	closet	3	0	1	stars	3	correct	1.17348310077796
29235	1	stim047_animate_human_child_3.png	47	animate	human	child	3	0	1	stars	3	correct	1.17348310077796
29285	1	stim124_inanimate_fruits_apple_4.png	124	inanimate	fruits	apple	4	0	1	stars	3	correct	1.17348310077796
29335	1	stim186_inanimate_tools_hammer_2.png	186	inanimate	tools	hammer	2	0	1	stars	3	correct	1.17348310077796
29385	1	stim188_inanimate_tools_hammer_4.png	188	inanimate	tools	hammer	4	0	1	stars	3	correct	1.17348310077796
29435	1	stim030_animate_bird_parrot_2.png	30	animate	bird	parrot	2	0	1	stars	3	correct	1.17348310077796
29485	1	stim196_inanimate_tools_scissors_4.png	196	inanimate	tools	scissors	4	0	1	stars	3	correct	1.17348310077796
29535	1	stim105_inanimate_clothing_hat_1.png	105	inanimate	clothing	hat	1	0	1	stars	3	correct	1.17348310077796
29585	1	stim172_inanimate_plants_sunflower_4.png	172	inanimate	plants	sunflower	4	0	1	stars	3	correct	1.17348310077796
29635	1	stim115_inanimate_clothing_shirt_3.png	115	inanimate	clothing	shirt	3	0	1	stars	3	correct	1.17348310077796
29685	1	stim160_inanimate_furniture_table_4.png	160	inanimate	furniture	table	4	0	1	stars	3	correct	1.17348310077796
29735	1	stim200_inanimate_tools_wrench_4.png	200	inanimate	tools	wrench	4	0	1	stars	3	correct	1.17348310077796
29785	1	stim193_inanimate_tools_scissors_1.png	193	inanimate	tools	scissors	1	0	1	stars	3	correct	1.17348310077796
29835	1	stim046_animate_human_child_2.png	46	animate	human	child	2	0	1	stars	3	correct	1.17348310077796
29885	1	stim021_animate_bird_chicken_1.png	21	animate	bird	chicken	1	0	1	stars	3	correct	1.17348310077796
29935	1	stim054_animate_human_faces_2.png	54	animate	human	faces	2	0	1	stars	3	correct	1.17348310077796
29985	1	stim173_inanimate_plants_tree_1.png	173	inanimate	plants	tree	1	0	1	stars	3	correct	1.17348310077796
30035	1	stim052_animate_human_clown_4.png	52	animate	human	clown	4	0	1	stars	3	correct	1.17348310077796
30085	1	stim214_targets_shapes_star_2.png	214	targets	shapes	star	2	1	1	stars	3	correct	1.17348310077796
30135	1	stim097_animate_mammal_rhino_1.png	97	animate	mammal	rhino	1	0	1	stars	3	correct	1.17348310077796
30185	1	stim087_animate_mammal_giraffe_3.png	87	animate	mammal	giraffe	3	0	1	stars	3	correct	1.17348310077796
30235	1	stim144_inanimate_furniture_bed_4.png	144	inanimate	furniture	bed	4	0	1	stars	3	correct	1.17348310077796
30285	1	stim195_inanimate_tools_scissors_3.png	195	inanimate	tools	scissors	3	0	1	stars	3	correct	1.17348310077796
30335	1	stim058_animate_human_sports_2.png	58	animate	human	sports	2	0	1	stars	3	correct	1.17348310077796
30385	1	stim154_inanimate_furniture_sofa_2.png	154	inanimate	furniture	sofa	2	0	1	stars	3	correct	1.17348310077796
30435	1	stim155_inanimate_furniture_sofa_3.png	155	inanimate	furniture	sofa	3	0	1	stars	3	correct	1.17348310077796
30485	1	stim024_animate_bird_chicken_4.png	24	animate	bird	chicken	4	0	1	stars	3	correct	1.17348310077796
30535	1	stim139_inanimate_fruits_strawberry_3.png	139	inanimate	fruits	strawberry	3	0	1	stars	3	correct	1.17348310077796
30585	1	stim126_inanimate_fruits_banana_2.png	126	inanimate	fruits	banana	2	0	1	stars	3	correct	1.17348310077796
30635	1	stim189_inanimate_tools_pan_1.png	189	inanimate	tools	pan	1	0	1	stars	3	correct	1.17348310077796
30685	1	stim017_animate_aquatic_shrimp_1.png	17	animate	aquatic	shrimp	1	0	1	stars	3	correct	1.17348310077796
30735	1	stim159_inanimate_furniture_table_3.png	159	inanimate	furniture	table	3	0	1	stars	3	correct	1.17348310077796
30785	1	stim157_inanimate_furniture_table_1.png	157	inanimate	furniture	table	1	0	1	stars	3	correct	1.17348310077796
30835	1	stim102_inanimate_clothing_gloves_2.png	102	inanimate	clothing	gloves	2	0	1	stars	3	correct	1.17348310077796
30885	1	stim069_animate_insect_butterfly_1.png	69	animate	insect	butterfly	1	0	1	stars	3	correct	1.17348310077796
30935	1	stim048_animate_human_child_4.png	48	animate	human	child	4	0	1	stars	3	correct	1.17348310077796
30985	1	stim026_animate_bird_duck_2.png	26	animate	bird	duck	2	0	1	stars	3	correct	1.17348310077796
31035	1	stim003_animate_aquatic_crab_3.png	3	animate	aquatic	crab	3	0	1	stars	3	correct	1.17348310077796
31085	1	stim183_inanimate_tools_broom_3.png	183	inanimate	tools	broom	3	0	1	stars	3	correct	1.17348310077796
31135	1	stim125_inanimate_fruits_banana_1.png	125	inanimate	fruits	banana	1	0	1	stars	3	correct	1.17348310077796
31185	1	stim060_animate_human_sports_4.png	60	animate	human	sports	4	0	1	stars	3	correct	1.17348310077796
31235	1	stim004_animate_aquatic_crab_4.png	4	animate	aquatic	crab	4	0	1	stars	3	correct	1.17348310077796
31285	1	stim166_inanimate_plants_cactus_2.png	166	inanimate	plants	cactus	2	0	1	stars	3	correct	1.17348310077796
31335	1	stim018_animate_aquatic_shrimp_2.png	18	animate	aquatic	shrimp	2	0	1	stars	3	correct	1.17348310077796
31385	1	stim092_animate_mammal_kangaroo_4.png	92	animate	mammal	kangaroo	4	0	1	stars	3	correct	1.17348310077796
31435	1	stim140_inanimate_fruits_strawberry_4.png	140	inanimate	fruits	strawberry	4	0	1	stars	3	correct	1.17348310077796
31485	1	stim055_animate_human_faces_3.png	55	animate	human	faces	3	0	1	stars	3	correct	1.17348310077796
31535	1	stim080_animate_insect_grasshopper_4.png	80	animate	insect	grasshopper	4	0	1	stars	3	correct	1.17348310077796
31585	1	stim065_animate_insect_bug_1.png	65	animate	insect	bug	1	0	1	stars	3	correct	1.17348310077796
31635	1	stim084_animate_mammal_cow_4.png	84	animate	mammal	cow	4	0	1	stars	3	correct	1.17348310077796
31685	1	stim072_animate_insect_butterfly_4.png	72	animate	insect	butterfly	4	0	1	stars	3	correct	1.17348310077796
31735	1	stim095_animate_mammal_monkey_3.png	95	animate	mammal	monkey	3	0	1	stars	3	correct	1.17348310077796
31785	1	stim215_targets_shapes_star_3.png	215	targets	shapes	star	3	1	1	stars	3	correct	1.17348310077796
31835	1	stim174_inanimate_plants_tree_2.png	174	inanimate	plants	tree	2	0	1	stars	3	correct	1.17348310077796
31885	1	stim077_animate_insect_grasshopper_1.png	77	animate	insect	grasshopper	1	0	1	stars	3	correct	1.17348310077796
31935	1	stim007_animate_aquatic_fish_3.png	7	animate	aquatic	fish	3	0	1	stars	3	correct	1.17348310077796
31985	1	stim037_animate_bird_penguin_1.png	37	animate	bird	penguin	1	0	1	stars	3	correct	1.17348310077796
32035	1	stim121_inanimate_fruits_apple_1.png	121	inanimate	fruits	apple	1	0	1	stars	3	correct	1.17348310077796
32085	1	stim191_inanimate_tools_pan_3.png	191	inanimate	tools	pan	3	0	1	stars	3	correct	1.17348310077796
32135	1	stim116_inanimate_clothing_shirt_4.png	116	inanimate	clothing	shirt	4	0	1	stars	3	correct	1.17348310077796
32185	1	stim032_animate_bird_parrot_4.png	32	animate	bird	parrot	4	0	1	stars	3	correct	1.17348310077796
32235	1	stim041_animate_human_baby_1.png	41	animate	human	baby	1	0	1	stars	3	correct	1.17348310077796
32285	1	stim171_inanimate_plants_sunflower_3.png	171	inanimate	plants	sunflower	3	0	1	stars	3	correct	1.17348310077796
32335	1	stim061_animate_insect_ant_1.png	61	animate	insect	ant	1	0	1	stars	3	correct	1.17348310077796
32385	1	stim025_animate_bird_duck_1.png	25	animate	bird	duck	1	0	1	stars	3	correct	1.17348310077796
32435	1	stim199_inanimate_tools_wrench_3.png	199	inanimate	tools	wrench	3	0	1	stars	3	correct	1.17348310077796
32485	1	stim133_inanimate_fruits_pineapple_1.png	133	inanimate	fruits	pineapple	1	0	1	stars	3	correct	1.17348310077796
32535	1	stim178_inanimate_plants_tulip_2.png	178	inanimate	plants	tulip	2	0	1	stars	3	correct	1.17348310077796
32585	1	stim197_inanimate_tools_wrench_1.png	197	inanimate	tools	wrench	1	0	1	stars	3	correct	1.17348310077796
32635	1	stim118_inanimate_clothing_socks_2.png	118	inanimate	clothing	socks	2	0	1	stars	3	correct	1.17348310077796
32685	1	stim194_inanimate_tools_scissors_2.png	194	inanimate	tools	scissors	2	0	1	stars	3	correct	1.17348310077796
32735	1	stim029_animate_bird_parrot_1.png	29	animate	bird	parrot	1	0	1	stars	3	correct	1.17348310077796
32785	1	stim082_animate_mammal_cow_2.png	82	animate	mammal	cow	2	0	1	stars	3	correct	1.17348310077796
32835	1	stim063_animate_insect_ant_3.png	63	animate	insect	ant	3	0	1	stars	3	correct	1.17348310077796
32885	1	stim152_inanimate_furniture_closet_4.png	152	inanimate	furniture	closet	4	0	1	stars	3	correct	1.17348310077796
32935	1	stim106_inanimate_clothing_hat_2.png	106	inanimate	clothing	hat	2	0	1	stars	3	correct	1.17348310077796
32985	1	stim056_animate_human_faces_4.png	56	animate	human	faces	4	0	1	stars	3	correct	1.17348310077796
33035	1	stim107_inanimate_clothing_hat_3.png	107	inanimate	clothing	hat	3	0	1	stars	3	correct	1.17348310077796
33085	1	stim031_animate_bird_parrot_3.png	31	animate	bird	parrot	3	0	1	stars	3	correct	1.17348310077796
33135	1	stim132_inanimate_fruits_grape_4.png	132	inanimate	fruits	grape	4	0	1	stars	3	correct	1.17348310077796
33185	1	stim070_animate_insect_butterfly_2.png	70	animate	insect	butterfly	2	0	1	stars	3	correct	1.17348310077796
33235	1	stim090_animate_mammal_kangaroo_2.png	90	animate	mammal	kangaroo	2	0	1	stars	3	correct	1.17348310077796
33285	1	stim088_animate_mammal_giraffe_4.png	88	animate	mammal	giraffe	4	0	1	stars	3	correct	1.17348310077796
33335	1	stim147_inanimate_furniture_chair_3.png	147	inanimate	furniture	chair	3	0	1	stars	3	correct	1.17348310077796
33385	1	stim210_targets_shapes_star_2.png	210	targets	shapes	star	2	1	1	stars	3	correct	1.17348310077796
33435	1	stim148_inanimate_furniture_chair_4.png	148	inanimate	furniture	chair	4	0	1	stars	3	correct	1.17348310077796
33485	1	stim089_animate_mammal_kangaroo_1.png	89	animate	mammal	kangaroo	1	0	1	stars	3	correct	1.17348310077796
33535	1	stim149_inanimate_furniture_closet_1.png	149	inanimate	furniture	closet	1	0	1	stars	3	correct	1.17348310077796
33585	1	stim177_inanimate_plants_tulip_1.png	177	inanimate	plants	tulip	1	0	1	stars	3	correct	1.17348310077796
33635	1	stim067_animate_insect_bug_3.png	67	animate	insect	bug	3	0	1	stars	3	correct	1.17348310077796
33685	1	stim167_inanimate_plants_cactus_3.png	167	inanimate	plants	cactus	3	0	1	stars	3	correct	1.17348310077796
33735	1	stim079_animate_insect_grasshopper_3.png	79	animate	insect	grasshopper	3	0	1	stars	3	correct	1.17348310077796
33785	1	stim016_animate_aquatic_shark_4.png	16	animate	aquatic	shark	4	0	1	stars	3	correct	1.17348310077796
33835	1	stim085_animate_mammal_giraffe_1.png	85	animate	mammal	giraffe	1	0	1	stars	3	correct	1.17348310077796
33885	1	stim043_animate_human_baby_3.png	43	animate	human	baby	3	0	1	stars	3	correct	1.17348310077796
33935	1	stim168_inanimate_plants_cactus_4.png	168	inanimate	plants	cactus	4	0	1	stars	3	correct	1.17348310077796
33985	1	stim034_animate_bird_peacock_2.png	34	animate	bird	peacock	2	0	1	stars	3	correct	1.17348310077796
34035	1	stim127_inanimate_fruits_banana_3.png	127	inanimate	fruits	banana	3	0	1	stars	3	correct	1.17348310077796
34085	1	stim068_animate_insect_bug_4.png	68	animate	insect	bug	4	0	1	stars	3	correct	1.17348310077796
34135	1	stim015_animate_aquatic_shark_3.png	15	animate	aquatic	shark	3	0	1	stars	3	correct	1.17348310077796
34185	1	stim158_inanimate_furniture_table_2.png	158	inanimate	furniture	table	2	0	1	stars	3	correct	1.17348310077796
34235	1	stim006_animate_aquatic_fish_2.png	6	animate	aquatic	fish	2	0	1	stars	3	correct	1.17348310077796
34285	1	stim122_inanimate_fruits_apple_2.png	122	inanimate	fruits	apple	2	0	1	stars	3	correct	1.17348310077796
34335	1	stim131_inanimate_fruits_grape_3.png	131	inanimate	fruits	grape	3	0	1	stars	3	correct	1.17348310077796
34385	1	stim129_inanimate_fruits_grape_1.png	129	inanimate	fruits	grape	1	0	1	stars	3	correct	1.17348310077796
34435	1	stim181_inanimate_tools_broom_1.png	181	inanimate	tools	broom	1	0	1	stars	3	correct	1.17348310077796
34485	1	stim051_animate_human_clown_3.png	51	animate	human	clown	3	0	1	stars	3	correct	1.17348310077796
34535	1	stim074_animate_insect_dragonfly_2.png	74	animate	insect	dragonfly	2	0	1	stars	3	correct	1.17348310077796
34585	1	stim012_animate_aquatic_seahorse_4.png	12	animate	aquatic	seahorse	4	0	1	stars	3	correct	1.17348310077796
34635	1	stim073_animate_insect_dragonfly_1.png	73	animate	insect	dragonfly	1	0	1	stars	3	correct	1.17348310077796
34685	1	stim078_animate_insect_grasshopper_2.png	78	animate	insect	grasshopper	2	0	1	stars	3	correct	1.17348310077796
34735	1	stim083_animate_mammal_cow_3.png	83	animate	mammal	cow	3	0	1	stars	3	correct	1.17348310077796
34785	1	stim009_animate_aquatic_seahorse_1.png	9	animate	aquatic	seahorse	1	0	1	stars	3	correct	1.17348310077796
34835	1	stim099_animate_mammal_rhino_3.png	99	animate	mammal	rhino	3	0	1	stars	3	correct	1.17348310077796
34885	1	stim198_inanimate_tools_wrench_2.png	198	inanimate	tools	wrench	2	0	1	stars	3	correct	1.17348310077796
34935	1	stim146_inanimate_furniture_chair_2.png	146	inanimate	furniture	chair	2	0	1	stars	3	correct	1.17348310077796
34985	1	stim044_animate_human_baby_4.png	44	animate	human	baby	4	0	1	stars	3	correct	1.17348310077796
35035	1	stim045_animate_human_child_1.png	45	animate	human	child	1	0	1	stars	3	correct	1.17348310077796
35085	1	stim011_animate_aquatic_seahorse_3.png	11	animate	aquatic	seahorse	3	0	1	stars	3	correct	1.17348310077796
35135	1	stim053_animate_human_faces_1.png	53	animate	human	faces	1	0	1	stars	3	correct	1.17348310077796
35185	1	stim066_animate_insect_bug_2.png	66	animate	insect	bug	2	0	1	stars	3	correct	1.17348310077796
35235	1	stim002_animate_aquatic_crab_2.png	2	animate	aquatic	crab	2	0	1	stars	3	correct	1.17348310077796
35285	1	stim108_inanimate_clothing_hat_4.png	108	inanimate	clothing	hat	4	0	1	stars	3	correct	1.17348310077796
35335	1	stim086_animate_mammal_giraffe_2.png	86	animate	mammal	giraffe	2	0	1	stars	3	correct	1.17348310077796
35385	1	stim110_inanimate_clothing_jeans_2.png	110	inanimate	clothing	jeans	2	0	1	stars	3	correct	1.17348310077796
35435	1	stim175_inanimate_plants_tree_3.png	175	inanimate	plants	tree	3	0	1	stars	3	correct	1.17348310077796
35485	1	stim185_inanimate_tools_hammer_1.png	185	inanimate	tools	hammer	1	0	1	stars	3	correct	1.17348310077796
35535	1	stim176_inanimate_plants_tree_4.png	176	inanimate	plants	tree	4	0	1	stars	3	correct	1.17348310077796
35585	1	stim096_animate_mammal_monkey_4.png	96	animate	mammal	monkey	4	0	1	stars	3	correct	1.17348310077796
35635	1	stim130_inanimate_fruits_grape_2.png	130	inanimate	fruits	grape	2	0	1	stars	3	correct	1.17348310077796
35685	1	stim027_animate_bird_duck_3.png	27	animate	bird	duck	3	0	1	stars	3	correct	1.17348310077796
35735	1	stim169_inanimate_plants_sunflower_1.png	169	inanimate	plants	sunflower	1	0	1	stars	3	correct	1.17348310077796
35785	1	stim075_animate_insect_dragonfly_3.png	75	animate	insect	dragonfly	3	0	1	stars	3	correct	1.17348310077796
35835	1	stim111_inanimate_clothing_jeans_3.png	111	inanimate	clothing	jeans	3	0	1	stars	3	correct	1.17348310077796
35885	1	stim141_inanimate_furniture_bed_1.png	141	inanimate	furniture	bed	1	0	1	stars	3	correct	1.17348310077796
35935	1	stim164_inanimate_plants_bush_4.png	164	inanimate	plants	bush	4	0	1	stars	3	correct	1.17348310077796
35985	1	stim071_animate_insect_butterfly_3.png	71	animate	insect	butterfly	3	0	1	stars	3	correct	1.17348310077796
36035	1	stim128_inanimate_fruits_banana_4.png	128	inanimate	fruits	banana	4	0	1	stars	3	correct	1.17348310077796
36085	1	stim039_animate_bird_penguin_3.png	39	animate	bird	penguin	3	0	1	stars	3	correct	1.17348310077796
36135	1	stim093_animate_mammal_monkey_1.png	93	animate	mammal	monkey	1	0	1	stars	3	correct	1.17348310077796
36185	1	stim036_animate_bird_peacock_4.png	36	animate	bird	peacock	4	0	1	stars	3	correct	1.17348310077796
36235	1	stim104_inanimate_clothing_gloves_4.png	104	inanimate	clothing	gloves	4	0	1	stars	3	correct	1.17348310077796
36285	1	stim143_inanimate_furniture_bed_3.png	143	inanimate	furniture	bed	3	0	1	stars	3	correct	1.17348310077796
36335	1	stim135_inanimate_fruits_pineapple_3.png	135	inanimate	fruits	pineapple	3	0	1	stars	3	correct	1.17348310077796
36385	1	stim123_inanimate_fruits_apple_3.png	123	inanimate	fruits	apple	3	0	1	stars	3	correct	1.17348310077796
36435	1	stim170_inanimate_plants_sunflower_2.png	170	inanimate	plants	sunflower	2	0	1	stars	3	correct	1.17348310077796
36485	1	stim153_inanimate_furniture_sofa_1.png	153	inanimate	furniture	sofa	1	0	1	stars	3	correct	1.17348310077796
36535	1	stim119_inanimate_clothing_socks_3.png	119	inanimate	clothing	socks	3	0	1	stars	3	correct	1.17348310077796
36585	1	stim001_animate_aquatic_crab_1.png	1	animate	aquatic	crab	1	0	1	stars	3	correct	1.17348310077796
36635	1	stim113_inanimate_clothing_shirt_1.png	113	inanimate	clothing	shirt	1	0	1	stars	3	correct	1.17348310077796
36685	1	stim062_animate_insect_ant_2.png	62	animate	insect	ant	2	0	1	stars	3	correct	1.17348310077796
36735	1	stim114_inanimate_clothing_shirt_2.png	114	inanimate	clothing	shirt	2	0	1	stars	3	correct	1.17348310077796
36785	1	stim042_animate_human_baby_2.png	42	animate	human	baby	2	0	1	stars	3	correct	1.17348310077796
58603	1	stim151_inanimate_furniture_closet_3.png	151	inanimate	furniture	closet	3	0	2	stars	3	correct	1.03715588076739
58653	1	stim106_inanimate_clothing_hat_2.png	106	inanimate	clothing	hat	2	0	2	stars	3	correct	1.03715588076739
58703	1	stim059_animate_human_sports_3.png	59	animate	human	sports	3	0	2	stars	3	correct	1.03715588076739
58753	1	stim032_animate_bird_parrot_4.png	32	animate	bird	parrot	4	0	2	stars	3	correct	1.03715588076739
58803	1	stim122_inanimate_fruits_apple_2.png	122	inanimate	fruits	apple	2	0	2	stars	3	correct	1.03715588076739
58853	1	stim083_animate_mammal_cow_3.png	83	animate	mammal	cow	3	0	2	stars	3	correct	1.03715588076739
58903	1	stim178_inanimate_plants_tulip_2.png	178	inanimate	plants	tulip	2	0	2	stars	3	correct	1.03715588076739
58953	1	stim154_inanimate_furniture_sofa_2.png	154	inanimate	furniture	sofa	2	0	2	stars	3	correct	1.03715588076739
59003	1	stim003_animate_aquatic_crab_3.png	3	animate	aquatic	crab	3	0	2	stars	3	correct	1.03715588076739
59053	1	stim197_inanimate_tools_wrench_1.png	197	inanimate	tools	wrench	1	0	2	stars	3	correct	1.03715588076739
59103	1	stim058_animate_human_sports_2.png	58	animate	human	sports	2	0	2	stars	3	correct	1.03715588076739
59153	1	stim070_animate_insect_butterfly_2.png	70	animate	insect	butterfly	2	0	2	stars	3	correct	1.03715588076739
59203	1	stim091_animate_mammal_kangaroo_3.png	91	animate	mammal	kangaroo	3	0	2	stars	3	correct	1.03715588076739
59253	1	stim081_animate_mammal_cow_1.png	81	animate	mammal	cow	1	0	2	stars	3	correct	1.03715588076739
59303	1	stim137_inanimate_fruits_strawberry_1.png	137	inanimate	fruits	strawberry	1	0	2	stars	3	correct	1.03715588076739
59353	1	stim034_animate_bird_peacock_2.png	34	animate	bird	peacock	2	0	2	stars	3	correct	1.03715588076739
59403	1	stim050_animate_human_clown_2.png	50	animate	human	clown	2	0	2	stars	3	correct	1.03715588076739
59453	1	stim017_animate_aquatic_shrimp_1.png	17	animate	aquatic	shrimp	1	0	2	stars	3	correct	1.03715588076739
59503	1	stim163_inanimate_plants_bush_3.png	163	inanimate	plants	bush	3	0	2	stars	3	correct	1.03715588076739
59553	1	stim015_animate_aquatic_shark_3.png	15	animate	aquatic	shark	3	0	2	stars	3	correct	1.03715588076739
59603	1	stim097_animate_mammal_rhino_1.png	97	animate	mammal	rhino	1	0	2	stars	3	correct	1.03715588076739
59653	1	stim094_animate_mammal_monkey_2.png	94	animate	mammal	monkey	2	0	2	stars	3	correct	1.03715588076739
59703	1	stim066_animate_insect_bug_2.png	66	animate	insect	bug	2	0	2	stars	3	correct	1.03715588076739
59753	1	stim101_inanimate_clothing_gloves_1.png	101	inanimate	clothing	gloves	1	0	2	stars	3	correct	1.03715588076739
59803	1	stim196_inanimate_tools_scissors_4.png	196	inanimate	tools	scissors	4	0	2	stars	3	correct	1.03715588076739
59853	1	stim046_animate_human_child_2.png	46	animate	human	child	2	0	2	stars	3	correct	1.03715588076739
59903	1	stim008_animate_aquatic_fish_4.png	8	animate	aquatic	fish	4	0	2	stars	3	correct	1.03715588076739
59953	1	stim170_inanimate_plants_sunflower_2.png	170	inanimate	plants	sunflower	2	0	2	stars	3	correct	1.03715588076739
60003	1	stim007_animate_aquatic_fish_3.png	7	animate	aquatic	fish	3	0	2	stars	3	correct	1.03715588076739
60053	1	stim118_inanimate_clothing_socks_2.png	118	inanimate	clothing	socks	2	0	2	stars	3	correct	1.03715588076739
60103	1	stim095_animate_mammal_monkey_3.png	95	animate	mammal	monkey	3	0	2	stars	3	correct	1.03715588076739
60153	1	stim179_inanimate_plants_tulip_3.png	179	inanimate	plants	tulip	3	0	2	stars	3	correct	1.03715588076739
60203	1	stim096_animate_mammal_monkey_4.png	96	animate	mammal	monkey	4	0	2	stars	3	correct	1.03715588076739
60253	1	stim018_animate_aquatic_shrimp_2.png	18	animate	aquatic	shrimp	2	0	2	stars	3	correct	1.03715588076739
60303	1	stim150_inanimate_furniture_closet_2.png	150	inanimate	furniture	closet	2	0	2	stars	3	correct	1.03715588076739
60353	1	stim169_inanimate_plants_sunflower_1.png	169	inanimate	plants	sunflower	1	0	2	stars	3	correct	1.03715588076739
60403	1	stim089_animate_mammal_kangaroo_1.png	89	animate	mammal	kangaroo	1	0	2	stars	3	correct	1.03715588076739
60453	1	stim073_animate_insect_dragonfly_1.png	73	animate	insect	dragonfly	1	0	2	stars	3	correct	1.03715588076739
60503	1	stim167_inanimate_plants_cactus_3.png	167	inanimate	plants	cactus	3	0	2	stars	3	correct	1.03715588076739
60553	1	stim062_animate_insect_ant_2.png	62	animate	insect	ant	2	0	2	stars	3	correct	1.03715588076739
60603	1	stim159_inanimate_furniture_table_3.png	159	inanimate	furniture	table	3	0	2	stars	3	correct	1.03715588076739
60653	1	stim186_inanimate_tools_hammer_2.png	186	inanimate	tools	hammer	2	0	2	stars	3	correct	1.03715588076739
60703	1	stim149_inanimate_furniture_closet_1.png	149	inanimate	furniture	closet	1	0	2	stars	3	correct	1.03715588076739
60753	1	stim082_animate_mammal_cow_2.png	82	animate	mammal	cow	2	0	2	stars	3	correct	1.03715588076739
60803	1	stim022_animate_bird_chicken_2.png	22	animate	bird	chicken	2	0	2	stars	3	correct	1.03715588076739
60853	1	stim107_inanimate_clothing_hat_3.png	107	inanimate	clothing	hat	3	0	2	stars	3	correct	1.03715588076739
60903	1	stim020_animate_aquatic_shrimp_4.png	20	animate	aquatic	shrimp	4	0	2	stars	3	correct	1.03715588076739
60953	1	stim155_inanimate_furniture_sofa_3.png	155	inanimate	furniture	sofa	3	0	2	stars	3	correct	1.03715588076739
61003	1	stim117_inanimate_clothing_socks_1.png	117	inanimate	clothing	socks	1	0	2	stars	3	correct	1.03715588076739
61053	1	stim123_inanimate_fruits_apple_3.png	123	inanimate	fruits	apple	3	0	2	stars	3	correct	1.03715588076739
61103	1	stim144_inanimate_furniture_bed_4.png	144	inanimate	furniture	bed	4	0	2	stars	3	correct	1.03715588076739
61153	1	stim142_inanimate_furniture_bed_2.png	142	inanimate	furniture	bed	2	0	2	stars	3	correct	1.03715588076739
61203	1	stim047_animate_human_child_3.png	47	animate	human	child	3	0	2	stars	3	correct	1.03715588076739
61253	1	stim211_targets_shapes_star_3.png	211	targets	shapes	star	3	1	2	stars	3	correct	1.03715588076739
61303	1	stim162_inanimate_plants_bush_2.png	162	inanimate	plants	bush	2	0	2	stars	3	correct	1.03715588076739
61353	1	stim005_animate_aquatic_fish_1.png	5	animate	aquatic	fish	1	0	2	stars	3	correct	1.03715588076739
61403	1	stim019_animate_aquatic_shrimp_3.png	19	animate	aquatic	shrimp	3	0	2	stars	3	correct	1.03715588076739
61453	1	stim158_inanimate_furniture_table_2.png	158	inanimate	furniture	table	2	0	2	stars	3	correct	1.03715588076739
61503	1	stim192_inanimate_tools_pan_4.png	192	inanimate	tools	pan	4	0	2	stars	3	correct	1.03715588076739
61553	1	stim165_inanimate_plants_cactus_1.png	165	inanimate	plants	cactus	1	0	2	stars	3	correct	1.03715588076739
61603	1	stim128_inanimate_fruits_banana_4.png	128	inanimate	fruits	banana	4	0	2	stars	3	correct	1.03715588076739
61653	1	stim057_animate_human_sports_1.png	57	animate	human	sports	1	0	2	stars	3	correct	1.03715588076739
61703	1	stim045_animate_human_child_1.png	45	animate	human	child	1	0	2	stars	3	correct	1.03715588076739
61753	1	stim027_animate_bird_duck_3.png	27	animate	bird	duck	3	0	2	stars	3	correct	1.03715588076739
61803	1	stim001_animate_aquatic_crab_1.png	1	animate	aquatic	crab	1	0	2	stars	3	correct	1.03715588076739
61853	1	stim044_animate_human_baby_4.png	44	animate	human	baby	4	0	2	stars	3	correct	1.03715588076739
61903	1	stim127_inanimate_fruits_banana_3.png	127	inanimate	fruits	banana	3	0	2	stars	3	correct	1.03715588076739
61953	1	stim024_animate_bird_chicken_4.png	24	animate	bird	chicken	4	0	2	stars	3	correct	1.03715588076739
62003	1	stim185_inanimate_tools_hammer_1.png	185	inanimate	tools	hammer	1	0	2	stars	3	correct	1.03715588076739
62053	1	stim189_inanimate_tools_pan_1.png	189	inanimate	tools	pan	1	0	2	stars	3	correct	1.03715588076739
62103	1	stim116_inanimate_clothing_shirt_4.png	116	inanimate	clothing	shirt	4	0	2	stars	3	correct	1.03715588076739
62153	1	stim092_animate_mammal_kangaroo_4.png	92	animate	mammal	kangaroo	4	0	2	stars	3	correct	1.03715588076739
62203	1	stim084_animate_mammal_cow_4.png	84	animate	mammal	cow	4	0	2	stars	3	correct	1.03715588076739
62253	1	stim036_animate_bird_peacock_4.png	36	animate	bird	peacock	4	0	2	stars	3	correct	1.03715588076739
62303	1	stim064_animate_insect_ant_4.png	64	animate	insect	ant	4	0	2	stars	3	correct	1.03715588076739
62353	1	stim052_animate_human_clown_4.png	52	animate	human	clown	4	0	2	stars	3	correct	1.03715588076739
62403	1	stim146_inanimate_furniture_chair_2.png	146	inanimate	furniture	chair	2	0	2	stars	3	correct	1.03715588076739
62453	1	stim132_inanimate_fruits_grape_4.png	132	inanimate	fruits	grape	4	0	2	stars	3	correct	1.03715588076739
62503	1	stim110_inanimate_clothing_jeans_2.png	110	inanimate	clothing	jeans	2	0	2	stars	3	correct	1.03715588076739
62553	1	stim048_animate_human_child_4.png	48	animate	human	child	4	0	2	stars	3	correct	1.03715588076739
62603	1	stim023_animate_bird_chicken_3.png	23	animate	bird	chicken	3	0	2	stars	3	correct	1.03715588076739
62653	1	stim152_inanimate_furniture_closet_4.png	152	inanimate	furniture	closet	4	0	2	stars	3	correct	1.03715588076739
62703	1	stim013_animate_aquatic_shark_1.png	13	animate	aquatic	shark	1	0	2	stars	3	correct	1.03715588076739
62753	1	stim088_animate_mammal_giraffe_4.png	88	animate	mammal	giraffe	4	0	2	stars	3	correct	1.03715588076739
62803	1	stim060_animate_human_sports_4.png	60	animate	human	sports	4	0	2	stars	3	correct	1.03715588076739
62853	1	stim147_inanimate_furniture_chair_3.png	147	inanimate	furniture	chair	3	0	2	stars	3	correct	1.03715588076739
62903	1	stim054_animate_human_faces_2.png	54	animate	human	faces	2	0	2	stars	3	correct	1.03715588076739
62953	1	stim157_inanimate_furniture_table_1.png	157	inanimate	furniture	table	1	0	2	stars	3	correct	1.03715588076739
63003	1	stim138_inanimate_fruits_strawberry_2.png	138	inanimate	fruits	strawberry	2	0	2	stars	3	correct	1.03715588076739
63053	1	stim035_animate_bird_peacock_3.png	35	animate	bird	peacock	3	0	2	stars	3	correct	1.03715588076739
63103	1	stim038_animate_bird_penguin_2.png	38	animate	bird	penguin	2	0	2	stars	3	correct	1.03715588076739
63153	1	stim030_animate_bird_parrot_2.png	30	animate	bird	parrot	2	0	2	stars	3	correct	1.03715588076739
63203	1	stim139_inanimate_fruits_strawberry_3.png	139	inanimate	fruits	strawberry	3	0	2	stars	3	correct	1.03715588076739
63253	1	stim043_animate_human_baby_3.png	43	animate	human	baby	3	0	2	stars	3	correct	1.03715588076739
63303	1	stim131_inanimate_fruits_grape_3.png	131	inanimate	fruits	grape	3	0	2	stars	3	correct	1.03715588076739
63353	1	stim213_targets_shapes_star_1.png	213	targets	shapes	star	1	1	2	stars	3	correct	1.03715588076739
63403	1	stim042_animate_human_baby_2.png	42	animate	human	baby	2	0	2	stars	3	correct	1.03715588076739
63453	1	stim129_inanimate_fruits_grape_1.png	129	inanimate	fruits	grape	1	0	2	stars	3	correct	1.03715588076739
63503	1	stim021_animate_bird_chicken_1.png	21	animate	bird	chicken	1	0	2	stars	3	correct	1.03715588076739
63553	1	stim031_animate_bird_parrot_3.png	31	animate	bird	parrot	3	0	2	stars	3	correct	1.03715588076739
63603	1	stim099_animate_mammal_rhino_3.png	99	animate	mammal	rhino	3	0	2	stars	3	correct	1.03715588076739
63653	1	stim026_animate_bird_duck_2.png	26	animate	bird	duck	2	0	2	stars	3	correct	1.03715588076739
63703	1	stim126_inanimate_fruits_banana_2.png	126	inanimate	fruits	banana	2	0	2	stars	3	correct	1.03715588076739
63753	1	stim112_inanimate_clothing_jeans_4.png	112	inanimate	clothing	jeans	4	0	2	stars	3	correct	1.03715588076739
63803	1	stim049_animate_human_clown_1.png	49	animate	human	clown	1	0	2	stars	3	correct	1.03715588076739
63853	1	stim051_animate_human_clown_3.png	51	animate	human	clown	3	0	2	stars	3	correct	1.03715588076739
63903	1	stim086_animate_mammal_giraffe_2.png	86	animate	mammal	giraffe	2	0	2	stars	3	correct	1.03715588076739
63953	1	stim077_animate_insect_grasshopper_1.png	77	animate	insect	grasshopper	1	0	2	stars	3	correct	1.03715588076739
64003	1	stim172_inanimate_plants_sunflower_4.png	172	inanimate	plants	sunflower	4	0	2	stars	3	correct	1.03715588076739
64053	1	stim190_inanimate_tools_pan_2.png	190	inanimate	tools	pan	2	0	2	stars	3	correct	1.03715588076739
64103	1	stim074_animate_insect_dragonfly_2.png	74	animate	insect	dragonfly	2	0	2	stars	3	correct	1.03715588076739
64153	1	stim133_inanimate_fruits_pineapple_1.png	133	inanimate	fruits	pineapple	1	0	2	stars	3	correct	1.03715588076739
64203	1	stim069_animate_insect_butterfly_1.png	69	animate	insect	butterfly	1	0	2	stars	3	correct	1.03715588076739
64253	1	stim014_animate_aquatic_shark_2.png	14	animate	aquatic	shark	2	0	2	stars	3	correct	1.03715588076739
64303	1	stim006_animate_aquatic_fish_2.png	6	animate	aquatic	fish	2	0	2	stars	3	correct	1.03715588076739
64353	1	stim182_inanimate_tools_broom_2.png	182	inanimate	tools	broom	2	0	2	stars	3	correct	1.03715588076739
64403	1	stim072_animate_insect_butterfly_4.png	72	animate	insect	butterfly	4	0	2	stars	3	correct	1.03715588076739
64453	1	stim180_inanimate_plants_tulip_4.png	180	inanimate	plants	tulip	4	0	2	stars	3	correct	1.03715588076739
64503	1	stim195_inanimate_tools_scissors_3.png	195	inanimate	tools	scissors	3	0	2	stars	3	correct	1.03715588076739
64553	1	stim029_animate_bird_parrot_1.png	29	animate	bird	parrot	1	0	2	stars	3	correct	1.03715588076739
64603	1	stim100_animate_mammal_rhino_4.png	100	animate	mammal	rhino	4	0	2	stars	3	correct	1.03715588076739
64653	1	stim141_inanimate_furniture_bed_1.png	141	inanimate	furniture	bed	1	0	2	stars	3	correct	1.03715588076739
64703	1	stim176_inanimate_plants_tree_4.png	176	inanimate	plants	tree	4	0	2	stars	3	correct	1.03715588076739
64753	1	stim175_inanimate_plants_tree_3.png	175	inanimate	plants	tree	3	0	2	stars	3	correct	1.03715588076739
64803	1	stim119_inanimate_clothing_socks_3.png	119	inanimate	clothing	socks	3	0	2	stars	3	correct	1.03715588076739
64853	1	stim103_inanimate_clothing_gloves_3.png	103	inanimate	clothing	gloves	3	0	2	stars	3	correct	1.03715588076739
64903	1	stim188_inanimate_tools_hammer_4.png	188	inanimate	tools	hammer	4	0	2	stars	3	correct	1.03715588076739
64953	1	stim055_animate_human_faces_3.png	55	animate	human	faces	3	0	2	stars	3	correct	1.03715588076739
65003	1	stim171_inanimate_plants_sunflower_3.png	171	inanimate	plants	sunflower	3	0	2	stars	3	correct	1.03715588076739
65053	1	stim108_inanimate_clothing_hat_4.png	108	inanimate	clothing	hat	4	0	2	stars	3	correct	1.03715588076739
65103	1	stim198_inanimate_tools_wrench_2.png	198	inanimate	tools	wrench	2	0	2	stars	3	correct	1.03715588076739
65153	1	stim140_inanimate_fruits_strawberry_4.png	140	inanimate	fruits	strawberry	4	0	2	stars	3	correct	1.03715588076739
65203	1	stim148_inanimate_furniture_chair_4.png	148	inanimate	furniture	chair	4	0	2	stars	3	correct	1.03715588076739
65253	1	stim194_inanimate_tools_scissors_2.png	194	inanimate	tools	scissors	2	0	2	stars	3	correct	1.03715588076739
65303	1	stim102_inanimate_clothing_gloves_2.png	102	inanimate	clothing	gloves	2	0	2	stars	3	correct	1.03715588076739
65353	1	stim012_animate_aquatic_seahorse_4.png	12	animate	aquatic	seahorse	4	0	2	stars	3	correct	1.03715588076739
65403	1	stim215_targets_shapes_star_3.png	215	targets	shapes	star	3	1	2	stars	3	correct	1.03715588076739
65453	1	stim143_inanimate_furniture_bed_3.png	143	inanimate	furniture	bed	3	0	2	stars	3	correct	1.03715588076739
65503	1	stim173_inanimate_plants_tree_1.png	173	inanimate	plants	tree	1	0	2	stars	3	correct	1.03715588076739
65553	1	stim156_inanimate_furniture_sofa_4.png	156	inanimate	furniture	sofa	4	0	2	stars	3	correct	1.03715588076739
65603	1	stim161_inanimate_plants_bush_1.png	161	inanimate	plants	bush	1	0	2	stars	3	correct	1.03715588076739
65653	1	stim004_animate_aquatic_crab_4.png	4	animate	aquatic	crab	4	0	2	stars	3	correct	1.03715588076739
65703	1	stim177_inanimate_plants_tulip_1.png	177	inanimate	plants	tulip	1	0	2	stars	3	correct	1.03715588076739
65753	1	stim135_inanimate_fruits_pineapple_3.png	135	inanimate	fruits	pineapple	3	0	2	stars	3	correct	1.03715588076739
65803	1	stim184_inanimate_tools_broom_4.png	184	inanimate	tools	broom	4	0	2	stars	3	correct	1.03715588076739
65853	1	stim080_animate_insect_grasshopper_4.png	80	animate	insect	grasshopper	4	0	2	stars	3	correct	1.03715588076739
65903	1	stim056_animate_human_faces_4.png	56	animate	human	faces	4	0	2	stars	3	correct	1.03715588076739
65953	1	stim160_inanimate_furniture_table_4.png	160	inanimate	furniture	table	4	0	2	stars	3	correct	1.03715588076739
66003	1	stim168_inanimate_plants_cactus_4.png	168	inanimate	plants	cactus	4	0	2	stars	3	correct	1.03715588076739
66053	1	stim105_inanimate_clothing_hat_1.png	105	inanimate	clothing	hat	1	0	2	stars	3	correct	1.03715588076739
66103	1	stim011_animate_aquatic_seahorse_3.png	11	animate	aquatic	seahorse	3	0	2	stars	3	correct	1.03715588076739
66153	1	stim191_inanimate_tools_pan_3.png	191	inanimate	tools	pan	3	0	2	stars	3	correct	1.03715588076739
66203	1	stim063_animate_insect_ant_3.png	63	animate	insect	ant	3	0	2	stars	3	correct	1.03715588076739
66253	1	stim125_inanimate_fruits_banana_1.png	125	inanimate	fruits	banana	1	0	2	stars	3	correct	1.03715588076739
66303	1	stim039_animate_bird_penguin_3.png	39	animate	bird	penguin	3	0	2	stars	3	correct	1.03715588076739
66353	1	stim113_inanimate_clothing_shirt_1.png	113	inanimate	clothing	shirt	1	0	2	stars	3	correct	1.03715588076739
66403	1	stim153_inanimate_furniture_sofa_1.png	153	inanimate	furniture	sofa	1	0	2	stars	3	correct	1.03715588076739
66453	1	stim025_animate_bird_duck_1.png	25	animate	bird	duck	1	0	2	stars	3	correct	1.03715588076739
66503	1	stim120_inanimate_clothing_socks_4.png	120	inanimate	clothing	socks	4	0	2	stars	3	correct	1.03715588076739
66553	1	stim109_inanimate_clothing_jeans_1.png	109	inanimate	clothing	jeans	1	0	2	stars	3	correct	1.03715588076739
66603	1	stim040_animate_bird_penguin_4.png	40	animate	bird	penguin	4	0	2	stars	3	correct	1.03715588076739
66653	1	stim145_inanimate_furniture_chair_1.png	145	inanimate	furniture	chair	1	0	2	stars	3	correct	1.03715588076739
66703	1	stim087_animate_mammal_giraffe_3.png	87	animate	mammal	giraffe	3	0	2	stars	3	correct	1.03715588076739
66753	1	stim115_inanimate_clothing_shirt_3.png	115	inanimate	clothing	shirt	3	0	2	stars	3	correct	1.03715588076739
66803	1	stim134_inanimate_fruits_pineapple_2.png	134	inanimate	fruits	pineapple	2	0	2	stars	3	correct	1.03715588076739
66853	1	stim061_animate_insect_ant_1.png	61	animate	insect	ant	1	0	2	stars	3	correct	1.03715588076739
66903	1	stim068_animate_insect_bug_4.png	68	animate	insect	bug	4	0	2	stars	3	correct	1.03715588076739
66953	1	stim136_inanimate_fruits_pineapple_4.png	136	inanimate	fruits	pineapple	4	0	2	stars	3	correct	1.03715588076739
67003	1	stim041_animate_human_baby_1.png	41	animate	human	baby	1	0	2	stars	3	correct	1.03715588076739
67053	1	stim028_animate_bird_duck_4.png	28	animate	bird	duck	4	0	2	stars	3	correct	1.03715588076739
67103	1	stim085_animate_mammal_giraffe_1.png	85	animate	mammal	giraffe	1	0	2	stars	3	correct	1.03715588076739
67153	1	stim053_animate_human_faces_1.png	53	animate	human	faces	1	0	2	stars	3	correct	1.03715588076739
67203	1	stim130_inanimate_fruits_grape_2.png	130	inanimate	fruits	grape	2	0	2	stars	3	correct	1.03715588076739
67253	1	stim033_animate_bird_peacock_1.png	33	animate	bird	peacock	1	0	2	stars	3	correct	1.03715588076739
67303	1	stim200_inanimate_tools_wrench_4.png	200	inanimate	tools	wrench	4	0	2	stars	3	correct	1.03715588076739
67353	1	stim009_animate_aquatic_seahorse_1.png	9	animate	aquatic	seahorse	1	0	2	stars	3	correct	1.03715588076739
67403	1	stim010_animate_aquatic_seahorse_2.png	10	animate	aquatic	seahorse	2	0	2	stars	3	correct	1.03715588076739
67453	1	stim065_animate_insect_bug_1.png	65	animate	insect	bug	1	0	2	stars	3	correct	1.03715588076739
67503	1	stim187_inanimate_tools_hammer_3.png	187	inanimate	tools	hammer	3	0	2	stars	3	correct	1.03715588076739
67553	1	stim166_inanimate_plants_cactus_2.png	166	inanimate	plants	cactus	2	0	2	stars	3	correct	1.03715588076739
67603	1	stim104_inanimate_clothing_gloves_4.png	104	inanimate	clothing	gloves	4	0	2	stars	3	correct	1.03715588076739
67653	1	stim079_animate_insect_grasshopper_3.png	79	animate	insect	grasshopper	3	0	2	stars	3	correct	1.03715588076739
67703	1	stim124_inanimate_fruits_apple_4.png	124	inanimate	fruits	apple	4	0	2	stars	3	correct	1.03715588076739
67753	1	stim016_animate_aquatic_shark_4.png	16	animate	aquatic	shark	4	0	2	stars	3	correct	1.03715588076739
67803	1	stim078_animate_insect_grasshopper_2.png	78	animate	insect	grasshopper	2	0	2	stars	3	correct	1.03715588076739
67853	1	stim181_inanimate_tools_broom_1.png	181	inanimate	tools	broom	1	0	2	stars	3	correct	1.03715588076739
67903	1	stim114_inanimate_clothing_shirt_2.png	114	inanimate	clothing	shirt	2	0	2	stars	3	correct	1.03715588076739
67953	1	stim037_animate_bird_penguin_1.png	37	animate	bird	penguin	1	0	2	stars	3	correct	1.03715588076739
68003	1	stim121_inanimate_fruits_apple_1.png	121	inanimate	fruits	apple	1	0	2	stars	3	correct	1.03715588076739
68053	1	stim071_animate_insect_butterfly_3.png	71	animate	insect	butterfly	3	0	2	stars	3	correct	1.03715588076739
68103	1	stim174_inanimate_plants_tree_2.png	174	inanimate	plants	tree	2	0	2	stars	3	correct	1.03715588076739
68153	1	stim164_inanimate_plants_bush_4.png	164	inanimate	plants	bush	4	0	2	stars	3	correct	1.03715588076739
68203	1	stim090_animate_mammal_kangaroo_2.png	90	animate	mammal	kangaroo	2	0	2	stars	3	correct	1.03715588076739
68253	1	stim067_animate_insect_bug_3.png	67	animate	insect	bug	3	0	2	stars	3	correct	1.03715588076739
68303	1	stim199_inanimate_tools_wrench_3.png	199	inanimate	tools	wrench	3	0	2	stars	3	correct	1.03715588076739
68353	1	stim098_animate_mammal_rhino_2.png	98	animate	mammal	rhino	2	0	2	stars	3	correct	1.03715588076739
68403	1	stim075_animate_insect_dragonfly_3.png	75	animate	insect	dragonfly	3	0	2	stars	3	correct	1.03715588076739
68453	1	stim002_animate_aquatic_crab_2.png	2	animate	aquatic	crab	2	0	2	stars	3	correct	1.03715588076739
68503	1	stim076_animate_insect_dragonfly_4.png	76	animate	insect	dragonfly	4	0	2	stars	3	correct	1.03715588076739
68553	1	stim183_inanimate_tools_broom_3.png	183	inanimate	tools	broom	3	0	2	stars	3	correct	1.03715588076739
68603	1	stim111_inanimate_clothing_jeans_3.png	111	inanimate	clothing	jeans	3	0	2	stars	3	correct	1.03715588076739
68653	1	stim193_inanimate_tools_scissors_1.png	193	inanimate	tools	scissors	1	0	2	stars	3	correct	1.03715588076739
68703	1	stim093_animate_mammal_monkey_1.png	93	animate	mammal	monkey	1	0	2	stars	3	correct	1.03715588076739
78736	1	stim097_animate_mammal_rhino_1.png	97	animate	mammal	rhino	1	0	3	stars	2	incorrect	1.90078306826763
78786	1	stim074_animate_insect_dragonfly_2.png	74	animate	insect	dragonfly	2	0	3	stars	2	incorrect	1.90078306826763
78836	1	stim052_animate_human_clown_4.png	52	animate	human	clown	4	0	3	stars	2	incorrect	1.90078306826763
78886	1	stim036_animate_bird_peacock_4.png	36	animate	bird	peacock	4	0	3	stars	2	incorrect	1.90078306826763
78936	1	stim008_animate_aquatic_fish_4.png	8	animate	aquatic	fish	4	0	3	stars	2	incorrect	1.90078306826763
78986	1	stim171_inanimate_plants_sunflower_3.png	171	inanimate	plants	sunflower	3	0	3	stars	2	incorrect	1.90078306826763
79036	1	stim152_inanimate_furniture_closet_4.png	152	inanimate	furniture	closet	4	0	3	stars	2	incorrect	1.90078306826763
79086	1	stim026_animate_bird_duck_2.png	26	animate	bird	duck	2	0	3	stars	2	incorrect	1.90078306826763
79136	1	stim126_inanimate_fruits_banana_2.png	126	inanimate	fruits	banana	2	0	3	stars	2	incorrect	1.90078306826763
79186	1	stim140_inanimate_fruits_strawberry_4.png	140	inanimate	fruits	strawberry	4	0	3	stars	2	incorrect	1.90078306826763
79236	1	stim063_animate_insect_ant_3.png	63	animate	insect	ant	3	0	3	stars	2	incorrect	1.90078306826763
79286	1	stim177_inanimate_plants_tulip_1.png	177	inanimate	plants	tulip	1	0	3	stars	2	incorrect	1.90078306826763
79336	1	stim053_animate_human_faces_1.png	53	animate	human	faces	1	0	3	stars	2	incorrect	1.90078306826763
79386	1	stim076_animate_insect_dragonfly_4.png	76	animate	insect	dragonfly	4	0	3	stars	2	incorrect	1.90078306826763
79436	1	stim158_inanimate_furniture_table_2.png	158	inanimate	furniture	table	2	0	3	stars	2	incorrect	1.90078306826763
79486	1	stim040_animate_bird_penguin_4.png	40	animate	bird	penguin	4	0	3	stars	2	incorrect	1.90078306826763
79536	1	stim128_inanimate_fruits_banana_4.png	128	inanimate	fruits	banana	4	0	3	stars	2	incorrect	1.90078306826763
79586	1	stim096_animate_mammal_monkey_4.png	96	animate	mammal	monkey	4	0	3	stars	2	incorrect	1.90078306826763
79636	1	stim104_inanimate_clothing_gloves_4.png	104	inanimate	clothing	gloves	4	0	3	stars	2	incorrect	1.90078306826763
79686	1	stim117_inanimate_clothing_socks_1.png	117	inanimate	clothing	socks	1	0	3	stars	2	incorrect	1.90078306826763
79736	1	stim195_inanimate_tools_scissors_3.png	195	inanimate	tools	scissors	3	0	3	stars	2	incorrect	1.90078306826763
79786	1	stim054_animate_human_faces_2.png	54	animate	human	faces	2	0	3	stars	2	incorrect	1.90078306826763
79836	1	stim110_inanimate_clothing_jeans_2.png	110	inanimate	clothing	jeans	2	0	3	stars	2	incorrect	1.90078306826763
79886	1	stim131_inanimate_fruits_grape_3.png	131	inanimate	fruits	grape	3	0	3	stars	2	incorrect	1.90078306826763
79936	1	stim017_animate_aquatic_shrimp_1.png	17	animate	aquatic	shrimp	1	0	3	stars	2	incorrect	1.90078306826763
79986	1	stim009_animate_aquatic_seahorse_1.png	9	animate	aquatic	seahorse	1	0	3	stars	2	incorrect	1.90078306826763
80036	1	stim173_inanimate_plants_tree_1.png	173	inanimate	plants	tree	1	0	3	stars	2	incorrect	1.90078306826763
80086	1	stim006_animate_aquatic_fish_2.png	6	animate	aquatic	fish	2	0	3	stars	2	incorrect	1.90078306826763
80136	1	stim194_inanimate_tools_scissors_2.png	194	inanimate	tools	scissors	2	0	3	stars	2	incorrect	1.90078306826763
80186	1	stim072_animate_insect_butterfly_4.png	72	animate	insect	butterfly	4	0	3	stars	2	incorrect	1.90078306826763
80236	1	stim042_animate_human_baby_2.png	42	animate	human	baby	2	0	3	stars	2	incorrect	1.90078306826763
80286	1	stim087_animate_mammal_giraffe_3.png	87	animate	mammal	giraffe	3	0	3	stars	2	incorrect	1.90078306826763
80336	1	stim095_animate_mammal_monkey_3.png	95	animate	mammal	monkey	3	0	3	stars	2	incorrect	1.90078306826763
80386	1	stim139_inanimate_fruits_strawberry_3.png	139	inanimate	fruits	strawberry	3	0	3	stars	2	incorrect	1.90078306826763
80436	1	stim033_animate_bird_peacock_1.png	33	animate	bird	peacock	1	0	3	stars	2	incorrect	1.90078306826763
80486	1	stim088_animate_mammal_giraffe_4.png	88	animate	mammal	giraffe	4	0	3	stars	2	incorrect	1.90078306826763
80536	1	stim065_animate_insect_bug_1.png	65	animate	insect	bug	1	0	3	stars	2	incorrect	1.90078306826763
80586	1	stim178_inanimate_plants_tulip_2.png	178	inanimate	plants	tulip	2	0	3	stars	2	incorrect	1.90078306826763
80636	1	stim037_animate_bird_penguin_1.png	37	animate	bird	penguin	1	0	3	stars	2	incorrect	1.90078306826763
80686	1	stim161_inanimate_plants_bush_1.png	161	inanimate	plants	bush	1	0	3	stars	2	incorrect	1.90078306826763
80736	1	stim121_inanimate_fruits_apple_1.png	121	inanimate	fruits	apple	1	0	3	stars	2	incorrect	1.90078306826763
80786	1	stim197_inanimate_tools_wrench_1.png	197	inanimate	tools	wrench	1	0	3	stars	2	incorrect	1.90078306826763
80836	1	stim160_inanimate_furniture_table_4.png	160	inanimate	furniture	table	4	0	3	stars	2	incorrect	1.90078306826763
80886	1	stim078_animate_insect_grasshopper_2.png	78	animate	insect	grasshopper	2	0	3	stars	2	incorrect	1.90078306826763
80936	1	stim080_animate_insect_grasshopper_4.png	80	animate	insect	grasshopper	4	0	3	stars	2	incorrect	1.90078306826763
80986	1	stim050_animate_human_clown_2.png	50	animate	human	clown	2	0	3	stars	2	incorrect	1.90078306826763
81036	1	stim090_animate_mammal_kangaroo_2.png	90	animate	mammal	kangaroo	2	0	3	stars	2	incorrect	1.90078306826763
81086	1	stim187_inanimate_tools_hammer_3.png	187	inanimate	tools	hammer	3	0	3	stars	2	incorrect	1.90078306826763
81136	1	stim021_animate_bird_chicken_1.png	21	animate	bird	chicken	1	0	3	stars	2	incorrect	1.90078306826763
81186	1	stim189_inanimate_tools_pan_1.png	189	inanimate	tools	pan	1	0	3	stars	2	incorrect	1.90078306826763
81236	1	stim077_animate_insect_grasshopper_1.png	77	animate	insect	grasshopper	1	0	3	stars	2	incorrect	1.90078306826763
81286	1	stim163_inanimate_plants_bush_3.png	163	inanimate	plants	bush	3	0	3	stars	2	incorrect	1.90078306826763
81336	1	stim058_animate_human_sports_2.png	58	animate	human	sports	2	0	3	stars	2	incorrect	1.90078306826763
81386	1	stim102_inanimate_clothing_gloves_2.png	102	inanimate	clothing	gloves	2	0	3	stars	2	incorrect	1.90078306826763
81436	1	stim069_animate_insect_butterfly_1.png	69	animate	insect	butterfly	1	0	3	stars	2	incorrect	1.90078306826763
81486	1	stim068_animate_insect_bug_4.png	68	animate	insect	bug	4	0	3	stars	2	incorrect	1.90078306826763
81536	1	stim029_animate_bird_parrot_1.png	29	animate	bird	parrot	1	0	3	stars	2	incorrect	1.90078306826763
81586	1	stim099_animate_mammal_rhino_3.png	99	animate	mammal	rhino	3	0	3	stars	2	incorrect	1.90078306826763
81636	1	stim044_animate_human_baby_4.png	44	animate	human	baby	4	0	3	stars	2	incorrect	1.90078306826763
81686	1	stim024_animate_bird_chicken_4.png	24	animate	bird	chicken	4	0	3	stars	2	incorrect	1.90078306826763
81736	1	stim075_animate_insect_dragonfly_3.png	75	animate	insect	dragonfly	3	0	3	stars	2	incorrect	1.90078306826763
81786	1	stim216_targets_shapes_star_4.png	216	targets	shapes	star	4	1	3	stars	2	incorrect	1.90078306826763
81836	1	stim039_animate_bird_penguin_3.png	39	animate	bird	penguin	3	0	3	stars	2	incorrect	1.90078306826763
81886	1	stim167_inanimate_plants_cactus_3.png	167	inanimate	plants	cactus	3	0	3	stars	2	incorrect	1.90078306826763
81936	1	stim091_animate_mammal_kangaroo_3.png	91	animate	mammal	kangaroo	3	0	3	stars	2	incorrect	1.90078306826763
81986	1	stim162_inanimate_plants_bush_2.png	162	inanimate	plants	bush	2	0	3	stars	2	incorrect	1.90078306826763
82036	1	stim168_inanimate_plants_cactus_4.png	168	inanimate	plants	cactus	4	0	3	stars	2	incorrect	1.90078306826763
82086	1	stim105_inanimate_clothing_hat_1.png	105	inanimate	clothing	hat	1	0	3	stars	2	incorrect	1.90078306826763
82136	1	stim132_inanimate_fruits_grape_4.png	132	inanimate	fruits	grape	4	0	3	stars	2	incorrect	1.90078306826763
82186	1	stim048_animate_human_child_4.png	48	animate	human	child	4	0	3	stars	2	incorrect	1.90078306826763
82236	1	stim119_inanimate_clothing_socks_3.png	119	inanimate	clothing	socks	3	0	3	stars	2	incorrect	1.90078306826763
82286	1	stim007_animate_aquatic_fish_3.png	7	animate	aquatic	fish	3	0	3	stars	2	incorrect	1.90078306826763
82336	1	stim101_inanimate_clothing_gloves_1.png	101	inanimate	clothing	gloves	1	0	3	stars	2	incorrect	1.90078306826763
82386	1	stim113_inanimate_clothing_shirt_1.png	113	inanimate	clothing	shirt	1	0	3	stars	2	incorrect	1.90078306826763
82436	1	stim046_animate_human_child_2.png	46	animate	human	child	2	0	3	stars	2	incorrect	1.90078306826763
82486	1	stim127_inanimate_fruits_banana_3.png	127	inanimate	fruits	banana	3	0	3	stars	2	incorrect	1.90078306826763
82536	1	stim182_inanimate_tools_broom_2.png	182	inanimate	tools	broom	2	0	3	stars	2	incorrect	1.90078306826763
82586	1	stim106_inanimate_clothing_hat_2.png	106	inanimate	clothing	hat	2	0	3	stars	2	incorrect	1.90078306826763
82636	1	stim085_animate_mammal_giraffe_1.png	85	animate	mammal	giraffe	1	0	3	stars	2	incorrect	1.90078306826763
82686	1	stim064_animate_insect_ant_4.png	64	animate	insect	ant	4	0	3	stars	2	incorrect	1.90078306826763
82736	1	stim004_animate_aquatic_crab_4.png	4	animate	aquatic	crab	4	0	3	stars	2	incorrect	1.90078306826763
82786	1	stim003_animate_aquatic_crab_3.png	3	animate	aquatic	crab	3	0	3	stars	2	incorrect	1.90078306826763
82836	1	stim190_inanimate_tools_pan_2.png	190	inanimate	tools	pan	2	0	3	stars	2	incorrect	1.90078306826763
82886	1	stim086_animate_mammal_giraffe_2.png	86	animate	mammal	giraffe	2	0	3	stars	2	incorrect	1.90078306826763
82936	1	stim148_inanimate_furniture_chair_4.png	148	inanimate	furniture	chair	4	0	3	stars	2	incorrect	1.90078306826763
82986	1	stim129_inanimate_fruits_grape_1.png	129	inanimate	fruits	grape	1	0	3	stars	2	incorrect	1.90078306826763
83036	1	stim144_inanimate_furniture_bed_4.png	144	inanimate	furniture	bed	4	0	3	stars	2	incorrect	1.90078306826763
83086	1	stim193_inanimate_tools_scissors_1.png	193	inanimate	tools	scissors	1	0	3	stars	2	incorrect	1.90078306826763
83136	1	stim170_inanimate_plants_sunflower_2.png	170	inanimate	plants	sunflower	2	0	3	stars	2	incorrect	1.90078306826763
83186	1	stim133_inanimate_fruits_pineapple_1.png	133	inanimate	fruits	pineapple	1	0	3	stars	2	incorrect	1.90078306826763
83236	1	stim061_animate_insect_ant_1.png	61	animate	insect	ant	1	0	3	stars	2	incorrect	1.90078306826763
83287	1	stim001_animate_aquatic_crab_1.png	1	animate	aquatic	crab	1	0	3	stars	2	incorrect	1.90078306826763
83336	1	stim141_inanimate_furniture_bed_1.png	141	inanimate	furniture	bed	1	0	3	stars	2	incorrect	1.90078306826763
83386	1	stim047_animate_human_child_3.png	47	animate	human	child	3	0	3	stars	2	incorrect	1.90078306826763
83437	1	stim070_animate_insect_butterfly_2.png	70	animate	insect	butterfly	2	0	3	stars	2	incorrect	1.90078306826763
83486	1	stim124_inanimate_fruits_apple_4.png	124	inanimate	fruits	apple	4	0	3	stars	2	incorrect	1.90078306826763
83537	1	stim027_animate_bird_duck_3.png	27	animate	bird	duck	3	0	3	stars	2	incorrect	1.90078306826763
83587	1	stim212_targets_shapes_star_4.png	212	targets	shapes	star	4	1	3	stars	2	incorrect	1.90078306826763
83637	1	stim137_inanimate_fruits_strawberry_1.png	137	inanimate	fruits	strawberry	1	0	3	stars	2	incorrect	1.90078306826763
83686	1	stim166_inanimate_plants_cactus_2.png	166	inanimate	plants	cactus	2	0	3	stars	2	incorrect	1.90078306826763
83737	1	stim150_inanimate_furniture_closet_2.png	150	inanimate	furniture	closet	2	0	3	stars	2	incorrect	1.90078306826763
83787	1	stim196_inanimate_tools_scissors_4.png	196	inanimate	tools	scissors	4	0	3	stars	2	incorrect	1.90078306826763
83837	1	stim010_animate_aquatic_seahorse_2.png	10	animate	aquatic	seahorse	2	0	3	stars	2	incorrect	1.90078306826763
83887	1	stim081_animate_mammal_cow_1.png	81	animate	mammal	cow	1	0	3	stars	2	incorrect	1.90078306826763
83936	1	stim122_inanimate_fruits_apple_2.png	122	inanimate	fruits	apple	2	0	3	stars	2	incorrect	1.90078306826763
83987	1	stim174_inanimate_plants_tree_2.png	174	inanimate	plants	tree	2	0	3	stars	2	incorrect	1.90078306826763
84037	1	stim093_animate_mammal_monkey_1.png	93	animate	mammal	monkey	1	0	3	stars	2	incorrect	1.90078306826763
84087	1	stim142_inanimate_furniture_bed_2.png	142	inanimate	furniture	bed	2	0	3	stars	2	incorrect	1.90078306826763
84137	1	stim130_inanimate_fruits_grape_2.png	130	inanimate	fruits	grape	2	0	3	stars	2	incorrect	1.90078306826763
84186	1	stim159_inanimate_furniture_table_3.png	159	inanimate	furniture	table	3	0	3	stars	2	incorrect	1.90078306826763
84237	1	stim073_animate_insect_dragonfly_1.png	73	animate	insect	dragonfly	1	0	3	stars	2	incorrect	1.90078306826763
84287	1	stim143_inanimate_furniture_bed_3.png	143	inanimate	furniture	bed	3	0	3	stars	2	incorrect	1.90078306826763
84337	1	stim151_inanimate_furniture_closet_3.png	151	inanimate	furniture	closet	3	0	3	stars	2	incorrect	1.90078306826763
84387	1	stim154_inanimate_furniture_sofa_2.png	154	inanimate	furniture	sofa	2	0	3	stars	2	incorrect	1.90078306826763
84437	1	stim019_animate_aquatic_shrimp_3.png	19	animate	aquatic	shrimp	3	0	3	stars	2	incorrect	1.90078306826763
84487	1	stim060_animate_human_sports_4.png	60	animate	human	sports	4	0	3	stars	2	incorrect	1.90078306826763
84537	1	stim169_inanimate_plants_sunflower_1.png	169	inanimate	plants	sunflower	1	0	3	stars	2	incorrect	1.90078306826763
84587	1	stim155_inanimate_furniture_sofa_3.png	155	inanimate	furniture	sofa	3	0	3	stars	2	incorrect	1.90078306826763
84637	1	stim200_inanimate_tools_wrench_4.png	200	inanimate	tools	wrench	4	0	3	stars	2	incorrect	1.90078306826763
84687	1	stim092_animate_mammal_kangaroo_4.png	92	animate	mammal	kangaroo	4	0	3	stars	2	incorrect	1.90078306826763
84737	1	stim191_inanimate_tools_pan_3.png	191	inanimate	tools	pan	3	0	3	stars	2	incorrect	1.90078306826763
84787	1	stim056_animate_human_faces_4.png	56	animate	human	faces	4	0	3	stars	2	incorrect	1.90078306826763
84837	1	stim011_animate_aquatic_seahorse_3.png	11	animate	aquatic	seahorse	3	0	3	stars	2	incorrect	1.90078306826763
84887	1	stim012_animate_aquatic_seahorse_4.png	12	animate	aquatic	seahorse	4	0	3	stars	2	incorrect	1.90078306826763
84937	1	stim145_inanimate_furniture_chair_1.png	145	inanimate	furniture	chair	1	0	3	stars	2	incorrect	1.90078306826763
84987	1	stim057_animate_human_sports_1.png	57	animate	human	sports	1	0	3	stars	2	incorrect	1.90078306826763
85037	1	stim186_inanimate_tools_hammer_2.png	186	inanimate	tools	hammer	2	0	3	stars	2	incorrect	1.90078306826763
85087	1	stim115_inanimate_clothing_shirt_3.png	115	inanimate	clothing	shirt	3	0	3	stars	2	incorrect	1.90078306826763
85137	1	stim125_inanimate_fruits_banana_1.png	125	inanimate	fruits	banana	1	0	3	stars	2	incorrect	1.90078306826763
85187	1	stim059_animate_human_sports_3.png	59	animate	human	sports	3	0	3	stars	2	incorrect	1.90078306826763
85237	1	stim038_animate_bird_penguin_2.png	38	animate	bird	penguin	2	0	3	stars	2	incorrect	1.90078306826763
85287	1	stim156_inanimate_furniture_sofa_4.png	156	inanimate	furniture	sofa	4	0	3	stars	2	incorrect	1.90078306826763
85337	1	stim020_animate_aquatic_shrimp_4.png	20	animate	aquatic	shrimp	4	0	3	stars	2	incorrect	1.90078306826763
85387	1	stim123_inanimate_fruits_apple_3.png	123	inanimate	fruits	apple	3	0	3	stars	2	incorrect	1.90078306826763
85437	1	stim135_inanimate_fruits_pineapple_3.png	135	inanimate	fruits	pineapple	3	0	3	stars	2	incorrect	1.90078306826763
85487	1	stim066_animate_insect_bug_2.png	66	animate	insect	bug	2	0	3	stars	2	incorrect	1.90078306826763
85537	1	stim183_inanimate_tools_broom_3.png	183	inanimate	tools	broom	3	0	3	stars	2	incorrect	1.90078306826763
85587	1	stim016_animate_aquatic_shark_4.png	16	animate	aquatic	shark	4	0	3	stars	2	incorrect	1.90078306826763
85637	1	stim209_targets_shapes_star_1.png	209	targets	shapes	star	1	1	3	stars	2	incorrect	1.90078306826763
85687	1	stim147_inanimate_furniture_chair_3.png	147	inanimate	furniture	chair	3	0	3	stars	2	incorrect	1.90078306826763
85737	1	stim002_animate_aquatic_crab_2.png	2	animate	aquatic	crab	2	0	3	stars	2	incorrect	1.90078306826763
85787	1	stim172_inanimate_plants_sunflower_4.png	172	inanimate	plants	sunflower	4	0	3	stars	2	incorrect	1.90078306826763
85837	1	stim041_animate_human_baby_1.png	41	animate	human	baby	1	0	3	stars	2	incorrect	1.90078306826763
85887	1	stim071_animate_insect_butterfly_3.png	71	animate	insect	butterfly	3	0	3	stars	2	incorrect	1.90078306826763
85937	1	stim134_inanimate_fruits_pineapple_2.png	134	inanimate	fruits	pineapple	2	0	3	stars	2	incorrect	1.90078306826763
85987	1	stim035_animate_bird_peacock_3.png	35	animate	bird	peacock	3	0	3	stars	2	incorrect	1.90078306826763
86037	1	stim049_animate_human_clown_1.png	49	animate	human	clown	1	0	3	stars	2	incorrect	1.90078306826763
86087	1	stim013_animate_aquatic_shark_1.png	13	animate	aquatic	shark	1	0	3	stars	2	incorrect	1.90078306826763
86137	1	stim028_animate_bird_duck_4.png	28	animate	bird	duck	4	0	3	stars	2	incorrect	1.90078306826763
86187	1	stim149_inanimate_furniture_closet_1.png	149	inanimate	furniture	closet	1	0	3	stars	2	incorrect	1.90078306826763
86237	1	stim175_inanimate_plants_tree_3.png	175	inanimate	plants	tree	3	0	3	stars	2	incorrect	1.90078306826763
86287	1	stim164_inanimate_plants_bush_4.png	164	inanimate	plants	bush	4	0	3	stars	2	incorrect	1.90078306826763
86337	1	stim032_animate_bird_parrot_4.png	32	animate	bird	parrot	4	0	3	stars	2	incorrect	1.90078306826763
86387	1	stim098_animate_mammal_rhino_2.png	98	animate	mammal	rhino	2	0	3	stars	2	incorrect	1.90078306826763
86437	1	stim034_animate_bird_peacock_2.png	34	animate	bird	peacock	2	0	3	stars	2	incorrect	1.90078306826763
86487	1	stim199_inanimate_tools_wrench_3.png	199	inanimate	tools	wrench	3	0	3	stars	2	incorrect	1.90078306826763
86537	1	stim083_animate_mammal_cow_3.png	83	animate	mammal	cow	3	0	3	stars	2	incorrect	1.90078306826763
86587	1	stim051_animate_human_clown_3.png	51	animate	human	clown	3	0	3	stars	2	incorrect	1.90078306826763
86637	1	stim005_animate_aquatic_fish_1.png	5	animate	aquatic	fish	1	0	3	stars	2	incorrect	1.90078306826763
86687	1	stim198_inanimate_tools_wrench_2.png	198	inanimate	tools	wrench	2	0	3	stars	2	incorrect	1.90078306826763
86737	1	stim146_inanimate_furniture_chair_2.png	146	inanimate	furniture	chair	2	0	3	stars	2	incorrect	1.90078306826763
86787	1	stim138_inanimate_fruits_strawberry_2.png	138	inanimate	fruits	strawberry	2	0	3	stars	2	incorrect	1.90078306826763
86837	1	stim094_animate_mammal_monkey_2.png	94	animate	mammal	monkey	2	0	3	stars	2	incorrect	1.90078306826763
86887	1	stim023_animate_bird_chicken_3.png	23	animate	bird	chicken	3	0	3	stars	2	incorrect	1.90078306826763
86937	1	stim181_inanimate_tools_broom_1.png	181	inanimate	tools	broom	1	0	3	stars	2	incorrect	1.90078306826763
86987	1	stim045_animate_human_child_1.png	45	animate	human	child	1	0	3	stars	2	incorrect	1.90078306826763
87037	1	stim153_inanimate_furniture_sofa_1.png	153	inanimate	furniture	sofa	1	0	3	stars	2	incorrect	1.90078306826763
87087	1	stim103_inanimate_clothing_gloves_3.png	103	inanimate	clothing	gloves	3	0	3	stars	2	incorrect	1.90078306826763
87137	1	stim018_animate_aquatic_shrimp_2.png	18	animate	aquatic	shrimp	2	0	3	stars	2	incorrect	1.90078306826763
87187	1	stim108_inanimate_clothing_hat_4.png	108	inanimate	clothing	hat	4	0	3	stars	2	incorrect	1.90078306826763
87237	1	stim192_inanimate_tools_pan_4.png	192	inanimate	tools	pan	4	0	3	stars	2	incorrect	1.90078306826763
87287	1	stim014_animate_aquatic_shark_2.png	14	animate	aquatic	shark	2	0	3	stars	2	incorrect	1.90078306826763
87337	1	stim109_inanimate_clothing_jeans_1.png	109	inanimate	clothing	jeans	1	0	3	stars	2	incorrect	1.90078306826763
87387	1	stim188_inanimate_tools_hammer_4.png	188	inanimate	tools	hammer	4	0	3	stars	2	incorrect	1.90078306826763
87437	1	stim120_inanimate_clothing_socks_4.png	120	inanimate	clothing	socks	4	0	3	stars	2	incorrect	1.90078306826763
87487	1	stim112_inanimate_clothing_jeans_4.png	112	inanimate	clothing	jeans	4	0	3	stars	2	incorrect	1.90078306826763
87537	1	stim118_inanimate_clothing_socks_2.png	118	inanimate	clothing	socks	2	0	3	stars	2	incorrect	1.90078306826763
87587	1	stim030_animate_bird_parrot_2.png	30	animate	bird	parrot	2	0	3	stars	2	incorrect	1.90078306826763
87637	1	stim015_animate_aquatic_shark_3.png	15	animate	aquatic	shark	3	0	3	stars	2	incorrect	1.90078306826763
87687	1	stim185_inanimate_tools_hammer_1.png	185	inanimate	tools	hammer	1	0	3	stars	2	incorrect	1.90078306826763
87737	1	stim184_inanimate_tools_broom_4.png	184	inanimate	tools	broom	4	0	3	stars	2	incorrect	1.90078306826763
87787	1	stim111_inanimate_clothing_jeans_3.png	111	inanimate	clothing	jeans	3	0	3	stars	2	incorrect	1.90078306826763
87837	1	stim067_animate_insect_bug_3.png	67	animate	insect	bug	3	0	3	stars	2	incorrect	1.90078306826763
87887	1	stim180_inanimate_plants_tulip_4.png	180	inanimate	plants	tulip	4	0	3	stars	2	incorrect	1.90078306826763
87937	1	stim082_animate_mammal_cow_2.png	82	animate	mammal	cow	2	0	3	stars	2	incorrect	1.90078306826763
87987	1	stim157_inanimate_furniture_table_1.png	157	inanimate	furniture	table	1	0	3	stars	2	incorrect	1.90078306826763
88037	1	stim179_inanimate_plants_tulip_3.png	179	inanimate	plants	tulip	3	0	3	stars	2	incorrect	1.90078306826763
88087	1	stim055_animate_human_faces_3.png	55	animate	human	faces	3	0	3	stars	2	incorrect	1.90078306826763
88137	1	stim136_inanimate_fruits_pineapple_4.png	136	inanimate	fruits	pineapple	4	0	3	stars	2	incorrect	1.90078306826763
88187	1	stim025_animate_bird_duck_1.png	25	animate	bird	duck	1	0	3	stars	2	incorrect	1.90078306826763
88237	1	stim176_inanimate_plants_tree_4.png	176	inanimate	plants	tree	4	0	3	stars	2	incorrect	1.90078306826763
88287	1	stim165_inanimate_plants_cactus_1.png	165	inanimate	plants	cactus	1	0	3	stars	2	incorrect	1.90078306826763
88337	1	stim107_inanimate_clothing_hat_3.png	107	inanimate	clothing	hat	3	0	3	stars	2	incorrect	1.90078306826763
88387	1	stim084_animate_mammal_cow_4.png	84	animate	mammal	cow	4	0	3	stars	2	incorrect	1.90078306826763
88437	1	stim089_animate_mammal_kangaroo_1.png	89	animate	mammal	kangaroo	1	0	3	stars	2	incorrect	1.90078306826763
88487	1	stim100_animate_mammal_rhino_4.png	100	animate	mammal	rhino	4	0	3	stars	2	incorrect	1.90078306826763
88537	1	stim031_animate_bird_parrot_3.png	31	animate	bird	parrot	3	0	3	stars	2	incorrect	1.90078306826763
88587	1	stim114_inanimate_clothing_shirt_2.png	114	inanimate	clothing	shirt	2	0	3	stars	2	incorrect	1.90078306826763
88637	1	stim079_animate_insect_grasshopper_3.png	79	animate	insect	grasshopper	3	0	3	stars	2	incorrect	1.90078306826763
88687	1	stim043_animate_human_baby_3.png	43	animate	human	baby	3	0	3	stars	2	incorrect	1.90078306826763
88737	1	stim116_inanimate_clothing_shirt_4.png	116	inanimate	clothing	shirt	4	0	3	stars	2	incorrect	1.90078306826763
88787	1	stim022_animate_bird_chicken_2.png	22	animate	bird	chicken	2	0	3	stars	2	incorrect	1.90078306826763
88837	1	stim062_animate_insect_ant_2.png	62	animate	insect	ant	2	0	3	stars	2	incorrect	1.90078306826763
104270	1	stim059_animate_human_sports_3.png	59	animate	human	sports	3	0	4	boats	3	correct	1.08408170746407
104320	1	stim085_animate_mammal_giraffe_1.png	85	animate	mammal	giraffe	1	0	4	boats	3	correct	1.08408170746407
104370	1	stim064_animate_insect_ant_4.png	64	animate	insect	ant	4	0	4	boats	3	correct	1.08408170746407
104420	1	stim079_animate_insect_grasshopper_3.png	79	animate	insect	grasshopper	3	0	4	boats	3	correct	1.08408170746407
104470	1	stim151_inanimate_furniture_closet_3.png	151	inanimate	furniture	closet	3	0	4	boats	3	correct	1.08408170746407
104520	1	stim124_inanimate_fruits_apple_4.png	124	inanimate	fruits	apple	4	0	4	boats	3	correct	1.08408170746407
104570	1	stim108_inanimate_clothing_hat_4.png	108	inanimate	clothing	hat	4	0	4	boats	3	correct	1.08408170746407
104620	1	stim191_inanimate_tools_pan_3.png	191	inanimate	tools	pan	3	0	4	boats	3	correct	1.08408170746407
104670	1	stim065_animate_insect_bug_1.png	65	animate	insect	bug	1	0	4	boats	3	correct	1.08408170746407
104720	1	stim164_inanimate_plants_bush_4.png	164	inanimate	plants	bush	4	0	4	boats	3	correct	1.08408170746407
104770	1	stim072_animate_insect_butterfly_4.png	72	animate	insect	butterfly	4	0	4	boats	3	correct	1.08408170746407
104820	1	stim173_inanimate_plants_tree_1.png	173	inanimate	plants	tree	1	0	4	boats	3	correct	1.08408170746407
104870	1	stim025_animate_bird_duck_1.png	25	animate	bird	duck	1	0	4	boats	3	correct	1.08408170746407
104920	1	stim129_inanimate_fruits_grape_1.png	129	inanimate	fruits	grape	1	0	4	boats	3	correct	1.08408170746407
104970	1	stim143_inanimate_furniture_bed_3.png	143	inanimate	furniture	bed	3	0	4	boats	3	correct	1.08408170746407
105020	1	stim092_animate_mammal_kangaroo_4.png	92	animate	mammal	kangaroo	4	0	4	boats	3	correct	1.08408170746407
105070	1	stim008_animate_aquatic_fish_4.png	8	animate	aquatic	fish	4	0	4	boats	3	correct	1.08408170746407
105120	1	stim111_inanimate_clothing_jeans_3.png	111	inanimate	clothing	jeans	3	0	4	boats	3	correct	1.08408170746407
105170	1	stim107_inanimate_clothing_hat_3.png	107	inanimate	clothing	hat	3	0	4	boats	3	correct	1.08408170746407
105220	1	stim153_inanimate_furniture_sofa_1.png	153	inanimate	furniture	sofa	1	0	4	boats	3	correct	1.08408170746407
105270	1	stim178_inanimate_plants_tulip_2.png	178	inanimate	plants	tulip	2	0	4	boats	3	correct	1.08408170746407
105320	1	stim063_animate_insect_ant_3.png	63	animate	insect	ant	3	0	4	boats	3	correct	1.08408170746407
105370	1	stim075_animate_insect_dragonfly_3.png	75	animate	insect	dragonfly	3	0	4	boats	3	correct	1.08408170746407
105420	1	stim162_inanimate_plants_bush_2.png	162	inanimate	plants	bush	2	0	4	boats	3	correct	1.08408170746407
105470	1	stim089_animate_mammal_kangaroo_1.png	89	animate	mammal	kangaroo	1	0	4	boats	3	correct	1.08408170746407
105520	1	stim171_inanimate_plants_sunflower_3.png	171	inanimate	plants	sunflower	3	0	4	boats	3	correct	1.08408170746407
105570	1	stim040_animate_bird_penguin_4.png	40	animate	bird	penguin	4	0	4	boats	3	correct	1.08408170746407
105620	1	stim123_inanimate_fruits_apple_3.png	123	inanimate	fruits	apple	3	0	4	boats	3	correct	1.08408170746407
105670	1	stim045_animate_human_child_1.png	45	animate	human	child	1	0	4	boats	3	correct	1.08408170746407
105720	1	stim094_animate_mammal_monkey_2.png	94	animate	mammal	monkey	2	0	4	boats	3	correct	1.08408170746407
105770	1	stim152_inanimate_furniture_closet_4.png	152	inanimate	furniture	closet	4	0	4	boats	3	correct	1.08408170746407
105820	1	stim127_inanimate_fruits_banana_3.png	127	inanimate	fruits	banana	3	0	4	boats	3	correct	1.08408170746407
105870	1	stim189_inanimate_tools_pan_1.png	189	inanimate	tools	pan	1	0	4	boats	3	correct	1.08408170746407
105920	1	stim081_animate_mammal_cow_1.png	81	animate	mammal	cow	1	0	4	boats	3	correct	1.08408170746407
105970	1	stim086_animate_mammal_giraffe_2.png	86	animate	mammal	giraffe	2	0	4	boats	3	correct	1.08408170746407
106020	1	stim004_animate_aquatic_crab_4.png	4	animate	aquatic	crab	4	0	4	boats	3	correct	1.08408170746407
106070	1	stim176_inanimate_plants_tree_4.png	176	inanimate	plants	tree	4	0	4	boats	3	correct	1.08408170746407
106120	1	stim031_animate_bird_parrot_3.png	31	animate	bird	parrot	3	0	4	boats	3	correct	1.08408170746407
106170	1	stim110_inanimate_clothing_jeans_2.png	110	inanimate	clothing	jeans	2	0	4	boats	3	correct	1.08408170746407
106220	1	stim169_inanimate_plants_sunflower_1.png	169	inanimate	plants	sunflower	1	0	4	boats	3	correct	1.08408170746407
106270	1	stim190_inanimate_tools_pan_2.png	190	inanimate	tools	pan	2	0	4	boats	3	correct	1.08408170746407
106320	1	stim194_inanimate_tools_scissors_2.png	194	inanimate	tools	scissors	2	0	4	boats	3	correct	1.08408170746407
106370	1	stim049_animate_human_clown_1.png	49	animate	human	clown	1	0	4	boats	3	correct	1.08408170746407
106420	1	stim157_inanimate_furniture_table_1.png	157	inanimate	furniture	table	1	0	4	boats	3	correct	1.08408170746407
106470	1	stim023_animate_bird_chicken_3.png	23	animate	bird	chicken	3	0	4	boats	3	correct	1.08408170746407
106520	1	stim156_inanimate_furniture_sofa_4.png	156	inanimate	furniture	sofa	4	0	4	boats	3	correct	1.08408170746407
106570	1	stim177_inanimate_plants_tulip_1.png	177	inanimate	plants	tulip	1	0	4	boats	3	correct	1.08408170746407
106620	1	stim087_animate_mammal_giraffe_3.png	87	animate	mammal	giraffe	3	0	4	boats	3	correct	1.08408170746407
106670	1	stim116_inanimate_clothing_shirt_4.png	116	inanimate	clothing	shirt	4	0	4	boats	3	correct	1.08408170746407
106720	1	stim163_inanimate_plants_bush_3.png	163	inanimate	plants	bush	3	0	4	boats	3	correct	1.08408170746407
106770	1	stim208_targets_object_boats_4.png	208	targets	object	boats	4	1	4	boats	3	correct	1.08408170746407
106820	1	stim083_animate_mammal_cow_3.png	83	animate	mammal	cow	3	0	4	boats	3	correct	1.08408170746407
106870	1	stim146_inanimate_furniture_chair_2.png	146	inanimate	furniture	chair	2	0	4	boats	3	correct	1.08408170746407
106920	1	stim113_inanimate_clothing_shirt_1.png	113	inanimate	clothing	shirt	1	0	4	boats	3	correct	1.08408170746407
106970	1	stim100_animate_mammal_rhino_4.png	100	animate	mammal	rhino	4	0	4	boats	3	correct	1.08408170746407
107020	1	stim199_inanimate_tools_wrench_3.png	199	inanimate	tools	wrench	3	0	4	boats	3	correct	1.08408170746407
107070	1	stim165_inanimate_plants_cactus_1.png	165	inanimate	plants	cactus	1	0	4	boats	3	correct	1.08408170746407
107120	1	stim187_inanimate_tools_hammer_3.png	187	inanimate	tools	hammer	3	0	4	boats	3	correct	1.08408170746407
107170	1	stim016_animate_aquatic_shark_4.png	16	animate	aquatic	shark	4	0	4	boats	3	correct	1.08408170746407
107220	1	stim168_inanimate_plants_cactus_4.png	168	inanimate	plants	cactus	4	0	4	boats	3	correct	1.08408170746407
107270	1	stim144_inanimate_furniture_bed_4.png	144	inanimate	furniture	bed	4	0	4	boats	3	correct	1.08408170746407
107320	1	stim035_animate_bird_peacock_3.png	35	animate	bird	peacock	3	0	4	boats	3	correct	1.08408170746407
107370	1	stim015_animate_aquatic_shark_3.png	15	animate	aquatic	shark	3	0	4	boats	3	correct	1.08408170746407
107420	1	stim041_animate_human_baby_1.png	41	animate	human	baby	1	0	4	boats	3	correct	1.08408170746407
107470	1	stim192_inanimate_tools_pan_4.png	192	inanimate	tools	pan	4	0	4	boats	3	correct	1.08408170746407
107520	1	stim175_inanimate_plants_tree_3.png	175	inanimate	plants	tree	3	0	4	boats	3	correct	1.08408170746407
107570	1	stim032_animate_bird_parrot_4.png	32	animate	bird	parrot	4	0	4	boats	3	correct	1.08408170746407
107620	1	stim141_inanimate_furniture_bed_1.png	141	inanimate	furniture	bed	1	0	4	boats	3	correct	1.08408170746407
107670	1	stim074_animate_insect_dragonfly_2.png	74	animate	insect	dragonfly	2	0	4	boats	3	correct	1.08408170746407
107720	1	stim077_animate_insect_grasshopper_1.png	77	animate	insect	grasshopper	1	0	4	boats	3	correct	1.08408170746407
107770	1	stim026_animate_bird_duck_2.png	26	animate	bird	duck	2	0	4	boats	3	correct	1.08408170746407
107820	1	stim104_inanimate_clothing_gloves_4.png	104	inanimate	clothing	gloves	4	0	4	boats	3	correct	1.08408170746407
107870	1	stim166_inanimate_plants_cactus_2.png	166	inanimate	plants	cactus	2	0	4	boats	3	correct	1.08408170746407
107920	1	stim011_animate_aquatic_seahorse_3.png	11	animate	aquatic	seahorse	3	0	4	boats	3	correct	1.08408170746407
107970	1	stim185_inanimate_tools_hammer_1.png	185	inanimate	tools	hammer	1	0	4	boats	3	correct	1.08408170746407
108020	1	stim170_inanimate_plants_sunflower_2.png	170	inanimate	plants	sunflower	2	0	4	boats	3	correct	1.08408170746407
108070	1	stim128_inanimate_fruits_banana_4.png	128	inanimate	fruits	banana	4	0	4	boats	3	correct	1.08408170746407
108120	1	stim054_animate_human_faces_2.png	54	animate	human	faces	2	0	4	boats	3	correct	1.08408170746407
108170	1	stim121_inanimate_fruits_apple_1.png	121	inanimate	fruits	apple	1	0	4	boats	3	correct	1.08408170746407
108220	1	stim181_inanimate_tools_broom_1.png	181	inanimate	tools	broom	1	0	4	boats	3	correct	1.08408170746407
108270	1	stim105_inanimate_clothing_hat_1.png	105	inanimate	clothing	hat	1	0	4	boats	3	correct	1.08408170746407
108320	1	stim159_inanimate_furniture_table_3.png	159	inanimate	furniture	table	3	0	4	boats	3	correct	1.08408170746407
108370	1	stim003_animate_aquatic_crab_3.png	3	animate	aquatic	crab	3	0	4	boats	3	correct	1.08408170746407
108420	1	stim174_inanimate_plants_tree_2.png	174	inanimate	plants	tree	2	0	4	boats	3	correct	1.08408170746407
108470	1	stim044_animate_human_baby_4.png	44	animate	human	baby	4	0	4	boats	3	correct	1.08408170746407
108520	1	stim057_animate_human_sports_1.png	57	animate	human	sports	1	0	4	boats	3	correct	1.08408170746407
108570	1	stim088_animate_mammal_giraffe_4.png	88	animate	mammal	giraffe	4	0	4	boats	3	correct	1.08408170746407
108620	1	stim014_animate_aquatic_shark_2.png	14	animate	aquatic	shark	2	0	4	boats	3	correct	1.08408170746407
108670	1	stim022_animate_bird_chicken_2.png	22	animate	bird	chicken	2	0	4	boats	3	correct	1.08408170746407
108720	1	stim013_animate_aquatic_shark_1.png	13	animate	aquatic	shark	1	0	4	boats	3	correct	1.08408170746407
108770	1	stim188_inanimate_tools_hammer_4.png	188	inanimate	tools	hammer	4	0	4	boats	3	correct	1.08408170746407
108820	1	stim093_animate_mammal_monkey_1.png	93	animate	mammal	monkey	1	0	4	boats	3	correct	1.08408170746407
108870	1	stim112_inanimate_clothing_jeans_4.png	112	inanimate	clothing	jeans	4	0	4	boats	3	correct	1.08408170746407
108920	1	stim082_animate_mammal_cow_2.png	82	animate	mammal	cow	2	0	4	boats	3	correct	1.08408170746407
108970	1	stim184_inanimate_tools_broom_4.png	184	inanimate	tools	broom	4	0	4	boats	3	correct	1.08408170746407
109020	1	stim058_animate_human_sports_2.png	58	animate	human	sports	2	0	4	boats	3	correct	1.08408170746407
109070	1	stim096_animate_mammal_monkey_4.png	96	animate	mammal	monkey	4	0	4	boats	3	correct	1.08408170746407
109120	1	stim099_animate_mammal_rhino_3.png	99	animate	mammal	rhino	3	0	4	boats	3	correct	1.08408170746407
109170	1	stim147_inanimate_furniture_chair_3.png	147	inanimate	furniture	chair	3	0	4	boats	3	correct	1.08408170746407
109220	1	stim001_animate_aquatic_crab_1.png	1	animate	aquatic	crab	1	0	4	boats	3	correct	1.08408170746407
109270	1	stim155_inanimate_furniture_sofa_3.png	155	inanimate	furniture	sofa	3	0	4	boats	3	correct	1.08408170746407
109320	1	stim200_inanimate_tools_wrench_4.png	200	inanimate	tools	wrench	4	0	4	boats	3	correct	1.08408170746407
109370	1	stim140_inanimate_fruits_strawberry_4.png	140	inanimate	fruits	strawberry	4	0	4	boats	3	correct	1.08408170746407
109420	1	stim009_animate_aquatic_seahorse_1.png	9	animate	aquatic	seahorse	1	0	4	boats	3	correct	1.08408170746407
109470	1	stim202_targets_object_boats_2.png	202	targets	object	boats	2	1	4	boats	3	correct	1.08408170746407
109520	1	stim018_animate_aquatic_shrimp_2.png	18	animate	aquatic	shrimp	2	0	4	boats	3	correct	1.08408170746407
109570	1	stim052_animate_human_clown_4.png	52	animate	human	clown	4	0	4	boats	3	correct	1.08408170746407
109620	1	stim117_inanimate_clothing_socks_1.png	117	inanimate	clothing	socks	1	0	4	boats	3	correct	1.08408170746407
109670	1	stim106_inanimate_clothing_hat_2.png	106	inanimate	clothing	hat	2	0	4	boats	3	correct	1.08408170746407
109720	1	stim145_inanimate_furniture_chair_1.png	145	inanimate	furniture	chair	1	0	4	boats	3	correct	1.08408170746407
109770	1	stim071_animate_insect_butterfly_3.png	71	animate	insect	butterfly	3	0	4	boats	3	correct	1.08408170746407
109820	1	stim119_inanimate_clothing_socks_3.png	119	inanimate	clothing	socks	3	0	4	boats	3	correct	1.08408170746407
109870	1	stim131_inanimate_fruits_grape_3.png	131	inanimate	fruits	grape	3	0	4	boats	3	correct	1.08408170746407
109920	1	stim142_inanimate_furniture_bed_2.png	142	inanimate	furniture	bed	2	0	4	boats	3	correct	1.08408170746407
109970	1	stim061_animate_insect_ant_1.png	61	animate	insect	ant	1	0	4	boats	3	correct	1.08408170746407
110020	1	stim067_animate_insect_bug_3.png	67	animate	insect	bug	3	0	4	boats	3	correct	1.08408170746407
110070	1	stim048_animate_human_child_4.png	48	animate	human	child	4	0	4	boats	3	correct	1.08408170746407
110120	1	stim080_animate_insect_grasshopper_4.png	80	animate	insect	grasshopper	4	0	4	boats	3	correct	1.08408170746407
110170	1	stim070_animate_insect_butterfly_2.png	70	animate	insect	butterfly	2	0	4	boats	3	correct	1.08408170746407
110220	1	stim034_animate_bird_peacock_2.png	34	animate	bird	peacock	2	0	4	boats	3	correct	1.08408170746407
110270	1	stim029_animate_bird_parrot_1.png	29	animate	bird	parrot	1	0	4	boats	3	correct	1.08408170746407
110320	1	stim066_animate_insect_bug_2.png	66	animate	insect	bug	2	0	4	boats	3	correct	1.08408170746407
110370	1	stim046_animate_human_child_2.png	46	animate	human	child	2	0	4	boats	3	correct	1.08408170746407
110420	1	stim024_animate_bird_chicken_4.png	24	animate	bird	chicken	4	0	4	boats	3	correct	1.08408170746407
110470	1	stim038_animate_bird_penguin_2.png	38	animate	bird	penguin	2	0	4	boats	3	correct	1.08408170746407
110520	1	stim137_inanimate_fruits_strawberry_1.png	137	inanimate	fruits	strawberry	1	0	4	boats	3	correct	1.08408170746407
110570	1	stim114_inanimate_clothing_shirt_2.png	114	inanimate	clothing	shirt	2	0	4	boats	3	correct	1.08408170746407
110620	1	stim102_inanimate_clothing_gloves_2.png	102	inanimate	clothing	gloves	2	0	4	boats	3	correct	1.08408170746407
110670	1	stim097_animate_mammal_rhino_1.png	97	animate	mammal	rhino	1	0	4	boats	3	correct	1.08408170746407
110720	1	stim154_inanimate_furniture_sofa_2.png	154	inanimate	furniture	sofa	2	0	4	boats	3	correct	1.08408170746407
110770	1	stim050_animate_human_clown_2.png	50	animate	human	clown	2	0	4	boats	3	correct	1.08408170746407
110820	1	stim134_inanimate_fruits_pineapple_2.png	134	inanimate	fruits	pineapple	2	0	4	boats	3	correct	1.08408170746407
110870	1	stim028_animate_bird_duck_4.png	28	animate	bird	duck	4	0	4	boats	3	correct	1.08408170746407
110920	1	stim132_inanimate_fruits_grape_4.png	132	inanimate	fruits	grape	4	0	4	boats	3	correct	1.08408170746407
110970	1	stim051_animate_human_clown_3.png	51	animate	human	clown	3	0	4	boats	3	correct	1.08408170746407
111020	1	stim136_inanimate_fruits_pineapple_4.png	136	inanimate	fruits	pineapple	4	0	4	boats	3	correct	1.08408170746407
111070	1	stim179_inanimate_plants_tulip_3.png	179	inanimate	plants	tulip	3	0	4	boats	3	correct	1.08408170746407
111120	1	stim073_animate_insect_dragonfly_1.png	73	animate	insect	dragonfly	1	0	4	boats	3	correct	1.08408170746407
111170	1	stim196_inanimate_tools_scissors_4.png	196	inanimate	tools	scissors	4	0	4	boats	3	correct	1.08408170746407
111220	1	stim036_animate_bird_peacock_4.png	36	animate	bird	peacock	4	0	4	boats	3	correct	1.08408170746407
111270	1	stim017_animate_aquatic_shrimp_1.png	17	animate	aquatic	shrimp	1	0	4	boats	3	correct	1.08408170746407
111320	1	stim139_inanimate_fruits_strawberry_3.png	139	inanimate	fruits	strawberry	3	0	4	boats	3	correct	1.08408170746407
111370	1	stim133_inanimate_fruits_pineapple_1.png	133	inanimate	fruits	pineapple	1	0	4	boats	3	correct	1.08408170746407
111420	1	stim019_animate_aquatic_shrimp_3.png	19	animate	aquatic	shrimp	3	0	4	boats	3	correct	1.08408170746407
111470	1	stim206_targets_object_boats_2.png	206	targets	object	boats	2	1	4	boats	3	correct	1.08408170746407
111520	1	stim126_inanimate_fruits_banana_2.png	126	inanimate	fruits	banana	2	0	4	boats	3	correct	1.08408170746407
111570	1	stim005_animate_aquatic_fish_1.png	5	animate	aquatic	fish	1	0	4	boats	3	correct	1.08408170746407
111620	1	stim056_animate_human_faces_4.png	56	animate	human	faces	4	0	4	boats	3	correct	1.08408170746407
111670	1	stim006_animate_aquatic_fish_2.png	6	animate	aquatic	fish	2	0	4	boats	3	correct	1.08408170746407
111720	1	stim095_animate_mammal_monkey_3.png	95	animate	mammal	monkey	3	0	4	boats	3	correct	1.08408170746407
111770	1	stim068_animate_insect_bug_4.png	68	animate	insect	bug	4	0	4	boats	3	correct	1.08408170746407
111820	1	stim078_animate_insect_grasshopper_2.png	78	animate	insect	grasshopper	2	0	4	boats	3	correct	1.08408170746407
111870	1	stim125_inanimate_fruits_banana_1.png	125	inanimate	fruits	banana	1	0	4	boats	3	correct	1.08408170746407
111920	1	stim180_inanimate_plants_tulip_4.png	180	inanimate	plants	tulip	4	0	4	boats	3	correct	1.08408170746407
111970	1	stim043_animate_human_baby_3.png	43	animate	human	baby	3	0	4	boats	3	correct	1.08408170746407
112020	1	stim069_animate_insect_butterfly_1.png	69	animate	insect	butterfly	1	0	4	boats	3	correct	1.08408170746407
112070	1	stim109_inanimate_clothing_jeans_1.png	109	inanimate	clothing	jeans	1	0	4	boats	3	correct	1.08408170746407
112120	1	stim091_animate_mammal_kangaroo_3.png	91	animate	mammal	kangaroo	3	0	4	boats	3	correct	1.08408170746407
112170	1	stim186_inanimate_tools_hammer_2.png	186	inanimate	tools	hammer	2	0	4	boats	3	correct	1.08408170746407
112220	1	stim122_inanimate_fruits_apple_2.png	122	inanimate	fruits	apple	2	0	4	boats	3	correct	1.08408170746407
112270	1	stim197_inanimate_tools_wrench_1.png	197	inanimate	tools	wrench	1	0	4	boats	3	correct	1.08408170746407
112320	1	stim084_animate_mammal_cow_4.png	84	animate	mammal	cow	4	0	4	boats	3	correct	1.08408170746407
112370	1	stim007_animate_aquatic_fish_3.png	7	animate	aquatic	fish	3	0	4	boats	3	correct	1.08408170746407
112420	1	stim021_animate_bird_chicken_1.png	21	animate	bird	chicken	1	0	4	boats	3	correct	1.08408170746407
112470	1	stim161_inanimate_plants_bush_1.png	161	inanimate	plants	bush	1	0	4	boats	3	correct	1.08408170746407
112521	1	stim158_inanimate_furniture_table_2.png	158	inanimate	furniture	table	2	0	4	boats	3	correct	1.08408170746407
112570	1	stim055_animate_human_faces_3.png	55	animate	human	faces	3	0	4	boats	3	correct	1.08408170746407
112620	1	stim039_animate_bird_penguin_3.png	39	animate	bird	penguin	3	0	4	boats	3	correct	1.08408170746407
112670	1	stim010_animate_aquatic_seahorse_2.png	10	animate	aquatic	seahorse	2	0	4	boats	3	correct	1.08408170746407
112720	1	stim148_inanimate_furniture_chair_4.png	148	inanimate	furniture	chair	4	0	4	boats	3	correct	1.08408170746407
112770	1	stim042_animate_human_baby_2.png	42	animate	human	baby	2	0	4	boats	3	correct	1.08408170746407
112820	1	stim182_inanimate_tools_broom_2.png	182	inanimate	tools	broom	2	0	4	boats	3	correct	1.08408170746407
112871	1	stim027_animate_bird_duck_3.png	27	animate	bird	duck	3	0	4	boats	3	correct	1.08408170746407
112920	1	stim118_inanimate_clothing_socks_2.png	118	inanimate	clothing	socks	2	0	4	boats	3	correct	1.08408170746407
112970	1	stim195_inanimate_tools_scissors_3.png	195	inanimate	tools	scissors	3	0	4	boats	3	correct	1.08408170746407
113021	1	stim115_inanimate_clothing_shirt_3.png	115	inanimate	clothing	shirt	3	0	4	boats	3	correct	1.08408170746407
113070	1	stim149_inanimate_furniture_closet_1.png	149	inanimate	furniture	closet	1	0	4	boats	3	correct	1.08408170746407
113120	1	stim030_animate_bird_parrot_2.png	30	animate	bird	parrot	2	0	4	boats	3	correct	1.08408170746407
113170	1	stim160_inanimate_furniture_table_4.png	160	inanimate	furniture	table	4	0	4	boats	3	correct	1.08408170746407
113220	1	stim172_inanimate_plants_sunflower_4.png	172	inanimate	plants	sunflower	4	0	4	boats	3	correct	1.08408170746407
113270	1	stim076_animate_insect_dragonfly_4.png	76	animate	insect	dragonfly	4	0	4	boats	3	correct	1.08408170746407
113320	1	stim103_inanimate_clothing_gloves_3.png	103	inanimate	clothing	gloves	3	0	4	boats	3	correct	1.08408170746407
113370	1	stim130_inanimate_fruits_grape_2.png	130	inanimate	fruits	grape	2	0	4	boats	3	correct	1.08408170746407
113420	1	stim062_animate_insect_ant_2.png	62	animate	insect	ant	2	0	4	boats	3	correct	1.08408170746407
113471	1	stim138_inanimate_fruits_strawberry_2.png	138	inanimate	fruits	strawberry	2	0	4	boats	3	correct	1.08408170746407
113520	1	stim193_inanimate_tools_scissors_1.png	193	inanimate	tools	scissors	1	0	4	boats	3	correct	1.08408170746407
113571	1	stim135_inanimate_fruits_pineapple_3.png	135	inanimate	fruits	pineapple	3	0	4	boats	3	correct	1.08408170746407
113621	1	stim098_animate_mammal_rhino_2.png	98	animate	mammal	rhino	2	0	4	boats	3	correct	1.08408170746407
113671	1	stim183_inanimate_tools_broom_3.png	183	inanimate	tools	broom	3	0	4	boats	3	correct	1.08408170746407
113721	1	stim047_animate_human_child_3.png	47	animate	human	child	3	0	4	boats	3	correct	1.08408170746407
113771	1	stim167_inanimate_plants_cactus_3.png	167	inanimate	plants	cactus	3	0	4	boats	3	correct	1.08408170746407
113821	1	stim090_animate_mammal_kangaroo_2.png	90	animate	mammal	kangaroo	2	0	4	boats	3	correct	1.08408170746407
113870	1	stim060_animate_human_sports_4.png	60	animate	human	sports	4	0	4	boats	3	correct	1.08408170746407
113921	1	stim037_animate_bird_penguin_1.png	37	animate	bird	penguin	1	0	4	boats	3	correct	1.08408170746407
113971	1	stim053_animate_human_faces_1.png	53	animate	human	faces	1	0	4	boats	3	correct	1.08408170746407
114021	1	stim002_animate_aquatic_crab_2.png	2	animate	aquatic	crab	2	0	4	boats	3	correct	1.08408170746407
114071	1	stim012_animate_aquatic_seahorse_4.png	12	animate	aquatic	seahorse	4	0	4	boats	3	correct	1.08408170746407
114121	1	stim020_animate_aquatic_shrimp_4.png	20	animate	aquatic	shrimp	4	0	4	boats	3	correct	1.08408170746407
114171	1	stim198_inanimate_tools_wrench_2.png	198	inanimate	tools	wrench	2	0	4	boats	3	correct	1.08408170746407
114221	1	stim120_inanimate_clothing_socks_4.png	120	inanimate	clothing	socks	4	0	4	boats	3	correct	1.08408170746407
114271	1	stim150_inanimate_furniture_closet_2.png	150	inanimate	furniture	closet	2	0	4	boats	3	correct	1.08408170746407
114321	1	stim101_inanimate_clothing_gloves_1.png	101	inanimate	clothing	gloves	1	0	4	boats	3	correct	1.08408170746407
114371	1	stim033_animate_bird_peacock_1.png	33	animate	bird	peacock	1	0	4	boats	3	correct	1.08408170746407
124888	1	stim012_animate_aquatic_seahorse_4.png	12	animate	aquatic	seahorse	4	0	5	stars	4	correct	1.11297463061055
124937	1	stim073_animate_insect_dragonfly_1.png	73	animate	insect	dragonfly	1	0	5	stars	4	correct	1.11297463061055
124987	1	stim112_inanimate_clothing_jeans_4.png	112	inanimate	clothing	jeans	4	0	5	stars	4	correct	1.11297463061055
125037	1	stim182_inanimate_tools_broom_2.png	182	inanimate	tools	broom	2	0	5	stars	4	correct	1.11297463061055
125087	1	stim061_animate_insect_ant_1.png	61	animate	insect	ant	1	0	5	stars	4	correct	1.11297463061055
125137	1	stim072_animate_insect_butterfly_4.png	72	animate	insect	butterfly	4	0	5	stars	4	correct	1.11297463061055
125187	1	stim071_animate_insect_butterfly_3.png	71	animate	insect	butterfly	3	0	5	stars	4	correct	1.11297463061055
125237	1	stim171_inanimate_plants_sunflower_3.png	171	inanimate	plants	sunflower	3	0	5	stars	4	correct	1.11297463061055
125287	1	stim105_inanimate_clothing_hat_1.png	105	inanimate	clothing	hat	1	0	5	stars	4	correct	1.11297463061055
125337	1	stim193_inanimate_tools_scissors_1.png	193	inanimate	tools	scissors	1	0	5	stars	4	correct	1.11297463061055
125387	1	stim169_inanimate_plants_sunflower_1.png	169	inanimate	plants	sunflower	1	0	5	stars	4	correct	1.11297463061055
125437	1	stim180_inanimate_plants_tulip_4.png	180	inanimate	plants	tulip	4	0	5	stars	4	correct	1.11297463061055
125487	1	stim185_inanimate_tools_hammer_1.png	185	inanimate	tools	hammer	1	0	5	stars	4	correct	1.11297463061055
125537	1	stim030_animate_bird_parrot_2.png	30	animate	bird	parrot	2	0	5	stars	4	correct	1.11297463061055
125587	1	stim031_animate_bird_parrot_3.png	31	animate	bird	parrot	3	0	5	stars	4	correct	1.11297463061055
125637	1	stim122_inanimate_fruits_apple_2.png	122	inanimate	fruits	apple	2	0	5	stars	4	correct	1.11297463061055
125687	1	stim198_inanimate_tools_wrench_2.png	198	inanimate	tools	wrench	2	0	5	stars	4	correct	1.11297463061055
125737	1	stim082_animate_mammal_cow_2.png	82	animate	mammal	cow	2	0	5	stars	4	correct	1.11297463061055
125787	1	stim172_inanimate_plants_sunflower_4.png	172	inanimate	plants	sunflower	4	0	5	stars	4	correct	1.11297463061055
125837	1	stim027_animate_bird_duck_3.png	27	animate	bird	duck	3	0	5	stars	4	correct	1.11297463061055
125887	1	stim156_inanimate_furniture_sofa_4.png	156	inanimate	furniture	sofa	4	0	5	stars	4	correct	1.11297463061055
125937	1	stim057_animate_human_sports_1.png	57	animate	human	sports	1	0	5	stars	4	correct	1.11297463061055
125987	1	stim075_animate_insect_dragonfly_3.png	75	animate	insect	dragonfly	3	0	5	stars	4	correct	1.11297463061055
126037	1	stim109_inanimate_clothing_jeans_1.png	109	inanimate	clothing	jeans	1	0	5	stars	4	correct	1.11297463061055
126087	1	stim106_inanimate_clothing_hat_2.png	106	inanimate	clothing	hat	2	0	5	stars	4	correct	1.11297463061055
126137	1	stim069_animate_insect_butterfly_1.png	69	animate	insect	butterfly	1	0	5	stars	4	correct	1.11297463061055
126187	1	stim121_inanimate_fruits_apple_1.png	121	inanimate	fruits	apple	1	0	5	stars	4	correct	1.11297463061055
126237	1	stim026_animate_bird_duck_2.png	26	animate	bird	duck	2	0	5	stars	4	correct	1.11297463061055
126287	1	stim149_inanimate_furniture_closet_1.png	149	inanimate	furniture	closet	1	0	5	stars	4	correct	1.11297463061055
126337	1	stim009_animate_aquatic_seahorse_1.png	9	animate	aquatic	seahorse	1	0	5	stars	4	correct	1.11297463061055
126387	1	stim130_inanimate_fruits_grape_2.png	130	inanimate	fruits	grape	2	0	5	stars	4	correct	1.11297463061055
126437	1	stim148_inanimate_furniture_chair_4.png	148	inanimate	furniture	chair	4	0	5	stars	4	correct	1.11297463061055
126487	1	stim135_inanimate_fruits_pineapple_3.png	135	inanimate	fruits	pineapple	3	0	5	stars	4	correct	1.11297463061055
126537	1	stim020_animate_aquatic_shrimp_4.png	20	animate	aquatic	shrimp	4	0	5	stars	4	correct	1.11297463061055
126587	1	stim104_inanimate_clothing_gloves_4.png	104	inanimate	clothing	gloves	4	0	5	stars	4	correct	1.11297463061055
126637	1	stim143_inanimate_furniture_bed_3.png	143	inanimate	furniture	bed	3	0	5	stars	4	correct	1.11297463061055
126687	1	stim177_inanimate_plants_tulip_1.png	177	inanimate	plants	tulip	1	0	5	stars	4	correct	1.11297463061055
126737	1	stim117_inanimate_clothing_socks_1.png	117	inanimate	clothing	socks	1	0	5	stars	4	correct	1.11297463061055
126787	1	stim113_inanimate_clothing_shirt_1.png	113	inanimate	clothing	shirt	1	0	5	stars	4	correct	1.11297463061055
126837	1	stim129_inanimate_fruits_grape_1.png	129	inanimate	fruits	grape	1	0	5	stars	4	correct	1.11297463061055
126887	1	stim176_inanimate_plants_tree_4.png	176	inanimate	plants	tree	4	0	5	stars	4	correct	1.11297463061055
126937	1	stim152_inanimate_furniture_closet_4.png	152	inanimate	furniture	closet	4	0	5	stars	4	correct	1.11297463061055
126987	1	stim029_animate_bird_parrot_1.png	29	animate	bird	parrot	1	0	5	stars	4	correct	1.11297463061055
127037	1	stim076_animate_insect_dragonfly_4.png	76	animate	insect	dragonfly	4	0	5	stars	4	correct	1.11297463061055
127087	1	stim107_inanimate_clothing_hat_3.png	107	inanimate	clothing	hat	3	0	5	stars	4	correct	1.11297463061055
127137	1	stim041_animate_human_baby_1.png	41	animate	human	baby	1	0	5	stars	4	correct	1.11297463061055
127187	1	stim137_inanimate_fruits_strawberry_1.png	137	inanimate	fruits	strawberry	1	0	5	stars	4	correct	1.11297463061055
127237	1	stim032_animate_bird_parrot_4.png	32	animate	bird	parrot	4	0	5	stars	4	correct	1.11297463061055
127287	1	stim091_animate_mammal_kangaroo_3.png	91	animate	mammal	kangaroo	3	0	5	stars	4	correct	1.11297463061055
127337	1	stim145_inanimate_furniture_chair_1.png	145	inanimate	furniture	chair	1	0	5	stars	4	correct	1.11297463061055
127387	1	stim110_inanimate_clothing_jeans_2.png	110	inanimate	clothing	jeans	2	0	5	stars	4	correct	1.11297463061055
127437	1	stim064_animate_insect_ant_4.png	64	animate	insect	ant	4	0	5	stars	4	correct	1.11297463061055
127487	1	stim096_animate_mammal_monkey_4.png	96	animate	mammal	monkey	4	0	5	stars	4	correct	1.11297463061055
127537	1	stim179_inanimate_plants_tulip_3.png	179	inanimate	plants	tulip	3	0	5	stars	4	correct	1.11297463061055
127587	1	stim128_inanimate_fruits_banana_4.png	128	inanimate	fruits	banana	4	0	5	stars	4	correct	1.11297463061055
127637	1	stim004_animate_aquatic_crab_4.png	4	animate	aquatic	crab	4	0	5	stars	4	correct	1.11297463061055
127687	1	stim150_inanimate_furniture_closet_2.png	150	inanimate	furniture	closet	2	0	5	stars	4	correct	1.11297463061055
127737	1	stim059_animate_human_sports_3.png	59	animate	human	sports	3	0	5	stars	4	correct	1.11297463061055
127787	1	stim049_animate_human_clown_1.png	49	animate	human	clown	1	0	5	stars	4	correct	1.11297463061055
127837	1	stim209_targets_shapes_star_1.png	209	targets	shapes	star	1	1	5	stars	4	correct	1.11297463061055
127887	1	stim125_inanimate_fruits_banana_1.png	125	inanimate	fruits	banana	1	0	5	stars	4	correct	1.11297463061055
127937	1	stim108_inanimate_clothing_hat_4.png	108	inanimate	clothing	hat	4	0	5	stars	4	correct	1.11297463061055
127987	1	stim039_animate_bird_penguin_3.png	39	animate	bird	penguin	3	0	5	stars	4	correct	1.11297463061055
128037	1	stim023_animate_bird_chicken_3.png	23	animate	bird	chicken	3	0	5	stars	4	correct	1.11297463061055
128087	1	stim042_animate_human_baby_2.png	42	animate	human	baby	2	0	5	stars	4	correct	1.11297463061055
128137	1	stim100_animate_mammal_rhino_4.png	100	animate	mammal	rhino	4	0	5	stars	4	correct	1.11297463061055
128187	1	stim144_inanimate_furniture_bed_4.png	144	inanimate	furniture	bed	4	0	5	stars	4	correct	1.11297463061055
128237	1	stim186_inanimate_tools_hammer_2.png	186	inanimate	tools	hammer	2	0	5	stars	4	correct	1.11297463061055
128287	1	stim164_inanimate_plants_bush_4.png	164	inanimate	plants	bush	4	0	5	stars	4	correct	1.11297463061055
128337	1	stim162_inanimate_plants_bush_2.png	162	inanimate	plants	bush	2	0	5	stars	4	correct	1.11297463061055
128387	1	stim139_inanimate_fruits_strawberry_3.png	139	inanimate	fruits	strawberry	3	0	5	stars	4	correct	1.11297463061055
128437	1	stim163_inanimate_plants_bush_3.png	163	inanimate	plants	bush	3	0	5	stars	4	correct	1.11297463061055
128487	1	stim181_inanimate_tools_broom_1.png	181	inanimate	tools	broom	1	0	5	stars	4	correct	1.11297463061055
128537	1	stim037_animate_bird_penguin_1.png	37	animate	bird	penguin	1	0	5	stars	4	correct	1.11297463061055
128588	1	stim067_animate_insect_bug_3.png	67	animate	insect	bug	3	0	5	stars	4	correct	1.11297463061055
128638	1	stim142_inanimate_furniture_bed_2.png	142	inanimate	furniture	bed	2	0	5	stars	4	correct	1.11297463061055
128688	1	stim074_animate_insect_dragonfly_2.png	74	animate	insect	dragonfly	2	0	5	stars	4	correct	1.11297463061055
128738	1	stim093_animate_mammal_monkey_1.png	93	animate	mammal	monkey	1	0	5	stars	4	correct	1.11297463061055
128788	1	stim157_inanimate_furniture_table_1.png	157	inanimate	furniture	table	1	0	5	stars	4	correct	1.11297463061055
128838	1	stim174_inanimate_plants_tree_2.png	174	inanimate	plants	tree	2	0	5	stars	4	correct	1.11297463061055
128888	1	stim001_animate_aquatic_crab_1.png	1	animate	aquatic	crab	1	0	5	stars	4	correct	1.11297463061055
128938	1	stim126_inanimate_fruits_banana_2.png	126	inanimate	fruits	banana	2	0	5	stars	4	correct	1.11297463061055
128987	1	stim028_animate_bird_duck_4.png	28	animate	bird	duck	4	0	5	stars	4	correct	1.11297463061055
129038	1	stim086_animate_mammal_giraffe_2.png	86	animate	mammal	giraffe	2	0	5	stars	4	correct	1.11297463061055
129088	1	stim088_animate_mammal_giraffe_4.png	88	animate	mammal	giraffe	4	0	5	stars	4	correct	1.11297463061055
129138	1	stim158_inanimate_furniture_table_2.png	158	inanimate	furniture	table	2	0	5	stars	4	correct	1.11297463061055
129187	1	stim161_inanimate_plants_bush_1.png	161	inanimate	plants	bush	1	0	5	stars	4	correct	1.11297463061055
