onset	duration	stimulusname	stimulusnumber	levelA	levelB	levelC	withinexemplarnumber	istarget	trialnumber	condition	response	correct	rt
26091	1	stim016_animate_aquatic_shark_4.png	16	animate	aquatic	shark	4	0	1	boats	4	incorrect	1.3447320885025
26141	1	stim158_inanimate_furniture_table_2.png	158	inanimate	furniture	table	2	0	1	boats	4	incorrect	1.3447320885025
26191	1	stim197_inanimate_tools_wrench_1.png	197	inanimate	tools	wrench	1	0	1	boats	4	incorrect	1.3447320885025
26241	1	stim054_animate_human_faces_2.png	54	animate	human	faces	2	0	1	boats	4	incorrect	1.3447320885025
26292	1	stim189_inanimate_tools_pan_1.png	189	inanimate	tools	pan	1	0	1	boats	4	incorrect	1.3447320885025
26341	1	stim069_animate_insect_butterfly_1.png	69	animate	insect	butterfly	1	0	1	boats	4	incorrect	1.3447320885025
26391	1	stim151_inanimate_furniture_closet_3.png	151	inanimate	furniture	closet	3	0	1	boats	4	incorrect	1.3447320885025
26441	1	stim086_animate_mammal_giraffe_2.png	86	animate	mammal	giraffe	2	0	1	boats	4	incorrect	1.3447320885025
26491	1	stim171_inanimate_plants_sunflower_3.png	171	inanimate	plants	sunflower	3	0	1	boats	4	incorrect	1.3447320885025
26541	1	stim159_inanimate_furniture_table_3.png	159	inanimate	furniture	table	3	0	1	boats	4	incorrect	1.3447320885025
26591	1	stim149_inanimate_furniture_closet_1.png	149	inanimate	furniture	closet	1	0	1	boats	4	incorrect	1.3447320885025
26641	1	stim182_inanimate_tools_broom_2.png	182	inanimate	tools	broom	2	0	1	boats	4	incorrect	1.3447320885025
26691	1	stim092_animate_mammal_kangaroo_4.png	92	animate	mammal	kangaroo	4	0	1	boats	4	incorrect	1.3447320885025
26741	1	stim009_animate_aquatic_seahorse_1.png	9	animate	aquatic	seahorse	1	0	1	boats	4	incorrect	1.3447320885025
26791	1	stim170_inanimate_plants_sunflower_2.png	170	inanimate	plants	sunflower	2	0	1	boats	4	incorrect	1.3447320885025
26841	1	stim066_animate_insect_bug_2.png	66	animate	insect	bug	2	0	1	boats	4	incorrect	1.3447320885025
26891	1	stim091_animate_mammal_kangaroo_3.png	91	animate	mammal	kangaroo	3	0	1	boats	4	incorrect	1.3447320885025
26941	1	stim097_animate_mammal_rhino_1.png	97	animate	mammal	rhino	1	0	1	boats	4	incorrect	1.3447320885025
26991	1	stim134_inanimate_fruits_pineapple_2.png	134	inanimate	fruits	pineapple	2	0	1	boats	4	incorrect	1.3447320885025
27041	1	stim109_inanimate_clothing_jeans_1.png	109	inanimate	clothing	jeans	1	0	1	boats	4	incorrect	1.3447320885025
27091	1	stim155_inanimate_furniture_sofa_3.png	155	inanimate	furniture	sofa	3	0	1	boats	4	incorrect	1.3447320885025
27141	1	stim185_inanimate_tools_hammer_1.png	185	inanimate	tools	hammer	1	0	1	boats	4	incorrect	1.3447320885025
27191	1	stim037_animate_bird_penguin_1.png	37	animate	bird	penguin	1	0	1	boats	4	incorrect	1.3447320885025
27241	1	stim089_animate_mammal_kangaroo_1.png	89	animate	mammal	kangaroo	1	0	1	boats	4	incorrect	1.3447320885025
27291	1	stim081_animate_mammal_cow_1.png	81	animate	mammal	cow	1	0	1	boats	4	incorrect	1.3447320885025
27341	1	stim077_animate_insect_grasshopper_1.png	77	animate	insect	grasshopper	1	0	1	boats	4	incorrect	1.3447320885025
27391	1	stim148_inanimate_furniture_chair_4.png	148	inanimate	furniture	chair	4	0	1	boats	4	incorrect	1.3447320885025
27441	1	stim188_inanimate_tools_hammer_4.png	188	inanimate	tools	hammer	4	0	1	boats	4	incorrect	1.3447320885025
27491	1	stim050_animate_human_clown_2.png	50	animate	human	clown	2	0	1	boats	4	incorrect	1.3447320885025
27541	1	stim043_animate_human_baby_3.png	43	animate	human	baby	3	0	1	boats	4	incorrect	1.3447320885025
27591	1	stim038_animate_bird_penguin_2.png	38	animate	bird	penguin	2	0	1	boats	4	incorrect	1.3447320885025
27641	1	stim041_animate_human_baby_1.png	41	animate	human	baby	1	0	1	boats	4	incorrect	1.3447320885025
27691	1	stim139_inanimate_fruits_strawberry_3.png	139	inanimate	fruits	strawberry	3	0	1	boats	4	incorrect	1.3447320885025
27741	1	stim112_inanimate_clothing_jeans_4.png	112	inanimate	clothing	jeans	4	0	1	boats	4	incorrect	1.3447320885025
27791	1	stim105_inanimate_clothing_hat_1.png	105	inanimate	clothing	hat	1	0	1	boats	4	incorrect	1.3447320885025
27841	1	stim161_inanimate_plants_bush_1.png	161	inanimate	plants	bush	1	0	1	boats	4	incorrect	1.3447320885025
27891	1	stim015_animate_aquatic_shark_3.png	15	animate	aquatic	shark	3	0	1	boats	4	incorrect	1.3447320885025
27941	1	stim059_animate_human_sports_3.png	59	animate	human	sports	3	0	1	boats	4	incorrect	1.3447320885025
27991	1	stim030_animate_bird_parrot_2.png	30	animate	bird	parrot	2	0	1	boats	4	incorrect	1.3447320885025
28041	1	stim118_inanimate_clothing_socks_2.png	118	inanimate	clothing	socks	2	0	1	boats	4	incorrect	1.3447320885025
28091	1	stim045_animate_human_child_1.png	45	animate	human	child	1	0	1	boats	4	incorrect	1.3447320885025
28141	1	stim036_animate_bird_peacock_4.png	36	animate	bird	peacock	4	0	1	boats	4	incorrect	1.3447320885025
28191	1	stim121_inanimate_fruits_apple_1.png	121	inanimate	fruits	apple	1	0	1	boats	4	incorrect	1.3447320885025
28241	1	stim180_inanimate_plants_tulip_4.png	180	inanimate	plants	tulip	4	0	1	boats	4	incorrect	1.3447320885025
28291	1	stim150_inanimate_furniture_closet_2.png	150	inanimate	furniture	closet	2	0	1	boats	4	incorrect	1.3447320885025
28341	1	stim164_inanimate_plants_bush_4.png	164	inanimate	plants	bush	4	0	1	boats	4	incorrect	1.3447320885025
28391	1	stim193_inanimate_tools_scissors_1.png	193	inanimate	tools	scissors	1	0	1	boats	4	incorrect	1.3447320885025
28441	1	stim096_animate_mammal_monkey_4.png	96	animate	mammal	monkey	4	0	1	boats	4	incorrect	1.3447320885025
28491	1	stim064_animate_insect_ant_4.png	64	animate	insect	ant	4	0	1	boats	4	incorrect	1.3447320885025
28541	1	stim165_inanimate_plants_cactus_1.png	165	inanimate	plants	cactus	1	0	1	boats	4	incorrect	1.3447320885025
28591	1	stim107_inanimate_clothing_hat_3.png	107	inanimate	clothing	hat	3	0	1	boats	4	incorrect	1.3447320885025
28641	1	stim167_inanimate_plants_cactus_3.png	167	inanimate	plants	cactus	3	0	1	boats	4	incorrect	1.3447320885025
28691	1	stim130_inanimate_fruits_grape_2.png	130	inanimate	fruits	grape	2	0	1	boats	4	incorrect	1.3447320885025
28741	1	stim126_inanimate_fruits_banana_2.png	126	inanimate	fruits	banana	2	0	1	boats	4	incorrect	1.3447320885025
28791	1	stim206_targets_object_boats_2.png	206	targets	object	boats	2	1	1	boats	4	incorrect	1.3447320885025
28841	1	stim108_inanimate_clothing_hat_4.png	108	inanimate	clothing	hat	4	0	1	boats	4	incorrect	1.3447320885025
28891	1	stim132_inanimate_fruits_grape_4.png	132	inanimate	fruits	grape	4	0	1	boats	4	incorrect	1.3447320885025
28941	1	stim070_animate_insect_butterfly_2.png	70	animate	insect	butterfly	2	0	1	boats	4	incorrect	1.3447320885025
28991	1	stim176_inanimate_plants_tree_4.png	176	inanimate	plants	tree	4	0	1	boats	4	incorrect	1.3447320885025
29041	1	stim018_animate_aquatic_shrimp_2.png	18	animate	aquatic	shrimp	2	0	1	boats	4	incorrect	1.3447320885025
29091	1	stim162_inanimate_plants_bush_2.png	162	inanimate	plants	bush	2	0	1	boats	4	incorrect	1.3447320885025
29141	1	stim181_inanimate_tools_broom_1.png	181	inanimate	tools	broom	1	0	1	boats	4	incorrect	1.3447320885025
29191	1	stim080_animate_insect_grasshopper_4.png	80	animate	insect	grasshopper	4	0	1	boats	4	incorrect	1.3447320885025
29241	1	stim048_animate_human_child_4.png	48	animate	human	child	4	0	1	boats	4	incorrect	1.3447320885025
29291	1	stim094_animate_mammal_monkey_2.png	94	animate	mammal	monkey	2	0	1	boats	4	incorrect	1.3447320885025
29341	1	stim147_inanimate_furniture_chair_3.png	147	inanimate	furniture	chair	3	0	1	boats	4	incorrect	1.3447320885025
29391	1	stim129_inanimate_fruits_grape_1.png	129	inanimate	fruits	grape	1	0	1	boats	4	incorrect	1.3447320885025
29441	1	stim196_inanimate_tools_scissors_4.png	196	inanimate	tools	scissors	4	0	1	boats	4	incorrect	1.3447320885025
29491	1	stim005_animate_aquatic_fish_1.png	5	animate	aquatic	fish	1	0	1	boats	4	incorrect	1.3447320885025
29541	1	stim017_animate_aquatic_shrimp_1.png	17	animate	aquatic	shrimp	1	0	1	boats	4	incorrect	1.3447320885025
29591	1	stim019_animate_aquatic_shrimp_3.png	19	animate	aquatic	shrimp	3	0	1	boats	4	incorrect	1.3447320885025
29641	1	stim103_inanimate_clothing_gloves_3.png	103	inanimate	clothing	gloves	3	0	1	boats	4	incorrect	1.3447320885025
29691	1	stim071_animate_insect_butterfly_3.png	71	animate	insect	butterfly	3	0	1	boats	4	incorrect	1.3447320885025
29741	1	stim156_inanimate_furniture_sofa_4.png	156	inanimate	furniture	sofa	4	0	1	boats	4	incorrect	1.3447320885025
29791	1	stim032_animate_bird_parrot_4.png	32	animate	bird	parrot	4	0	1	boats	4	incorrect	1.3447320885025
29841	1	stim056_animate_human_faces_4.png	56	animate	human	faces	4	0	1	boats	4	incorrect	1.3447320885025
29891	1	stim022_animate_bird_chicken_2.png	22	animate	bird	chicken	2	0	1	boats	4	incorrect	1.3447320885025
29941	1	stim117_inanimate_clothing_socks_1.png	117	inanimate	clothing	socks	1	0	1	boats	4	incorrect	1.3447320885025
29991	1	stim058_animate_human_sports_2.png	58	animate	human	sports	2	0	1	boats	4	incorrect	1.3447320885025
30041	1	stim025_animate_bird_duck_1.png	25	animate	bird	duck	1	0	1	boats	4	incorrect	1.3447320885025
30091	1	stim137_inanimate_fruits_strawberry_1.png	137	inanimate	fruits	strawberry	1	0	1	boats	4	incorrect	1.3447320885025
30141	1	stim039_animate_bird_penguin_3.png	39	animate	bird	penguin	3	0	1	boats	4	incorrect	1.3447320885025
30191	1	stim138_inanimate_fruits_strawberry_2.png	138	inanimate	fruits	strawberry	2	0	1	boats	4	incorrect	1.3447320885025
30241	1	stim033_animate_bird_peacock_1.png	33	animate	bird	peacock	1	0	1	boats	4	incorrect	1.3447320885025
30291	1	stim116_inanimate_clothing_shirt_4.png	116	inanimate	clothing	shirt	4	0	1	boats	4	incorrect	1.3447320885025
30341	1	stim113_inanimate_clothing_shirt_1.png	113	inanimate	clothing	shirt	1	0	1	boats	4	incorrect	1.3447320885025
30391	1	stim031_animate_bird_parrot_3.png	31	animate	bird	parrot	3	0	1	boats	4	incorrect	1.3447320885025
30441	1	stim135_inanimate_fruits_pineapple_3.png	135	inanimate	fruits	pineapple	3	0	1	boats	4	incorrect	1.3447320885025
30491	1	stim177_inanimate_plants_tulip_1.png	177	inanimate	plants	tulip	1	0	1	boats	4	incorrect	1.3447320885025
30541	1	stim061_animate_insect_ant_1.png	61	animate	insect	ant	1	0	1	boats	4	incorrect	1.3447320885025
30591	1	stim207_targets_object_boats_3.png	207	targets	object	boats	3	1	1	boats	4	incorrect	1.3447320885025
30641	1	stim191_inanimate_tools_pan_3.png	191	inanimate	tools	pan	3	0	1	boats	4	incorrect	1.3447320885025
30691	1	stim187_inanimate_tools_hammer_3.png	187	inanimate	tools	hammer	3	0	1	boats	4	incorrect	1.3447320885025
30741	1	stim163_inanimate_plants_bush_3.png	163	inanimate	plants	bush	3	0	1	boats	4	incorrect	1.3447320885025
30791	1	stim124_inanimate_fruits_apple_4.png	124	inanimate	fruits	apple	4	0	1	boats	4	incorrect	1.3447320885025
30841	1	stim160_inanimate_furniture_table_4.png	160	inanimate	furniture	table	4	0	1	boats	4	incorrect	1.3447320885025
30891	1	stim079_animate_insect_grasshopper_3.png	79	animate	insect	grasshopper	3	0	1	boats	4	incorrect	1.3447320885025
30941	1	stim053_animate_human_faces_1.png	53	animate	human	faces	1	0	1	boats	4	incorrect	1.3447320885025
30991	1	stim021_animate_bird_chicken_1.png	21	animate	bird	chicken	1	0	1	boats	4	incorrect	1.3447320885025
31041	1	stim020_animate_aquatic_shrimp_4.png	20	animate	aquatic	shrimp	4	0	1	boats	4	incorrect	1.3447320885025
31091	1	stim068_animate_insect_bug_4.png	68	animate	insect	bug	4	0	1	boats	4	incorrect	1.3447320885025
31141	1	stim104_inanimate_clothing_gloves_4.png	104	inanimate	clothing	gloves	4	0	1	boats	4	incorrect	1.3447320885025
31191	1	stim115_inanimate_clothing_shirt_3.png	115	inanimate	clothing	shirt	3	0	1	boats	4	incorrect	1.3447320885025
31241	1	stim065_animate_insect_bug_1.png	65	animate	insect	bug	1	0	1	boats	4	incorrect	1.3447320885025
31291	1	stim128_inanimate_fruits_banana_4.png	128	inanimate	fruits	banana	4	0	1	boats	4	incorrect	1.3447320885025
31341	1	stim083_animate_mammal_cow_3.png	83	animate	mammal	cow	3	0	1	boats	4	incorrect	1.3447320885025
31391	1	stim095_animate_mammal_monkey_3.png	95	animate	mammal	monkey	3	0	1	boats	4	incorrect	1.3447320885025
31441	1	stim144_inanimate_furniture_bed_4.png	144	inanimate	furniture	bed	4	0	1	boats	4	incorrect	1.3447320885025
31491	1	stim042_animate_human_baby_2.png	42	animate	human	baby	2	0	1	boats	4	incorrect	1.3447320885025
31541	1	stim173_inanimate_plants_tree_1.png	173	inanimate	plants	tree	1	0	1	boats	4	incorrect	1.3447320885025
31591	1	stim074_animate_insect_dragonfly_2.png	74	animate	insect	dragonfly	2	0	1	boats	4	incorrect	1.3447320885025
31641	1	stim183_inanimate_tools_broom_3.png	183	inanimate	tools	broom	3	0	1	boats	4	incorrect	1.3447320885025
31691	1	stim198_inanimate_tools_wrench_2.png	198	inanimate	tools	wrench	2	0	1	boats	4	incorrect	1.3447320885025
31741	1	stim110_inanimate_clothing_jeans_2.png	110	inanimate	clothing	jeans	2	0	1	boats	4	incorrect	1.3447320885025
31791	1	stim035_animate_bird_peacock_3.png	35	animate	bird	peacock	3	0	1	boats	4	incorrect	1.3447320885025
31841	1	stim101_inanimate_clothing_gloves_1.png	101	inanimate	clothing	gloves	1	0	1	boats	4	incorrect	1.3447320885025
31891	1	stim024_animate_bird_chicken_4.png	24	animate	bird	chicken	4	0	1	boats	4	incorrect	1.3447320885025
31941	1	stim003_animate_aquatic_crab_3.png	3	animate	aquatic	crab	3	0	1	boats	4	incorrect	1.3447320885025
31991	1	stim166_inanimate_plants_cactus_2.png	166	inanimate	plants	cactus	2	0	1	boats	4	incorrect	1.3447320885025
32041	1	stim178_inanimate_plants_tulip_2.png	178	inanimate	plants	tulip	2	0	1	boats	4	incorrect	1.3447320885025
32091	1	stim131_inanimate_fruits_grape_3.png	131	inanimate	fruits	grape	3	0	1	boats	4	incorrect	1.3447320885025
32141	1	stim127_inanimate_fruits_banana_3.png	127	inanimate	fruits	banana	3	0	1	boats	4	incorrect	1.3447320885025
32191	1	stim062_animate_insect_ant_2.png	62	animate	insect	ant	2	0	1	boats	4	incorrect	1.3447320885025
32241	1	stim093_animate_mammal_monkey_1.png	93	animate	mammal	monkey	1	0	1	boats	4	incorrect	1.3447320885025
32291	1	stim075_animate_insect_dragonfly_3.png	75	animate	insect	dragonfly	3	0	1	boats	4	incorrect	1.3447320885025
32341	1	stim026_animate_bird_duck_2.png	26	animate	bird	duck	2	0	1	boats	4	incorrect	1.3447320885025
32391	1	stim179_inanimate_plants_tulip_3.png	179	inanimate	plants	tulip	3	0	1	boats	4	incorrect	1.3447320885025
32441	1	stim023_animate_bird_chicken_3.png	23	animate	bird	chicken	3	0	1	boats	4	incorrect	1.3447320885025
32491	1	stim078_animate_insect_grasshopper_2.png	78	animate	insect	grasshopper	2	0	1	boats	4	incorrect	1.3447320885025
32541	1	stim040_animate_bird_penguin_4.png	40	animate	bird	penguin	4	0	1	boats	4	incorrect	1.3447320885025
32591	1	stim174_inanimate_plants_tree_2.png	174	inanimate	plants	tree	2	0	1	boats	4	incorrect	1.3447320885025
32641	1	stim034_animate_bird_peacock_2.png	34	animate	bird	peacock	2	0	1	boats	4	incorrect	1.3447320885025
32691	1	stim141_inanimate_furniture_bed_1.png	141	inanimate	furniture	bed	1	0	1	boats	4	incorrect	1.3447320885025
32741	1	stim044_animate_human_baby_4.png	44	animate	human	baby	4	0	1	boats	4	incorrect	1.3447320885025
32791	1	stim200_inanimate_tools_wrench_4.png	200	inanimate	tools	wrench	4	0	1	boats	4	incorrect	1.3447320885025
32841	1	stim195_inanimate_tools_scissors_3.png	195	inanimate	tools	scissors	3	0	1	boats	4	incorrect	1.3447320885025
32891	1	stim099_animate_mammal_rhino_3.png	99	animate	mammal	rhino	3	0	1	boats	4	incorrect	1.3447320885025
32941	1	stim190_inanimate_tools_pan_2.png	190	inanimate	tools	pan	2	0	1	boats	4	incorrect	1.3447320885025
32991	1	stim049_animate_human_clown_1.png	49	animate	human	clown	1	0	1	boats	4	incorrect	1.3447320885025
33041	1	stim047_animate_human_child_3.png	47	animate	human	child	3	0	1	boats	4	incorrect	1.3447320885025
33091	1	stim029_animate_bird_parrot_1.png	29	animate	bird	parrot	1	0	1	boats	4	incorrect	1.3447320885025
33141	1	stim153_inanimate_furniture_sofa_1.png	153	inanimate	furniture	sofa	1	0	1	boats	4	incorrect	1.3447320885025
33191	1	stim084_animate_mammal_cow_4.png	84	animate	mammal	cow	4	0	1	boats	4	incorrect	1.3447320885025
33241	1	stim060_animate_human_sports_4.png	60	animate	human	sports	4	0	1	boats	4	incorrect	1.3447320885025
33291	1	stim114_inanimate_clothing_shirt_2.png	114	inanimate	clothing	shirt	2	0	1	boats	4	incorrect	1.3447320885025
33341	1	stim102_inanimate_clothing_gloves_2.png	102	inanimate	clothing	gloves	2	0	1	boats	4	incorrect	1.3447320885025
33391	1	stim204_targets_object_boats_4.png	204	targets	object	boats	4	1	1	boats	4	incorrect	1.3447320885025
33441	1	stim143_inanimate_furniture_bed_3.png	143	inanimate	furniture	bed	3	0	1	boats	4	incorrect	1.3447320885025
33491	1	stim051_animate_human_clown_3.png	51	animate	human	clown	3	0	1	boats	4	incorrect	1.3447320885025
33541	1	stim120_inanimate_clothing_socks_4.png	120	inanimate	clothing	socks	4	0	1	boats	4	incorrect	1.3447320885025
33591	1	stim055_animate_human_faces_3.png	55	animate	human	faces	3	0	1	boats	4	incorrect	1.3447320885025
33641	1	stim011_animate_aquatic_seahorse_3.png	11	animate	aquatic	seahorse	3	0	1	boats	4	incorrect	1.3447320885025
33691	1	stim090_animate_mammal_kangaroo_2.png	90	animate	mammal	kangaroo	2	0	1	boats	4	incorrect	1.3447320885025
33741	1	stim152_inanimate_furniture_closet_4.png	152	inanimate	furniture	closet	4	0	1	boats	4	incorrect	1.3447320885025
33791	1	stim027_animate_bird_duck_3.png	27	animate	bird	duck	3	0	1	boats	4	incorrect	1.3447320885025
33841	1	stim073_animate_insect_dragonfly_1.png	73	animate	insect	dragonfly	1	0	1	boats	4	incorrect	1.3447320885025
33891	1	stim046_animate_human_child_2.png	46	animate	human	child	2	0	1	boats	4	incorrect	1.3447320885025
33941	1	stim002_animate_aquatic_crab_2.png	2	animate	aquatic	crab	2	0	1	boats	4	incorrect	1.3447320885025
33991	1	stim085_animate_mammal_giraffe_1.png	85	animate	mammal	giraffe	1	0	1	boats	4	incorrect	1.3447320885025
34041	1	stim133_inanimate_fruits_pineapple_1.png	133	inanimate	fruits	pineapple	1	0	1	boats	4	incorrect	1.3447320885025
34091	1	stim063_animate_insect_ant_3.png	63	animate	insect	ant	3	0	1	boats	4	incorrect	1.3447320885025
34141	1	stim157_inanimate_furniture_table_1.png	157	inanimate	furniture	table	1	0	1	boats	4	incorrect	1.3447320885025
34191	1	stim098_animate_mammal_rhino_2.png	98	animate	mammal	rhino	2	0	1	boats	4	incorrect	1.3447320885025
34241	1	stim100_animate_mammal_rhino_4.png	100	animate	mammal	rhino	4	0	1	boats	4	incorrect	1.3447320885025
34291	1	stim168_inanimate_plants_cactus_4.png	168	inanimate	plants	cactus	4	0	1	boats	4	incorrect	1.3447320885025
34341	1	stim175_inanimate_plants_tree_3.png	175	inanimate	plants	tree	3	0	1	boats	4	incorrect	1.3447320885025
34391	1	stim111_inanimate_clothing_jeans_3.png	111	inanimate	clothing	jeans	3	0	1	boats	4	incorrect	1.3447320885025
34441	1	stim028_animate_bird_duck_4.png	28	animate	bird	duck	4	0	1	boats	4	incorrect	1.3447320885025
34491	1	stim125_inanimate_fruits_banana_1.png	125	inanimate	fruits	banana	1	0	1	boats	4	incorrect	1.3447320885025
34541	1	stim122_inanimate_fruits_apple_2.png	122	inanimate	fruits	apple	2	0	1	boats	4	incorrect	1.3447320885025
34591	1	stim072_animate_insect_butterfly_4.png	72	animate	insect	butterfly	4	0	1	boats	4	incorrect	1.3447320885025
34641	1	stim199_inanimate_tools_wrench_3.png	199	inanimate	tools	wrench	3	0	1	boats	4	incorrect	1.3447320885025
34691	1	stim067_animate_insect_bug_3.png	67	animate	insect	bug	3	0	1	boats	4	incorrect	1.3447320885025
34741	1	stim057_animate_human_sports_1.png	57	animate	human	sports	1	0	1	boats	4	incorrect	1.3447320885025
34791	1	stim154_inanimate_furniture_sofa_2.png	154	inanimate	furniture	sofa	2	0	1	boats	4	incorrect	1.3447320885025
34841	1	stim014_animate_aquatic_shark_2.png	14	animate	aquatic	shark	2	0	1	boats	4	incorrect	1.3447320885025
34891	1	stim087_animate_mammal_giraffe_3.png	87	animate	mammal	giraffe	3	0	1	boats	4	incorrect	1.3447320885025
34941	1	stim082_animate_mammal_cow_2.png	82	animate	mammal	cow	2	0	1	boats	4	incorrect	1.3447320885025
34991	1	stim142_inanimate_furniture_bed_2.png	142	inanimate	furniture	bed	2	0	1	boats	4	incorrect	1.3447320885025
35041	1	stim136_inanimate_fruits_pineapple_4.png	136	inanimate	fruits	pineapple	4	0	1	boats	4	incorrect	1.3447320885025
35091	1	stim194_inanimate_tools_scissors_2.png	194	inanimate	tools	scissors	2	0	1	boats	4	incorrect	1.3447320885025
35141	1	stim008_animate_aquatic_fish_4.png	8	animate	aquatic	fish	4	0	1	boats	4	incorrect	1.3447320885025
35191	1	stim010_animate_aquatic_seahorse_2.png	10	animate	aquatic	seahorse	2	0	1	boats	4	incorrect	1.3447320885025
35241	1	stim076_animate_insect_dragonfly_4.png	76	animate	insect	dragonfly	4	0	1	boats	4	incorrect	1.3447320885025
35291	1	stim192_inanimate_tools_pan_4.png	192	inanimate	tools	pan	4	0	1	boats	4	incorrect	1.3447320885025
35341	1	stim172_inanimate_plants_sunflower_4.png	172	inanimate	plants	sunflower	4	0	1	boats	4	incorrect	1.3447320885025
35391	1	stim145_inanimate_furniture_chair_1.png	145	inanimate	furniture	chair	1	0	1	boats	4	incorrect	1.3447320885025
35441	1	stim013_animate_aquatic_shark_1.png	13	animate	aquatic	shark	1	0	1	boats	4	incorrect	1.3447320885025
35491	1	stim184_inanimate_tools_broom_4.png	184	inanimate	tools	broom	4	0	1	boats	4	incorrect	1.3447320885025
35541	1	stim006_animate_aquatic_fish_2.png	6	animate	aquatic	fish	2	0	1	boats	4	incorrect	1.3447320885025
35591	1	stim186_inanimate_tools_hammer_2.png	186	inanimate	tools	hammer	2	0	1	boats	4	incorrect	1.3447320885025
35641	1	stim140_inanimate_fruits_strawberry_4.png	140	inanimate	fruits	strawberry	4	0	1	boats	4	incorrect	1.3447320885025
35691	1	stim106_inanimate_clothing_hat_2.png	106	inanimate	clothing	hat	2	0	1	boats	4	incorrect	1.3447320885025
35741	1	stim001_animate_aquatic_crab_1.png	1	animate	aquatic	crab	1	0	1	boats	4	incorrect	1.3447320885025
35791	1	stim123_inanimate_fruits_apple_3.png	123	inanimate	fruits	apple	3	0	1	boats	4	incorrect	1.3447320885025
35841	1	stim119_inanimate_clothing_socks_3.png	119	inanimate	clothing	socks	3	0	1	boats	4	incorrect	1.3447320885025
35891	1	stim146_inanimate_furniture_chair_2.png	146	inanimate	furniture	chair	2	0	1	boats	4	incorrect	1.3447320885025
35941	1	stim052_animate_human_clown_4.png	52	animate	human	clown	4	0	1	boats	4	incorrect	1.3447320885025
35991	1	stim004_animate_aquatic_crab_4.png	4	animate	aquatic	crab	4	0	1	boats	4	incorrect	1.3447320885025
36041	1	stim007_animate_aquatic_fish_3.png	7	animate	aquatic	fish	3	0	1	boats	4	incorrect	1.3447320885025
36091	1	stim012_animate_aquatic_seahorse_4.png	12	animate	aquatic	seahorse	4	0	1	boats	4	incorrect	1.3447320885025
36141	1	stim088_animate_mammal_giraffe_4.png	88	animate	mammal	giraffe	4	0	1	boats	4	incorrect	1.3447320885025
36191	1	stim169_inanimate_plants_sunflower_1.png	169	inanimate	plants	sunflower	1	0	1	boats	4	incorrect	1.3447320885025
43558	1	stim102_inanimate_clothing_gloves_2.png	102	inanimate	clothing	gloves	2	0	2	boats	1	correct	1.29502416029572
43608	1	stim109_inanimate_clothing_jeans_1.png	109	inanimate	clothing	jeans	1	0	2	boats	1	correct	1.29502416029572
43658	1	stim091_animate_mammal_kangaroo_3.png	91	animate	mammal	kangaroo	3	0	2	boats	1	correct	1.29502416029572
43708	1	stim153_inanimate_furniture_sofa_1.png	153	inanimate	furniture	sofa	1	0	2	boats	1	correct	1.29502416029572
43758	1	stim081_animate_mammal_cow_1.png	81	animate	mammal	cow	1	0	2	boats	1	correct	1.29502416029572
43808	1	stim144_inanimate_furniture_bed_4.png	144	inanimate	furniture	bed	4	0	2	boats	1	correct	1.29502416029572
43858	1	stim023_animate_bird_chicken_3.png	23	animate	bird	chicken	3	0	2	boats	1	correct	1.29502416029572
43908	1	stim070_animate_insect_butterfly_2.png	70	animate	insect	butterfly	2	0	2	boats	1	correct	1.29502416029572
43958	1	stim078_animate_insect_grasshopper_2.png	78	animate	insect	grasshopper	2	0	2	boats	1	correct	1.29502416029572
44008	1	stim199_inanimate_tools_wrench_3.png	199	inanimate	tools	wrench	3	0	2	boats	1	correct	1.29502416029572
44058	1	stim113_inanimate_clothing_shirt_1.png	113	inanimate	clothing	shirt	1	0	2	boats	1	correct	1.29502416029572
44108	1	stim127_inanimate_fruits_banana_3.png	127	inanimate	fruits	banana	3	0	2	boats	1	correct	1.29502416029572
44158	1	stim166_inanimate_plants_cactus_2.png	166	inanimate	plants	cactus	2	0	2	boats	1	correct	1.29502416029572
44208	1	stim008_animate_aquatic_fish_4.png	8	animate	aquatic	fish	4	0	2	boats	1	correct	1.29502416029572
44258	1	stim093_animate_mammal_monkey_1.png	93	animate	mammal	monkey	1	0	2	boats	1	correct	1.29502416029572
44308	1	stim042_animate_human_baby_2.png	42	animate	human	baby	2	0	2	boats	1	correct	1.29502416029572
44358	1	stim049_animate_human_clown_1.png	49	animate	human	clown	1	0	2	boats	1	correct	1.29502416029572
44408	1	stim138_inanimate_fruits_strawberry_2.png	138	inanimate	fruits	strawberry	2	0	2	boats	1	correct	1.29502416029572
44458	1	stim191_inanimate_tools_pan_3.png	191	inanimate	tools	pan	3	0	2	boats	1	correct	1.29502416029572
44508	1	stim083_animate_mammal_cow_3.png	83	animate	mammal	cow	3	0	2	boats	1	correct	1.29502416029572
44558	1	stim095_animate_mammal_monkey_3.png	95	animate	mammal	monkey	3	0	2	boats	1	correct	1.29502416029572
44608	1	stim136_inanimate_fruits_pineapple_4.png	136	inanimate	fruits	pineapple	4	0	2	boats	1	correct	1.29502416029572
44658	1	stim167_inanimate_plants_cactus_3.png	167	inanimate	plants	cactus	3	0	2	boats	1	correct	1.29502416029572
44708	1	stim001_animate_aquatic_crab_1.png	1	animate	aquatic	crab	1	0	2	boats	1	correct	1.29502416029572
44758	1	stim178_inanimate_plants_tulip_2.png	178	inanimate	plants	tulip	2	0	2	boats	1	correct	1.29502416029572
44808	1	stim146_inanimate_furniture_chair_2.png	146	inanimate	furniture	chair	2	0	2	boats	1	correct	1.29502416029572
44858	1	stim186_inanimate_tools_hammer_2.png	186	inanimate	tools	hammer	2	0	2	boats	1	correct	1.29502416029572
44908	1	stim035_animate_bird_peacock_3.png	35	animate	bird	peacock	3	0	2	boats	1	correct	1.29502416029572
44958	1	stim106_inanimate_clothing_hat_2.png	106	inanimate	clothing	hat	2	0	2	boats	1	correct	1.29502416029572
45008	1	stim194_inanimate_tools_scissors_2.png	194	inanimate	tools	scissors	2	0	2	boats	1	correct	1.29502416029572
45058	1	stim015_animate_aquatic_shark_3.png	15	animate	aquatic	shark	3	0	2	boats	1	correct	1.29502416029572
45108	1	stim129_inanimate_fruits_grape_1.png	129	inanimate	fruits	grape	1	0	2	boats	1	correct	1.29502416029572
45158	1	stim165_inanimate_plants_cactus_1.png	165	inanimate	plants	cactus	1	0	2	boats	1	correct	1.29502416029572
45208	1	stim006_animate_aquatic_fish_2.png	6	animate	aquatic	fish	2	0	2	boats	1	correct	1.29502416029572
45258	1	stim090_animate_mammal_kangaroo_2.png	90	animate	mammal	kangaroo	2	0	2	boats	1	correct	1.29502416029572
45308	1	stim032_animate_bird_parrot_4.png	32	animate	bird	parrot	4	0	2	boats	1	correct	1.29502416029572
45358	1	stim128_inanimate_fruits_banana_4.png	128	inanimate	fruits	banana	4	0	2	boats	1	correct	1.29502416029572
45408	1	stim105_inanimate_clothing_hat_1.png	105	inanimate	clothing	hat	1	0	2	boats	1	correct	1.29502416029572
45458	1	stim160_inanimate_furniture_table_4.png	160	inanimate	furniture	table	4	0	2	boats	1	correct	1.29502416029572
45508	1	stim198_inanimate_tools_wrench_2.png	198	inanimate	tools	wrench	2	0	2	boats	1	correct	1.29502416029572
45558	1	stim085_animate_mammal_giraffe_1.png	85	animate	mammal	giraffe	1	0	2	boats	1	correct	1.29502416029572
45608	1	stim170_inanimate_plants_sunflower_2.png	170	inanimate	plants	sunflower	2	0	2	boats	1	correct	1.29502416029572
45658	1	stim071_animate_insect_butterfly_3.png	71	animate	insect	butterfly	3	0	2	boats	1	correct	1.29502416029572
45708	1	stim096_animate_mammal_monkey_4.png	96	animate	mammal	monkey	4	0	2	boats	1	correct	1.29502416029572
45758	1	stim060_animate_human_sports_4.png	60	animate	human	sports	4	0	2	boats	1	correct	1.29502416029572
45808	1	stim044_animate_human_baby_4.png	44	animate	human	baby	4	0	2	boats	1	correct	1.29502416029572
45858	1	stim133_inanimate_fruits_pineapple_1.png	133	inanimate	fruits	pineapple	1	0	2	boats	1	correct	1.29502416029572
45908	1	stim045_animate_human_child_1.png	45	animate	human	child	1	0	2	boats	1	correct	1.29502416029572
45958	1	stim097_animate_mammal_rhino_1.png	97	animate	mammal	rhino	1	0	2	boats	1	correct	1.29502416029572
46008	1	stim037_animate_bird_penguin_1.png	37	animate	bird	penguin	1	0	2	boats	1	correct	1.29502416029572
46058	1	stim031_animate_bird_parrot_3.png	31	animate	bird	parrot	3	0	2	boats	1	correct	1.29502416029572
46108	1	stim107_inanimate_clothing_hat_3.png	107	inanimate	clothing	hat	3	0	2	boats	1	correct	1.29502416029572
46158	1	stim098_animate_mammal_rhino_2.png	98	animate	mammal	rhino	2	0	2	boats	1	correct	1.29502416029572
46208	1	stim092_animate_mammal_kangaroo_4.png	92	animate	mammal	kangaroo	4	0	2	boats	1	correct	1.29502416029572
46258	1	stim200_inanimate_tools_wrench_4.png	200	inanimate	tools	wrench	4	0	2	boats	1	correct	1.29502416029572
46308	1	stim082_animate_mammal_cow_2.png	82	animate	mammal	cow	2	0	2	boats	1	correct	1.29502416029572
46358	1	stim047_animate_human_child_3.png	47	animate	human	child	3	0	2	boats	1	correct	1.29502416029572
46408	1	stim068_animate_insect_bug_4.png	68	animate	insect	bug	4	0	2	boats	1	correct	1.29502416029572
46458	1	stim065_animate_insect_bug_1.png	65	animate	insect	bug	1	0	2	boats	1	correct	1.29502416029572
46508	1	stim084_animate_mammal_cow_4.png	84	animate	mammal	cow	4	0	2	boats	1	correct	1.29502416029572
46558	1	stim007_animate_aquatic_fish_3.png	7	animate	aquatic	fish	3	0	2	boats	1	correct	1.29502416029572
46608	1	stim009_animate_aquatic_seahorse_1.png	9	animate	aquatic	seahorse	1	0	2	boats	1	correct	1.29502416029572
46658	1	stim004_animate_aquatic_crab_4.png	4	animate	aquatic	crab	4	0	2	boats	1	correct	1.29502416029572
46708	1	stim029_animate_bird_parrot_1.png	29	animate	bird	parrot	1	0	2	boats	1	correct	1.29502416029572
46758	1	stim183_inanimate_tools_broom_3.png	183	inanimate	tools	broom	3	0	2	boats	1	correct	1.29502416029572
46808	1	stim192_inanimate_tools_pan_4.png	192	inanimate	tools	pan	4	0	2	boats	1	correct	1.29502416029572
46858	1	stim177_inanimate_plants_tulip_1.png	177	inanimate	plants	tulip	1	0	2	boats	1	correct	1.29502416029572
46908	1	stim184_inanimate_tools_broom_4.png	184	inanimate	tools	broom	4	0	2	boats	1	correct	1.29502416029572
46958	1	stim154_inanimate_furniture_sofa_2.png	154	inanimate	furniture	sofa	2	0	2	boats	1	correct	1.29502416029572
47008	1	stim148_inanimate_furniture_chair_4.png	148	inanimate	furniture	chair	4	0	2	boats	1	correct	1.29502416029572
47058	1	stim080_animate_insect_grasshopper_4.png	80	animate	insect	grasshopper	4	0	2	boats	1	correct	1.29502416029572
47108	1	stim163_inanimate_plants_bush_3.png	163	inanimate	plants	bush	3	0	2	boats	1	correct	1.29502416029572
47158	1	stim126_inanimate_fruits_banana_2.png	126	inanimate	fruits	banana	2	0	2	boats	1	correct	1.29502416029572
47208	1	stim112_inanimate_clothing_jeans_4.png	112	inanimate	clothing	jeans	4	0	2	boats	1	correct	1.29502416029572
47258	1	stim028_animate_bird_duck_4.png	28	animate	bird	duck	4	0	2	boats	1	correct	1.29502416029572
47308	1	stim122_inanimate_fruits_apple_2.png	122	inanimate	fruits	apple	2	0	2	boats	1	correct	1.29502416029572
47358	1	stim040_animate_bird_penguin_4.png	40	animate	bird	penguin	4	0	2	boats	1	correct	1.29502416029572
47408	1	stim014_animate_aquatic_shark_2.png	14	animate	aquatic	shark	2	0	2	boats	1	correct	1.29502416029572
47458	1	stim120_inanimate_clothing_socks_4.png	120	inanimate	clothing	socks	4	0	2	boats	1	correct	1.29502416029572
47508	1	stim173_inanimate_plants_tree_1.png	173	inanimate	plants	tree	1	0	2	boats	1	correct	1.29502416029572
47558	1	stim116_inanimate_clothing_shirt_4.png	116	inanimate	clothing	shirt	4	0	2	boats	1	correct	1.29502416029572
47608	1	stim050_animate_human_clown_2.png	50	animate	human	clown	2	0	2	boats	1	correct	1.29502416029572
47658	1	stim193_inanimate_tools_scissors_1.png	193	inanimate	tools	scissors	1	0	2	boats	1	correct	1.29502416029572
47708	1	stim174_inanimate_plants_tree_2.png	174	inanimate	plants	tree	2	0	2	boats	1	correct	1.29502416029572
47758	1	stim041_animate_human_baby_1.png	41	animate	human	baby	1	0	2	boats	1	correct	1.29502416029572
47808	1	stim003_animate_aquatic_crab_3.png	3	animate	aquatic	crab	3	0	2	boats	1	correct	1.29502416029572
47858	1	stim114_inanimate_clothing_shirt_2.png	114	inanimate	clothing	shirt	2	0	2	boats	1	correct	1.29502416029572
47908	1	stim132_inanimate_fruits_grape_4.png	132	inanimate	fruits	grape	4	0	2	boats	1	correct	1.29502416029572
47958	1	stim143_inanimate_furniture_bed_3.png	143	inanimate	furniture	bed	3	0	2	boats	1	correct	1.29502416029572
48008	1	stim057_animate_human_sports_1.png	57	animate	human	sports	1	0	2	boats	1	correct	1.29502416029572
48058	1	stim072_animate_insect_butterfly_4.png	72	animate	insect	butterfly	4	0	2	boats	1	correct	1.29502416029572
48108	1	stim026_animate_bird_duck_2.png	26	animate	bird	duck	2	0	2	boats	1	correct	1.29502416029572
48158	1	stim013_animate_aquatic_shark_1.png	13	animate	aquatic	shark	1	0	2	boats	1	correct	1.29502416029572
48208	1	stim051_animate_human_clown_3.png	51	animate	human	clown	3	0	2	boats	1	correct	1.29502416029572
48258	1	stim089_animate_mammal_kangaroo_1.png	89	animate	mammal	kangaroo	1	0	2	boats	1	correct	1.29502416029572
48308	1	stim016_animate_aquatic_shark_4.png	16	animate	aquatic	shark	4	0	2	boats	1	correct	1.29502416029572
48358	1	stim181_inanimate_tools_broom_1.png	181	inanimate	tools	broom	1	0	2	boats	1	correct	1.29502416029572
48408	1	stim018_animate_aquatic_shrimp_2.png	18	animate	aquatic	shrimp	2	0	2	boats	1	correct	1.29502416029572
48458	1	stim002_animate_aquatic_crab_2.png	2	animate	aquatic	crab	2	0	2	boats	1	correct	1.29502416029572
48508	1	stim019_animate_aquatic_shrimp_3.png	19	animate	aquatic	shrimp	3	0	2	boats	1	correct	1.29502416029572
48558	1	stim203_targets_object_boats_3.png	203	targets	object	boats	3	1	2	boats	1	correct	1.29502416029572
48608	1	stim168_inanimate_plants_cactus_4.png	168	inanimate	plants	cactus	4	0	2	boats	1	correct	1.29502416029572
48658	1	stim062_animate_insect_ant_2.png	62	animate	insect	ant	2	0	2	boats	1	correct	1.29502416029572
48708	1	stim137_inanimate_fruits_strawberry_1.png	137	inanimate	fruits	strawberry	1	0	2	boats	1	correct	1.29502416029572
48758	1	stim048_animate_human_child_4.png	48	animate	human	child	4	0	2	boats	1	correct	1.29502416029572
48808	1	stim021_animate_bird_chicken_1.png	21	animate	bird	chicken	1	0	2	boats	1	correct	1.29502416029572
48858	1	stim196_inanimate_tools_scissors_4.png	196	inanimate	tools	scissors	4	0	2	boats	1	correct	1.29502416029572
48908	1	stim069_animate_insect_butterfly_1.png	69	animate	insect	butterfly	1	0	2	boats	1	correct	1.29502416029572
48958	1	stim073_animate_insect_dragonfly_1.png	73	animate	insect	dragonfly	1	0	2	boats	1	correct	1.29502416029572
49008	1	stim134_inanimate_fruits_pineapple_2.png	134	inanimate	fruits	pineapple	2	0	2	boats	1	correct	1.29502416029572
49058	1	stim053_animate_human_faces_1.png	53	animate	human	faces	1	0	2	boats	1	correct	1.29502416029572
49108	1	stim075_animate_insect_dragonfly_3.png	75	animate	insect	dragonfly	3	0	2	boats	1	correct	1.29502416029572
49158	1	stim171_inanimate_plants_sunflower_3.png	171	inanimate	plants	sunflower	3	0	2	boats	1	correct	1.29502416029572
49208	1	stim130_inanimate_fruits_grape_2.png	130	inanimate	fruits	grape	2	0	2	boats	1	correct	1.29502416029572
49258	1	stim079_animate_insect_grasshopper_3.png	79	animate	insect	grasshopper	3	0	2	boats	1	correct	1.29502416029572
49308	1	stim152_inanimate_furniture_closet_4.png	152	inanimate	furniture	closet	4	0	2	boats	1	correct	1.29502416029572
49358	1	stim142_inanimate_furniture_bed_2.png	142	inanimate	furniture	bed	2	0	2	boats	1	correct	1.29502416029572
49408	1	stim139_inanimate_fruits_strawberry_3.png	139	inanimate	fruits	strawberry	3	0	2	boats	1	correct	1.29502416029572
49458	1	stim033_animate_bird_peacock_1.png	33	animate	bird	peacock	1	0	2	boats	1	correct	1.29502416029572
49508	1	stim190_inanimate_tools_pan_2.png	190	inanimate	tools	pan	2	0	2	boats	1	correct	1.29502416029572
49558	1	stim121_inanimate_fruits_apple_1.png	121	inanimate	fruits	apple	1	0	2	boats	1	correct	1.29502416029572
49608	1	stim086_animate_mammal_giraffe_2.png	86	animate	mammal	giraffe	2	0	2	boats	1	correct	1.29502416029572
49658	1	stim151_inanimate_furniture_closet_3.png	151	inanimate	furniture	closet	3	0	2	boats	1	correct	1.29502416029572
49708	1	stim185_inanimate_tools_hammer_1.png	185	inanimate	tools	hammer	1	0	2	boats	1	correct	1.29502416029572
49758	1	stim046_animate_human_child_2.png	46	animate	human	child	2	0	2	boats	1	correct	1.29502416029572
49808	1	stim059_animate_human_sports_3.png	59	animate	human	sports	3	0	2	boats	1	correct	1.29502416029572
49858	1	stim131_inanimate_fruits_grape_3.png	131	inanimate	fruits	grape	3	0	2	boats	1	correct	1.29502416029572
49908	1	stim147_inanimate_furniture_chair_3.png	147	inanimate	furniture	chair	3	0	2	boats	1	correct	1.29502416029572
49958	1	stim141_inanimate_furniture_bed_1.png	141	inanimate	furniture	bed	1	0	2	boats	1	correct	1.29502416029572
50008	1	stim099_animate_mammal_rhino_3.png	99	animate	mammal	rhino	3	0	2	boats	1	correct	1.29502416029572
50058	1	stim161_inanimate_plants_bush_1.png	161	inanimate	plants	bush	1	0	2	boats	1	correct	1.29502416029572
50108	1	stim118_inanimate_clothing_socks_2.png	118	inanimate	clothing	socks	2	0	2	boats	1	correct	1.29502416029572
50158	1	stim039_animate_bird_penguin_3.png	39	animate	bird	penguin	3	0	2	boats	1	correct	1.29502416029572
50208	1	stim125_inanimate_fruits_banana_1.png	125	inanimate	fruits	banana	1	0	2	boats	1	correct	1.29502416029572
50258	1	stim115_inanimate_clothing_shirt_3.png	115	inanimate	clothing	shirt	3	0	2	boats	1	correct	1.29502416029572
50308	1	stim140_inanimate_fruits_strawberry_4.png	140	inanimate	fruits	strawberry	4	0	2	boats	1	correct	1.29502416029572
50358	1	stim195_inanimate_tools_scissors_3.png	195	inanimate	tools	scissors	3	0	2	boats	1	correct	1.29502416029572
50408	1	stim108_inanimate_clothing_hat_4.png	108	inanimate	clothing	hat	4	0	2	boats	1	correct	1.29502416029572
50458	1	stim158_inanimate_furniture_table_2.png	158	inanimate	furniture	table	2	0	2	boats	1	correct	1.29502416029572
50508	1	stim172_inanimate_plants_sunflower_4.png	172	inanimate	plants	sunflower	4	0	2	boats	1	correct	1.29502416029572
50558	1	stim176_inanimate_plants_tree_4.png	176	inanimate	plants	tree	4	0	2	boats	1	correct	1.29502416029572
50608	1	stim189_inanimate_tools_pan_1.png	189	inanimate	tools	pan	1	0	2	boats	1	correct	1.29502416029572
50658	1	stim030_animate_bird_parrot_2.png	30	animate	bird	parrot	2	0	2	boats	1	correct	1.29502416029572
50708	1	stim155_inanimate_furniture_sofa_3.png	155	inanimate	furniture	sofa	3	0	2	boats	1	correct	1.29502416029572
50758	1	stim157_inanimate_furniture_table_1.png	157	inanimate	furniture	table	1	0	2	boats	1	correct	1.29502416029572
50808	1	stim063_animate_insect_ant_3.png	63	animate	insect	ant	3	0	2	boats	1	correct	1.29502416029572
50858	1	stim180_inanimate_plants_tulip_4.png	180	inanimate	plants	tulip	4	0	2	boats	1	correct	1.29502416029572
50908	1	stim088_animate_mammal_giraffe_4.png	88	animate	mammal	giraffe	4	0	2	boats	1	correct	1.29502416029572
50958	1	stim074_animate_insect_dragonfly_2.png	74	animate	insect	dragonfly	2	0	2	boats	1	correct	1.29502416029572
51008	1	stim117_inanimate_clothing_socks_1.png	117	inanimate	clothing	socks	1	0	2	boats	1	correct	1.29502416029572
51059	1	stim111_inanimate_clothing_jeans_3.png	111	inanimate	clothing	jeans	3	0	2	boats	1	correct	1.29502416029572
51108	1	stim043_animate_human_baby_3.png	43	animate	human	baby	3	0	2	boats	1	correct	1.29502416029572
51158	1	stim012_animate_aquatic_seahorse_4.png	12	animate	aquatic	seahorse	4	0	2	boats	1	correct	1.29502416029572
51208	1	stim164_inanimate_plants_bush_4.png	164	inanimate	plants	bush	4	0	2	boats	1	correct	1.29502416029572
51258	1	stim094_animate_mammal_monkey_2.png	94	animate	mammal	monkey	2	0	2	boats	1	correct	1.29502416029572
51308	1	stim067_animate_insect_bug_3.png	67	animate	insect	bug	3	0	2	boats	1	correct	1.29502416029572
51358	1	stim076_animate_insect_dragonfly_4.png	76	animate	insect	dragonfly	4	0	2	boats	1	correct	1.29502416029572
51408	1	stim197_inanimate_tools_wrench_1.png	197	inanimate	tools	wrench	1	0	2	boats	1	correct	1.29502416029572
51458	1	stim100_animate_mammal_rhino_4.png	100	animate	mammal	rhino	4	0	2	boats	1	correct	1.29502416029572
51508	1	stim110_inanimate_clothing_jeans_2.png	110	inanimate	clothing	jeans	2	0	2	boats	1	correct	1.29502416029572
51558	1	stim038_animate_bird_penguin_2.png	38	animate	bird	penguin	2	0	2	boats	1	correct	1.29502416029572
51608	1	stim024_animate_bird_chicken_4.png	24	animate	bird	chicken	4	0	2	boats	1	correct	1.29502416029572
51658	1	stim025_animate_bird_duck_1.png	25	animate	bird	duck	1	0	2	boats	1	correct	1.29502416029572
51708	1	stim058_animate_human_sports_2.png	58	animate	human	sports	2	0	2	boats	1	correct	1.29502416029572
51758	1	stim010_animate_aquatic_seahorse_2.png	10	animate	aquatic	seahorse	2	0	2	boats	1	correct	1.29502416029572
51808	1	stim027_animate_bird_duck_3.png	27	animate	bird	duck	3	0	2	boats	1	correct	1.29502416029572
51859	1	stim104_inanimate_clothing_gloves_4.png	104	inanimate	clothing	gloves	4	0	2	boats	1	correct	1.29502416029572
51908	1	stim150_inanimate_furniture_closet_2.png	150	inanimate	furniture	closet	2	0	2	boats	1	correct	1.29502416029572
51958	1	stim077_animate_insect_grasshopper_1.png	77	animate	insect	grasshopper	1	0	2	boats	1	correct	1.29502416029572
52009	1	stim182_inanimate_tools_broom_2.png	182	inanimate	tools	broom	2	0	2	boats	1	correct	1.29502416029572
52058	1	stim066_animate_insect_bug_2.png	66	animate	insect	bug	2	0	2	boats	1	correct	1.29502416029572
52108	1	stim022_animate_bird_chicken_2.png	22	animate	bird	chicken	2	0	2	boats	1	correct	1.29502416029572
52158	1	stim145_inanimate_furniture_chair_1.png	145	inanimate	furniture	chair	1	0	2	boats	1	correct	1.29502416029572
52209	1	stim162_inanimate_plants_bush_2.png	162	inanimate	plants	bush	2	0	2	boats	1	correct	1.29502416029572
52259	1	stim054_animate_human_faces_2.png	54	animate	human	faces	2	0	2	boats	1	correct	1.29502416029572
52309	1	stim020_animate_aquatic_shrimp_4.png	20	animate	aquatic	shrimp	4	0	2	boats	1	correct	1.29502416029572
52359	1	stim034_animate_bird_peacock_2.png	34	animate	bird	peacock	2	0	2	boats	1	correct	1.29502416029572
52408	1	stim052_animate_human_clown_4.png	52	animate	human	clown	4	0	2	boats	1	correct	1.29502416029572
52459	1	stim188_inanimate_tools_hammer_4.png	188	inanimate	tools	hammer	4	0	2	boats	1	correct	1.29502416029572
52509	1	stim101_inanimate_clothing_gloves_1.png	101	inanimate	clothing	gloves	1	0	2	boats	1	correct	1.29502416029572
52559	1	stim187_inanimate_tools_hammer_3.png	187	inanimate	tools	hammer	3	0	2	boats	1	correct	1.29502416029572
52609	1	stim149_inanimate_furniture_closet_1.png	149	inanimate	furniture	closet	1	0	2	boats	1	correct	1.29502416029572
52659	1	stim056_animate_human_faces_4.png	56	animate	human	faces	4	0	2	boats	1	correct	1.29502416029572
52709	1	stim135_inanimate_fruits_pineapple_3.png	135	inanimate	fruits	pineapple	3	0	2	boats	1	correct	1.29502416029572
52759	1	stim017_animate_aquatic_shrimp_1.png	17	animate	aquatic	shrimp	1	0	2	boats	1	correct	1.29502416029572
52808	1	stim119_inanimate_clothing_socks_3.png	119	inanimate	clothing	socks	3	0	2	boats	1	correct	1.29502416029572
52859	1	stim156_inanimate_furniture_sofa_4.png	156	inanimate	furniture	sofa	4	0	2	boats	1	correct	1.29502416029572
52909	1	stim123_inanimate_fruits_apple_3.png	123	inanimate	fruits	apple	3	0	2	boats	1	correct	1.29502416029572
52959	1	stim103_inanimate_clothing_gloves_3.png	103	inanimate	clothing	gloves	3	0	2	boats	1	correct	1.29502416029572
53009	1	stim061_animate_insect_ant_1.png	61	animate	insect	ant	1	0	2	boats	1	correct	1.29502416029572
53059	1	stim175_inanimate_plants_tree_3.png	175	inanimate	plants	tree	3	0	2	boats	1	correct	1.29502416029572
53109	1	stim055_animate_human_faces_3.png	55	animate	human	faces	3	0	2	boats	1	correct	1.29502416029572
53159	1	stim011_animate_aquatic_seahorse_3.png	11	animate	aquatic	seahorse	3	0	2	boats	1	correct	1.29502416029572
53209	1	stim036_animate_bird_peacock_4.png	36	animate	bird	peacock	4	0	2	boats	1	correct	1.29502416029572
53259	1	stim179_inanimate_plants_tulip_3.png	179	inanimate	plants	tulip	3	0	2	boats	1	correct	1.29502416029572
53309	1	stim124_inanimate_fruits_apple_4.png	124	inanimate	fruits	apple	4	0	2	boats	1	correct	1.29502416029572
53359	1	stim169_inanimate_plants_sunflower_1.png	169	inanimate	plants	sunflower	1	0	2	boats	1	correct	1.29502416029572
53409	1	stim087_animate_mammal_giraffe_3.png	87	animate	mammal	giraffe	3	0	2	boats	1	correct	1.29502416029572
53459	1	stim064_animate_insect_ant_4.png	64	animate	insect	ant	4	0	2	boats	1	correct	1.29502416029572
53509	1	stim159_inanimate_furniture_table_3.png	159	inanimate	furniture	table	3	0	2	boats	1	correct	1.29502416029572
53559	1	stim005_animate_aquatic_fish_1.png	5	animate	aquatic	fish	1	0	2	boats	1	correct	1.29502416029572
59409	1	stim120_inanimate_clothing_socks_4.png	120	inanimate	clothing	socks	4	0	3	stars	2	incorrect	1.31742954324
59459	1	stim001_animate_aquatic_crab_1.png	1	animate	aquatic	crab	1	0	3	stars	2	incorrect	1.31742954324
59509	1	stim177_inanimate_plants_tulip_1.png	177	inanimate	plants	tulip	1	0	3	stars	2	incorrect	1.31742954324
59559	1	stim113_inanimate_clothing_shirt_1.png	113	inanimate	clothing	shirt	1	0	3	stars	2	incorrect	1.31742954324
59609	1	stim143_inanimate_furniture_bed_3.png	143	inanimate	furniture	bed	3	0	3	stars	2	incorrect	1.31742954324
59659	1	stim165_inanimate_plants_cactus_1.png	165	inanimate	plants	cactus	1	0	3	stars	2	incorrect	1.31742954324
59709	1	stim037_animate_bird_penguin_1.png	37	animate	bird	penguin	1	0	3	stars	2	incorrect	1.31742954324
59759	1	stim008_animate_aquatic_fish_4.png	8	animate	aquatic	fish	4	0	3	stars	2	incorrect	1.31742954324
59809	1	stim081_animate_mammal_cow_1.png	81	animate	mammal	cow	1	0	3	stars	2	incorrect	1.31742954324
59859	1	stim118_inanimate_clothing_socks_2.png	118	inanimate	clothing	socks	2	0	3	stars	2	incorrect	1.31742954324
59909	1	stim115_inanimate_clothing_shirt_3.png	115	inanimate	clothing	shirt	3	0	3	stars	2	incorrect	1.31742954324
59959	1	stim131_inanimate_fruits_grape_3.png	131	inanimate	fruits	grape	3	0	3	stars	2	incorrect	1.31742954324
60009	1	stim190_inanimate_tools_pan_2.png	190	inanimate	tools	pan	2	0	3	stars	2	incorrect	1.31742954324
60059	1	stim110_inanimate_clothing_jeans_2.png	110	inanimate	clothing	jeans	2	0	3	stars	2	incorrect	1.31742954324
60109	1	stim009_animate_aquatic_seahorse_1.png	9	animate	aquatic	seahorse	1	0	3	stars	2	incorrect	1.31742954324
60159	1	stim146_inanimate_furniture_chair_2.png	146	inanimate	furniture	chair	2	0	3	stars	2	incorrect	1.31742954324
60209	1	stim136_inanimate_fruits_pineapple_4.png	136	inanimate	fruits	pineapple	4	0	3	stars	2	incorrect	1.31742954324
60259	1	stim095_animate_mammal_monkey_3.png	95	animate	mammal	monkey	3	0	3	stars	2	incorrect	1.31742954324
60309	1	stim022_animate_bird_chicken_2.png	22	animate	bird	chicken	2	0	3	stars	2	incorrect	1.31742954324
60359	1	stim091_animate_mammal_kangaroo_3.png	91	animate	mammal	kangaroo	3	0	3	stars	2	incorrect	1.31742954324
60409	1	stim055_animate_human_faces_3.png	55	animate	human	faces	3	0	3	stars	2	incorrect	1.31742954324
60459	1	stim051_animate_human_clown_3.png	51	animate	human	clown	3	0	3	stars	2	incorrect	1.31742954324
60509	1	stim090_animate_mammal_kangaroo_2.png	90	animate	mammal	kangaroo	2	0	3	stars	2	incorrect	1.31742954324
60559	1	stim042_animate_human_baby_2.png	42	animate	human	baby	2	0	3	stars	2	incorrect	1.31742954324
60609	1	stim135_inanimate_fruits_pineapple_3.png	135	inanimate	fruits	pineapple	3	0	3	stars	2	incorrect	1.31742954324
60659	1	stim168_inanimate_plants_cactus_4.png	168	inanimate	plants	cactus	4	0	3	stars	2	incorrect	1.31742954324
60709	1	stim046_animate_human_child_2.png	46	animate	human	child	2	0	3	stars	2	incorrect	1.31742954324
60759	1	stim093_animate_mammal_monkey_1.png	93	animate	mammal	monkey	1	0	3	stars	2	incorrect	1.31742954324
60809	1	stim053_animate_human_faces_1.png	53	animate	human	faces	1	0	3	stars	2	incorrect	1.31742954324
60859	1	stim047_animate_human_child_3.png	47	animate	human	child	3	0	3	stars	2	incorrect	1.31742954324
60909	1	stim062_animate_insect_ant_2.png	62	animate	insect	ant	2	0	3	stars	2	incorrect	1.31742954324
60959	1	stim029_animate_bird_parrot_1.png	29	animate	bird	parrot	1	0	3	stars	2	incorrect	1.31742954324
61009	1	stim010_animate_aquatic_seahorse_2.png	10	animate	aquatic	seahorse	2	0	3	stars	2	incorrect	1.31742954324
61059	1	stim005_animate_aquatic_fish_1.png	5	animate	aquatic	fish	1	0	3	stars	2	incorrect	1.31742954324
61109	1	stim087_animate_mammal_giraffe_3.png	87	animate	mammal	giraffe	3	0	3	stars	2	incorrect	1.31742954324
61159	1	stim041_animate_human_baby_1.png	41	animate	human	baby	1	0	3	stars	2	incorrect	1.31742954324
61209	1	stim127_inanimate_fruits_banana_3.png	127	inanimate	fruits	banana	3	0	3	stars	2	incorrect	1.31742954324
61259	1	stim021_animate_bird_chicken_1.png	21	animate	bird	chicken	1	0	3	stars	2	incorrect	1.31742954324
61309	1	stim073_animate_insect_dragonfly_1.png	73	animate	insect	dragonfly	1	0	3	stars	2	incorrect	1.31742954324
61359	1	stim101_inanimate_clothing_gloves_1.png	101	inanimate	clothing	gloves	1	0	3	stars	2	incorrect	1.31742954324
61409	1	stim128_inanimate_fruits_banana_4.png	128	inanimate	fruits	banana	4	0	3	stars	2	incorrect	1.31742954324
61459	1	stim112_inanimate_clothing_jeans_4.png	112	inanimate	clothing	jeans	4	0	3	stars	2	incorrect	1.31742954324
61509	1	stim020_animate_aquatic_shrimp_4.png	20	animate	aquatic	shrimp	4	0	3	stars	2	incorrect	1.31742954324
61559	1	stim183_inanimate_tools_broom_3.png	183	inanimate	tools	broom	3	0	3	stars	2	incorrect	1.31742954324
61609	1	stim133_inanimate_fruits_pineapple_1.png	133	inanimate	fruits	pineapple	1	0	3	stars	2	incorrect	1.31742954324
61659	1	stim032_animate_bird_parrot_4.png	32	animate	bird	parrot	4	0	3	stars	2	incorrect	1.31742954324
61709	1	stim028_animate_bird_duck_4.png	28	animate	bird	duck	4	0	3	stars	2	incorrect	1.31742954324
61759	1	stim068_animate_insect_bug_4.png	68	animate	insect	bug	4	0	3	stars	2	incorrect	1.31742954324
61809	1	stim170_inanimate_plants_sunflower_2.png	170	inanimate	plants	sunflower	2	0	3	stars	2	incorrect	1.31742954324
61859	1	stim085_animate_mammal_giraffe_1.png	85	animate	mammal	giraffe	1	0	3	stars	2	incorrect	1.31742954324
61909	1	stim178_inanimate_plants_tulip_2.png	178	inanimate	plants	tulip	2	0	3	stars	2	incorrect	1.31742954324
61959	1	stim069_animate_insect_butterfly_1.png	69	animate	insect	butterfly	1	0	3	stars	2	incorrect	1.31742954324
62009	1	stim036_animate_bird_peacock_4.png	36	animate	bird	peacock	4	0	3	stars	2	incorrect	1.31742954324
62059	1	stim058_animate_human_sports_2.png	58	animate	human	sports	2	0	3	stars	2	incorrect	1.31742954324
62109	1	stim157_inanimate_furniture_table_1.png	157	inanimate	furniture	table	1	0	3	stars	2	incorrect	1.31742954324
62159	1	stim109_inanimate_clothing_jeans_1.png	109	inanimate	clothing	jeans	1	0	3	stars	2	incorrect	1.31742954324
62209	1	stim084_animate_mammal_cow_4.png	84	animate	mammal	cow	4	0	3	stars	2	incorrect	1.31742954324
62259	1	stim154_inanimate_furniture_sofa_2.png	154	inanimate	furniture	sofa	2	0	3	stars	2	incorrect	1.31742954324
62309	1	stim179_inanimate_plants_tulip_3.png	179	inanimate	plants	tulip	3	0	3	stars	2	incorrect	1.31742954324
62359	1	stim098_animate_mammal_rhino_2.png	98	animate	mammal	rhino	2	0	3	stars	2	incorrect	1.31742954324
62409	1	stim026_animate_bird_duck_2.png	26	animate	bird	duck	2	0	3	stars	2	incorrect	1.31742954324
62459	1	stim003_animate_aquatic_crab_3.png	3	animate	aquatic	crab	3	0	3	stars	2	incorrect	1.31742954324
62509	1	stim099_animate_mammal_rhino_3.png	99	animate	mammal	rhino	3	0	3	stars	2	incorrect	1.31742954324
62559	1	stim102_inanimate_clothing_gloves_2.png	102	inanimate	clothing	gloves	2	0	3	stars	2	incorrect	1.31742954324
62609	1	stim014_animate_aquatic_shark_2.png	14	animate	aquatic	shark	2	0	3	stars	2	incorrect	1.31742954324
62659	1	stim160_inanimate_furniture_table_4.png	160	inanimate	furniture	table	4	0	3	stars	2	incorrect	1.31742954324
62709	1	stim145_inanimate_furniture_chair_1.png	145	inanimate	furniture	chair	1	0	3	stars	2	incorrect	1.31742954324
62759	1	stim121_inanimate_fruits_apple_1.png	121	inanimate	fruits	apple	1	0	3	stars	2	incorrect	1.31742954324
62809	1	stim013_animate_aquatic_shark_1.png	13	animate	aquatic	shark	1	0	3	stars	2	incorrect	1.31742954324
62859	1	stim122_inanimate_fruits_apple_2.png	122	inanimate	fruits	apple	2	0	3	stars	2	incorrect	1.31742954324
62909	1	stim048_animate_human_child_4.png	48	animate	human	child	4	0	3	stars	2	incorrect	1.31742954324
62959	1	stim108_inanimate_clothing_hat_4.png	108	inanimate	clothing	hat	4	0	3	stars	2	incorrect	1.31742954324
63009	1	stim002_animate_aquatic_crab_2.png	2	animate	aquatic	crab	2	0	3	stars	2	incorrect	1.31742954324
63059	1	stim166_inanimate_plants_cactus_2.png	166	inanimate	plants	cactus	2	0	3	stars	2	incorrect	1.31742954324
63109	1	stim182_inanimate_tools_broom_2.png	182	inanimate	tools	broom	2	0	3	stars	2	incorrect	1.31742954324
63159	1	stim106_inanimate_clothing_hat_2.png	106	inanimate	clothing	hat	2	0	3	stars	2	incorrect	1.31742954324
63209	1	stim169_inanimate_plants_sunflower_1.png	169	inanimate	plants	sunflower	1	0	3	stars	2	incorrect	1.31742954324
63259	1	stim130_inanimate_fruits_grape_2.png	130	inanimate	fruits	grape	2	0	3	stars	2	incorrect	1.31742954324
63309	1	stim192_inanimate_tools_pan_4.png	192	inanimate	tools	pan	4	0	3	stars	2	incorrect	1.31742954324
63359	1	stim035_animate_bird_peacock_3.png	35	animate	bird	peacock	3	0	3	stars	2	incorrect	1.31742954324
63409	1	stim111_inanimate_clothing_jeans_3.png	111	inanimate	clothing	jeans	3	0	3	stars	2	incorrect	1.31742954324
63459	1	stim089_animate_mammal_kangaroo_1.png	89	animate	mammal	kangaroo	1	0	3	stars	2	incorrect	1.31742954324
63509	1	stim031_animate_bird_parrot_3.png	31	animate	bird	parrot	3	0	3	stars	2	incorrect	1.31742954324
63559	1	stim124_inanimate_fruits_apple_4.png	124	inanimate	fruits	apple	4	0	3	stars	2	incorrect	1.31742954324
63609	1	stim057_animate_human_sports_1.png	57	animate	human	sports	1	0	3	stars	2	incorrect	1.31742954324
63659	1	stim196_inanimate_tools_scissors_4.png	196	inanimate	tools	scissors	4	0	3	stars	2	incorrect	1.31742954324
63709	1	stim067_animate_insect_bug_3.png	67	animate	insect	bug	3	0	3	stars	2	incorrect	1.31742954324
63759	1	stim065_animate_insect_bug_1.png	65	animate	insect	bug	1	0	3	stars	2	incorrect	1.31742954324
63809	1	stim153_inanimate_furniture_sofa_1.png	153	inanimate	furniture	sofa	1	0	3	stars	2	incorrect	1.31742954324
63859	1	stim163_inanimate_plants_bush_3.png	163	inanimate	plants	bush	3	0	3	stars	2	incorrect	1.31742954324
63909	1	stim061_animate_insect_ant_1.png	61	animate	insect	ant	1	0	3	stars	2	incorrect	1.31742954324
63959	1	stim078_animate_insect_grasshopper_2.png	78	animate	insect	grasshopper	2	0	3	stars	2	incorrect	1.31742954324
64009	1	stim189_inanimate_tools_pan_1.png	189	inanimate	tools	pan	1	0	3	stars	2	incorrect	1.31742954324
64059	1	stim197_inanimate_tools_wrench_1.png	197	inanimate	tools	wrench	1	0	3	stars	2	incorrect	1.31742954324
64109	1	stim060_animate_human_sports_4.png	60	animate	human	sports	4	0	3	stars	2	incorrect	1.31742954324
64159	1	stim086_animate_mammal_giraffe_2.png	86	animate	mammal	giraffe	2	0	3	stars	2	incorrect	1.31742954324
64209	1	stim212_targets_shapes_star_4.png	212	targets	shapes	star	4	1	3	stars	2	incorrect	1.31742954324
64259	1	stim088_animate_mammal_giraffe_4.png	88	animate	mammal	giraffe	4	0	3	stars	2	incorrect	1.31742954324
64309	1	stim186_inanimate_tools_hammer_2.png	186	inanimate	tools	hammer	2	0	3	stars	2	incorrect	1.31742954324
64359	1	stim156_inanimate_furniture_sofa_4.png	156	inanimate	furniture	sofa	4	0	3	stars	2	incorrect	1.31742954324
64409	1	stim070_animate_insect_butterfly_2.png	70	animate	insect	butterfly	2	0	3	stars	2	incorrect	1.31742954324
64459	1	stim105_inanimate_clothing_hat_1.png	105	inanimate	clothing	hat	1	0	3	stars	2	incorrect	1.31742954324
64509	1	stim155_inanimate_furniture_sofa_3.png	155	inanimate	furniture	sofa	3	0	3	stars	2	incorrect	1.31742954324
64559	1	stim174_inanimate_plants_tree_2.png	174	inanimate	plants	tree	2	0	3	stars	2	incorrect	1.31742954324
64609	1	stim150_inanimate_furniture_closet_2.png	150	inanimate	furniture	closet	2	0	3	stars	2	incorrect	1.31742954324
64659	1	stim007_animate_aquatic_fish_3.png	7	animate	aquatic	fish	3	0	3	stars	2	incorrect	1.31742954324
64709	1	stim063_animate_insect_ant_3.png	63	animate	insect	ant	3	0	3	stars	2	incorrect	1.31742954324
64759	1	stim148_inanimate_furniture_chair_4.png	148	inanimate	furniture	chair	4	0	3	stars	2	incorrect	1.31742954324
64809	1	stim125_inanimate_fruits_banana_1.png	125	inanimate	fruits	banana	1	0	3	stars	2	incorrect	1.31742954324
64859	1	stim180_inanimate_plants_tulip_4.png	180	inanimate	plants	tulip	4	0	3	stars	2	incorrect	1.31742954324
64909	1	stim188_inanimate_tools_hammer_4.png	188	inanimate	tools	hammer	4	0	3	stars	2	incorrect	1.31742954324
64959	1	stim123_inanimate_fruits_apple_3.png	123	inanimate	fruits	apple	3	0	3	stars	2	incorrect	1.31742954324
65009	1	stim040_animate_bird_penguin_4.png	40	animate	bird	penguin	4	0	3	stars	2	incorrect	1.31742954324
65059	1	stim144_inanimate_furniture_bed_4.png	144	inanimate	furniture	bed	4	0	3	stars	2	incorrect	1.31742954324
65109	1	stim139_inanimate_fruits_strawberry_3.png	139	inanimate	fruits	strawberry	3	0	3	stars	2	incorrect	1.31742954324
65159	1	stim025_animate_bird_duck_1.png	25	animate	bird	duck	1	0	3	stars	2	incorrect	1.31742954324
65209	1	stim079_animate_insect_grasshopper_3.png	79	animate	insect	grasshopper	3	0	3	stars	2	incorrect	1.31742954324
65259	1	stim096_animate_mammal_monkey_4.png	96	animate	mammal	monkey	4	0	3	stars	2	incorrect	1.31742954324
65309	1	stim140_inanimate_fruits_strawberry_4.png	140	inanimate	fruits	strawberry	4	0	3	stars	2	incorrect	1.31742954324
65359	1	stim092_animate_mammal_kangaroo_4.png	92	animate	mammal	kangaroo	4	0	3	stars	2	incorrect	1.31742954324
65409	1	stim134_inanimate_fruits_pineapple_2.png	134	inanimate	fruits	pineapple	2	0	3	stars	2	incorrect	1.31742954324
65459	1	stim107_inanimate_clothing_hat_3.png	107	inanimate	clothing	hat	3	0	3	stars	2	incorrect	1.31742954324
65509	1	stim011_animate_aquatic_seahorse_3.png	11	animate	aquatic	seahorse	3	0	3	stars	2	incorrect	1.31742954324
65559	1	stim141_inanimate_furniture_bed_1.png	141	inanimate	furniture	bed	1	0	3	stars	2	incorrect	1.31742954324
65609	1	stim030_animate_bird_parrot_2.png	30	animate	bird	parrot	2	0	3	stars	2	incorrect	1.31742954324
65659	1	stim147_inanimate_furniture_chair_3.png	147	inanimate	furniture	chair	3	0	3	stars	2	incorrect	1.31742954324
65709	1	stim072_animate_insect_butterfly_4.png	72	animate	insect	butterfly	4	0	3	stars	2	incorrect	1.31742954324
65759	1	stim152_inanimate_furniture_closet_4.png	152	inanimate	furniture	closet	4	0	3	stars	2	incorrect	1.31742954324
65809	1	stim027_animate_bird_duck_3.png	27	animate	bird	duck	3	0	3	stars	2	incorrect	1.31742954324
65859	1	stim023_animate_bird_chicken_3.png	23	animate	bird	chicken	3	0	3	stars	2	incorrect	1.31742954324
65909	1	stim191_inanimate_tools_pan_3.png	191	inanimate	tools	pan	3	0	3	stars	2	incorrect	1.31742954324
65959	1	stim172_inanimate_plants_sunflower_4.png	172	inanimate	plants	sunflower	4	0	3	stars	2	incorrect	1.31742954324
66009	1	stim142_inanimate_furniture_bed_2.png	142	inanimate	furniture	bed	2	0	3	stars	2	incorrect	1.31742954324
66059	1	stim129_inanimate_fruits_grape_1.png	129	inanimate	fruits	grape	1	0	3	stars	2	incorrect	1.31742954324
66109	1	stim045_animate_human_child_1.png	45	animate	human	child	1	0	3	stars	2	incorrect	1.31742954324
66159	1	stim006_animate_aquatic_fish_2.png	6	animate	aquatic	fish	2	0	3	stars	2	incorrect	1.31742954324
66209	1	stim116_inanimate_clothing_shirt_4.png	116	inanimate	clothing	shirt	4	0	3	stars	2	incorrect	1.31742954324
66259	1	stim059_animate_human_sports_3.png	59	animate	human	sports	3	0	3	stars	2	incorrect	1.31742954324
66309	1	stim181_inanimate_tools_broom_1.png	181	inanimate	tools	broom	1	0	3	stars	2	incorrect	1.31742954324
66359	1	stim024_animate_bird_chicken_4.png	24	animate	bird	chicken	4	0	3	stars	2	incorrect	1.31742954324
66409	1	stim019_animate_aquatic_shrimp_3.png	19	animate	aquatic	shrimp	3	0	3	stars	2	incorrect	1.31742954324
66459	1	stim176_inanimate_plants_tree_4.png	176	inanimate	plants	tree	4	0	3	stars	2	incorrect	1.31742954324
66509	1	stim198_inanimate_tools_wrench_2.png	198	inanimate	tools	wrench	2	0	3	stars	2	incorrect	1.31742954324
66559	1	stim162_inanimate_plants_bush_2.png	162	inanimate	plants	bush	2	0	3	stars	2	incorrect	1.31742954324
66609	1	stim187_inanimate_tools_hammer_3.png	187	inanimate	tools	hammer	3	0	3	stars	2	incorrect	1.31742954324
66659	1	stim184_inanimate_tools_broom_4.png	184	inanimate	tools	broom	4	0	3	stars	2	incorrect	1.31742954324
66709	1	stim151_inanimate_furniture_closet_3.png	151	inanimate	furniture	closet	3	0	3	stars	2	incorrect	1.31742954324
66759	1	stim149_inanimate_furniture_closet_1.png	149	inanimate	furniture	closet	1	0	3	stars	2	incorrect	1.31742954324
66809	1	stim137_inanimate_fruits_strawberry_1.png	137	inanimate	fruits	strawberry	1	0	3	stars	2	incorrect	1.31742954324
66859	1	stim171_inanimate_plants_sunflower_3.png	171	inanimate	plants	sunflower	3	0	3	stars	2	incorrect	1.31742954324
66909	1	stim138_inanimate_fruits_strawberry_2.png	138	inanimate	fruits	strawberry	2	0	3	stars	2	incorrect	1.31742954324
66959	1	stim094_animate_mammal_monkey_2.png	94	animate	mammal	monkey	2	0	3	stars	2	incorrect	1.31742954324
67009	1	stim199_inanimate_tools_wrench_3.png	199	inanimate	tools	wrench	3	0	3	stars	2	incorrect	1.31742954324
67059	1	stim195_inanimate_tools_scissors_3.png	195	inanimate	tools	scissors	3	0	3	stars	2	incorrect	1.31742954324
67109	1	stim033_animate_bird_peacock_1.png	33	animate	bird	peacock	1	0	3	stars	2	incorrect	1.31742954324
67159	1	stim161_inanimate_plants_bush_1.png	161	inanimate	plants	bush	1	0	3	stars	2	incorrect	1.31742954324
67209	1	stim075_animate_insect_dragonfly_3.png	75	animate	insect	dragonfly	3	0	3	stars	2	incorrect	1.31742954324
67259	1	stim038_animate_bird_penguin_2.png	38	animate	bird	penguin	2	0	3	stars	2	incorrect	1.31742954324
67309	1	stim164_inanimate_plants_bush_4.png	164	inanimate	plants	bush	4	0	3	stars	2	incorrect	1.31742954324
67359	1	stim097_animate_mammal_rhino_1.png	97	animate	mammal	rhino	1	0	3	stars	2	incorrect	1.31742954324
67409	1	stim132_inanimate_fruits_grape_4.png	132	inanimate	fruits	grape	4	0	3	stars	2	incorrect	1.31742954324
67459	1	stim034_animate_bird_peacock_2.png	34	animate	bird	peacock	2	0	3	stars	2	incorrect	1.31742954324
67509	1	stim044_animate_human_baby_4.png	44	animate	human	baby	4	0	3	stars	2	incorrect	1.31742954324
67559	1	stim049_animate_human_clown_1.png	49	animate	human	clown	1	0	3	stars	2	incorrect	1.31742954324
67609	1	stim126_inanimate_fruits_banana_2.png	126	inanimate	fruits	banana	2	0	3	stars	2	incorrect	1.31742954324
67659	1	stim158_inanimate_furniture_table_2.png	158	inanimate	furniture	table	2	0	3	stars	2	incorrect	1.31742954324
67709	1	stim114_inanimate_clothing_shirt_2.png	114	inanimate	clothing	shirt	2	0	3	stars	2	incorrect	1.31742954324
67759	1	stim074_animate_insect_dragonfly_2.png	74	animate	insect	dragonfly	2	0	3	stars	2	incorrect	1.31742954324
67809	1	stim043_animate_human_baby_3.png	43	animate	human	baby	3	0	3	stars	2	incorrect	1.31742954324
67859	1	stim077_animate_insect_grasshopper_1.png	77	animate	insect	grasshopper	1	0	3	stars	2	incorrect	1.31742954324
67909	1	stim104_inanimate_clothing_gloves_4.png	104	inanimate	clothing	gloves	4	0	3	stars	2	incorrect	1.31742954324
67959	1	stim004_animate_aquatic_crab_4.png	4	animate	aquatic	crab	4	0	3	stars	2	incorrect	1.31742954324
68009	1	stim200_inanimate_tools_wrench_4.png	200	inanimate	tools	wrench	4	0	3	stars	2	incorrect	1.31742954324
68059	1	stim119_inanimate_clothing_socks_3.png	119	inanimate	clothing	socks	3	0	3	stars	2	incorrect	1.31742954324
68109	1	stim159_inanimate_furniture_table_3.png	159	inanimate	furniture	table	3	0	3	stars	2	incorrect	1.31742954324
68159	1	stim103_inanimate_clothing_gloves_3.png	103	inanimate	clothing	gloves	3	0	3	stars	2	incorrect	1.31742954324
68209	1	stim175_inanimate_plants_tree_3.png	175	inanimate	plants	tree	3	0	3	stars	2	incorrect	1.31742954324
68259	1	stim012_animate_aquatic_seahorse_4.png	12	animate	aquatic	seahorse	4	0	3	stars	2	incorrect	1.31742954324
68309	1	stim194_inanimate_tools_scissors_2.png	194	inanimate	tools	scissors	2	0	3	stars	2	incorrect	1.31742954324
68359	1	stim076_animate_insect_dragonfly_4.png	76	animate	insect	dragonfly	4	0	3	stars	2	incorrect	1.31742954324
68409	1	stim052_animate_human_clown_4.png	52	animate	human	clown	4	0	3	stars	2	incorrect	1.31742954324
68459	1	stim173_inanimate_plants_tree_1.png	173	inanimate	plants	tree	1	0	3	stars	2	incorrect	1.31742954324
68509	1	stim066_animate_insect_bug_2.png	66	animate	insect	bug	2	0	3	stars	2	incorrect	1.31742954324
68559	1	stim185_inanimate_tools_hammer_1.png	185	inanimate	tools	hammer	1	0	3	stars	2	incorrect	1.31742954324
68609	1	stim167_inanimate_plants_cactus_3.png	167	inanimate	plants	cactus	3	0	3	stars	2	incorrect	1.31742954324
68659	1	stim193_inanimate_tools_scissors_1.png	193	inanimate	tools	scissors	1	0	3	stars	2	incorrect	1.31742954324
68709	1	stim018_animate_aquatic_shrimp_2.png	18	animate	aquatic	shrimp	2	0	3	stars	2	incorrect	1.31742954324
68759	1	stim080_animate_insect_grasshopper_4.png	80	animate	insect	grasshopper	4	0	3	stars	2	incorrect	1.31742954324
68809	1	stim082_animate_mammal_cow_2.png	82	animate	mammal	cow	2	0	3	stars	2	incorrect	1.31742954324
68859	1	stim056_animate_human_faces_4.png	56	animate	human	faces	4	0	3	stars	2	incorrect	1.31742954324
68909	1	stim016_animate_aquatic_shark_4.png	16	animate	aquatic	shark	4	0	3	stars	2	incorrect	1.31742954324
68959	1	stim100_animate_mammal_rhino_4.png	100	animate	mammal	rhino	4	0	3	stars	2	incorrect	1.31742954324
69009	1	stim071_animate_insect_butterfly_3.png	71	animate	insect	butterfly	3	0	3	stars	2	incorrect	1.31742954324
69059	1	stim054_animate_human_faces_2.png	54	animate	human	faces	2	0	3	stars	2	incorrect	1.31742954324
69109	1	stim015_animate_aquatic_shark_3.png	15	animate	aquatic	shark	3	0	3	stars	2	incorrect	1.31742954324
69159	1	stim017_animate_aquatic_shrimp_1.png	17	animate	aquatic	shrimp	1	0	3	stars	2	incorrect	1.31742954324
69209	1	stim117_inanimate_clothing_socks_1.png	117	inanimate	clothing	socks	1	0	3	stars	2	incorrect	1.31742954324
69259	1	stim083_animate_mammal_cow_3.png	83	animate	mammal	cow	3	0	3	stars	2	incorrect	1.31742954324
69309	1	stim064_animate_insect_ant_4.png	64	animate	insect	ant	4	0	3	stars	2	incorrect	1.31742954324
69359	1	stim039_animate_bird_penguin_3.png	39	animate	bird	penguin	3	0	3	stars	2	incorrect	1.31742954324
69409	1	stim050_animate_human_clown_2.png	50	animate	human	clown	2	0	3	stars	2	incorrect	1.31742954324
75459	1	stim004_animate_aquatic_crab_4.png	4	animate	aquatic	crab	4	0	4	stars	3	incorrect	1.47221580869518
75509	1	stim152_inanimate_furniture_closet_4.png	152	inanimate	furniture	closet	4	0	4	stars	3	incorrect	1.47221580869518
75559	1	stim111_inanimate_clothing_jeans_3.png	111	inanimate	clothing	jeans	3	0	4	stars	3	incorrect	1.47221580869518
75609	1	stim018_animate_aquatic_shrimp_2.png	18	animate	aquatic	shrimp	2	0	4	stars	3	incorrect	1.47221580869518
75659	1	stim168_inanimate_plants_cactus_4.png	168	inanimate	plants	cactus	4	0	4	stars	3	incorrect	1.47221580869518
75709	1	stim177_inanimate_plants_tulip_1.png	177	inanimate	plants	tulip	1	0	4	stars	3	incorrect	1.47221580869518
75759	1	stim169_inanimate_plants_sunflower_1.png	169	inanimate	plants	sunflower	1	0	4	stars	3	incorrect	1.47221580869518
75809	1	stim042_animate_human_baby_2.png	42	animate	human	baby	2	0	4	stars	3	incorrect	1.47221580869518
75859	1	stim110_inanimate_clothing_jeans_2.png	110	inanimate	clothing	jeans	2	0	4	stars	3	incorrect	1.47221580869518
75909	1	stim172_inanimate_plants_sunflower_4.png	172	inanimate	plants	sunflower	4	0	4	stars	3	incorrect	1.47221580869518
75959	1	stim115_inanimate_clothing_shirt_3.png	115	inanimate	clothing	shirt	3	0	4	stars	3	incorrect	1.47221580869518
76009	1	stim151_inanimate_furniture_closet_3.png	151	inanimate	furniture	closet	3	0	4	stars	3	incorrect	1.47221580869518
76059	1	stim135_inanimate_fruits_pineapple_3.png	135	inanimate	fruits	pineapple	3	0	4	stars	3	incorrect	1.47221580869518
76109	1	stim098_animate_mammal_rhino_2.png	98	animate	mammal	rhino	2	0	4	stars	3	incorrect	1.47221580869518
76159	1	stim055_animate_human_faces_3.png	55	animate	human	faces	3	0	4	stars	3	incorrect	1.47221580869518
76209	1	stim084_animate_mammal_cow_4.png	84	animate	mammal	cow	4	0	4	stars	3	incorrect	1.47221580869518
76259	1	stim186_inanimate_tools_hammer_2.png	186	inanimate	tools	hammer	2	0	4	stars	3	incorrect	1.47221580869518
76309	1	stim197_inanimate_tools_wrench_1.png	197	inanimate	tools	wrench	1	0	4	stars	3	incorrect	1.47221580869518
76359	1	stim180_inanimate_plants_tulip_4.png	180	inanimate	plants	tulip	4	0	4	stars	3	incorrect	1.47221580869518
76409	1	stim049_animate_human_clown_1.png	49	animate	human	clown	1	0	4	stars	3	incorrect	1.47221580869518
76459	1	stim165_inanimate_plants_cactus_1.png	165	inanimate	plants	cactus	1	0	4	stars	3	incorrect	1.47221580869518
76509	1	stim166_inanimate_plants_cactus_2.png	166	inanimate	plants	cactus	2	0	4	stars	3	incorrect	1.47221580869518
76559	1	stim112_inanimate_clothing_jeans_4.png	112	inanimate	clothing	jeans	4	0	4	stars	3	incorrect	1.47221580869518
76609	1	stim079_animate_insect_grasshopper_3.png	79	animate	insect	grasshopper	3	0	4	stars	3	incorrect	1.47221580869518
76659	1	stim002_animate_aquatic_crab_2.png	2	animate	aquatic	crab	2	0	4	stars	3	incorrect	1.47221580869518
76709	1	stim181_inanimate_tools_broom_1.png	181	inanimate	tools	broom	1	0	4	stars	3	incorrect	1.47221580869518
76759	1	stim063_animate_insect_ant_3.png	63	animate	insect	ant	3	0	4	stars	3	incorrect	1.47221580869518
76809	1	stim159_inanimate_furniture_table_3.png	159	inanimate	furniture	table	3	0	4	stars	3	incorrect	1.47221580869518
76859	1	stim017_animate_aquatic_shrimp_1.png	17	animate	aquatic	shrimp	1	0	4	stars	3	incorrect	1.47221580869518
76909	1	stim129_inanimate_fruits_grape_1.png	129	inanimate	fruits	grape	1	0	4	stars	3	incorrect	1.47221580869518
76959	1	stim052_animate_human_clown_4.png	52	animate	human	clown	4	0	4	stars	3	incorrect	1.47221580869518
77009	1	stim099_animate_mammal_rhino_3.png	99	animate	mammal	rhino	3	0	4	stars	3	incorrect	1.47221580869518
77059	1	stim091_animate_mammal_kangaroo_3.png	91	animate	mammal	kangaroo	3	0	4	stars	3	incorrect	1.47221580869518
77109	1	stim019_animate_aquatic_shrimp_3.png	19	animate	aquatic	shrimp	3	0	4	stars	3	incorrect	1.47221580869518
77159	1	stim060_animate_human_sports_4.png	60	animate	human	sports	4	0	4	stars	3	incorrect	1.47221580869518
77209	1	stim122_inanimate_fruits_apple_2.png	122	inanimate	fruits	apple	2	0	4	stars	3	incorrect	1.47221580869518
77259	1	stim003_animate_aquatic_crab_3.png	3	animate	aquatic	crab	3	0	4	stars	3	incorrect	1.47221580869518
77309	1	stim054_animate_human_faces_2.png	54	animate	human	faces	2	0	4	stars	3	incorrect	1.47221580869518
77359	1	stim121_inanimate_fruits_apple_1.png	121	inanimate	fruits	apple	1	0	4	stars	3	incorrect	1.47221580869518
77409	1	stim077_animate_insect_grasshopper_1.png	77	animate	insect	grasshopper	1	0	4	stars	3	incorrect	1.47221580869518
77459	1	stim153_inanimate_furniture_sofa_1.png	153	inanimate	furniture	sofa	1	0	4	stars	3	incorrect	1.47221580869518
77509	1	stim057_animate_human_sports_1.png	57	animate	human	sports	1	0	4	stars	3	incorrect	1.47221580869518
77559	1	stim117_inanimate_clothing_socks_1.png	117	inanimate	clothing	socks	1	0	4	stars	3	incorrect	1.47221580869518
77609	1	stim081_animate_mammal_cow_1.png	81	animate	mammal	cow	1	0	4	stars	3	incorrect	1.47221580869518
77659	1	stim087_animate_mammal_giraffe_3.png	87	animate	mammal	giraffe	3	0	4	stars	3	incorrect	1.47221580869518
77709	1	stim120_inanimate_clothing_socks_4.png	120	inanimate	clothing	socks	4	0	4	stars	3	incorrect	1.47221580869518
77759	1	stim193_inanimate_tools_scissors_1.png	193	inanimate	tools	scissors	1	0	4	stars	3	incorrect	1.47221580869518
77809	1	stim195_inanimate_tools_scissors_3.png	195	inanimate	tools	scissors	3	0	4	stars	3	incorrect	1.47221580869518
77859	1	stim095_animate_mammal_monkey_3.png	95	animate	mammal	monkey	3	0	4	stars	3	incorrect	1.47221580869518
77909	1	stim031_animate_bird_parrot_3.png	31	animate	bird	parrot	3	0	4	stars	3	incorrect	1.47221580869518
77959	1	stim034_animate_bird_peacock_2.png	34	animate	bird	peacock	2	0	4	stars	3	incorrect	1.47221580869518
78009	1	stim005_animate_aquatic_fish_1.png	5	animate	aquatic	fish	1	0	4	stars	3	incorrect	1.47221580869518
78059	1	stim068_animate_insect_bug_4.png	68	animate	insect	bug	4	0	4	stars	3	incorrect	1.47221580869518
78109	1	stim008_animate_aquatic_fish_4.png	8	animate	aquatic	fish	4	0	4	stars	3	incorrect	1.47221580869518
78159	1	stim024_animate_bird_chicken_4.png	24	animate	bird	chicken	4	0	4	stars	3	incorrect	1.47221580869518
78209	1	stim184_inanimate_tools_broom_4.png	184	inanimate	tools	broom	4	0	4	stars	3	incorrect	1.47221580869518
78259	1	stim175_inanimate_plants_tree_3.png	175	inanimate	plants	tree	3	0	4	stars	3	incorrect	1.47221580869518
78309	1	stim103_inanimate_clothing_gloves_3.png	103	inanimate	clothing	gloves	3	0	4	stars	3	incorrect	1.47221580869518
78359	1	stim080_animate_insect_grasshopper_4.png	80	animate	insect	grasshopper	4	0	4	stars	3	incorrect	1.47221580869518
78409	1	stim030_animate_bird_parrot_2.png	30	animate	bird	parrot	2	0	4	stars	3	incorrect	1.47221580869518
78459	1	stim187_inanimate_tools_hammer_3.png	187	inanimate	tools	hammer	3	0	4	stars	3	incorrect	1.47221580869518
78509	1	stim141_inanimate_furniture_bed_1.png	141	inanimate	furniture	bed	1	0	4	stars	3	incorrect	1.47221580869518
78559	1	stim107_inanimate_clothing_hat_3.png	107	inanimate	clothing	hat	3	0	4	stars	3	incorrect	1.47221580869518
78609	1	stim213_targets_shapes_star_1.png	213	targets	shapes	star	1	1	4	stars	3	incorrect	1.47221580869518
78659	1	stim028_animate_bird_duck_4.png	28	animate	bird	duck	4	0	4	stars	3	incorrect	1.47221580869518
78709	1	stim093_animate_mammal_monkey_1.png	93	animate	mammal	monkey	1	0	4	stars	3	incorrect	1.47221580869518
78759	1	stim076_animate_insect_dragonfly_4.png	76	animate	insect	dragonfly	4	0	4	stars	3	incorrect	1.47221580869518
78809	1	stim009_animate_aquatic_seahorse_1.png	9	animate	aquatic	seahorse	1	0	4	stars	3	incorrect	1.47221580869518
78859	1	stim132_inanimate_fruits_grape_4.png	132	inanimate	fruits	grape	4	0	4	stars	3	incorrect	1.47221580869518
78909	1	stim194_inanimate_tools_scissors_2.png	194	inanimate	tools	scissors	2	0	4	stars	3	incorrect	1.47221580869518
78959	1	stim011_animate_aquatic_seahorse_3.png	11	animate	aquatic	seahorse	3	0	4	stars	3	incorrect	1.47221580869518
79009	1	stim144_inanimate_furniture_bed_4.png	144	inanimate	furniture	bed	4	0	4	stars	3	incorrect	1.47221580869518
79059	1	stim190_inanimate_tools_pan_2.png	190	inanimate	tools	pan	2	0	4	stars	3	incorrect	1.47221580869518
79109	1	stim189_inanimate_tools_pan_1.png	189	inanimate	tools	pan	1	0	4	stars	3	incorrect	1.47221580869518
79159	1	stim106_inanimate_clothing_hat_2.png	106	inanimate	clothing	hat	2	0	4	stars	3	incorrect	1.47221580869518
79209	1	stim179_inanimate_plants_tulip_3.png	179	inanimate	plants	tulip	3	0	4	stars	3	incorrect	1.47221580869518
79259	1	stim053_animate_human_faces_1.png	53	animate	human	faces	1	0	4	stars	3	incorrect	1.47221580869518
79309	1	stim148_inanimate_furniture_chair_4.png	148	inanimate	furniture	chair	4	0	4	stars	3	incorrect	1.47221580869518
79359	1	stim145_inanimate_furniture_chair_1.png	145	inanimate	furniture	chair	1	0	4	stars	3	incorrect	1.47221580869518
79409	1	stim069_animate_insect_butterfly_1.png	69	animate	insect	butterfly	1	0	4	stars	3	incorrect	1.47221580869518
79459	1	stim139_inanimate_fruits_strawberry_3.png	139	inanimate	fruits	strawberry	3	0	4	stars	3	incorrect	1.47221580869518
79509	1	stim088_animate_mammal_giraffe_4.png	88	animate	mammal	giraffe	4	0	4	stars	3	incorrect	1.47221580869518
79559	1	stim046_animate_human_child_2.png	46	animate	human	child	2	0	4	stars	3	incorrect	1.47221580869518
79609	1	stim050_animate_human_clown_2.png	50	animate	human	clown	2	0	4	stars	3	incorrect	1.47221580869518
79659	1	stim037_animate_bird_penguin_1.png	37	animate	bird	penguin	1	0	4	stars	3	incorrect	1.47221580869518
79709	1	stim149_inanimate_furniture_closet_1.png	149	inanimate	furniture	closet	1	0	4	stars	3	incorrect	1.47221580869518
79759	1	stim090_animate_mammal_kangaroo_2.png	90	animate	mammal	kangaroo	2	0	4	stars	3	incorrect	1.47221580869518
79809	1	stim104_inanimate_clothing_gloves_4.png	104	inanimate	clothing	gloves	4	0	4	stars	3	incorrect	1.47221580869518
79859	1	stim020_animate_aquatic_shrimp_4.png	20	animate	aquatic	shrimp	4	0	4	stars	3	incorrect	1.47221580869518
79909	1	stim041_animate_human_baby_1.png	41	animate	human	baby	1	0	4	stars	3	incorrect	1.47221580869518
79959	1	stim022_animate_bird_chicken_2.png	22	animate	bird	chicken	2	0	4	stars	3	incorrect	1.47221580869518
80009	1	stim133_inanimate_fruits_pineapple_1.png	133	inanimate	fruits	pineapple	1	0	4	stars	3	incorrect	1.47221580869518
80059	1	stim029_animate_bird_parrot_1.png	29	animate	bird	parrot	1	0	4	stars	3	incorrect	1.47221580869518
80109	1	stim156_inanimate_furniture_sofa_4.png	156	inanimate	furniture	sofa	4	0	4	stars	3	incorrect	1.47221580869518
80159	1	stim092_animate_mammal_kangaroo_4.png	92	animate	mammal	kangaroo	4	0	4	stars	3	incorrect	1.47221580869518
80209	1	stim064_animate_insect_ant_4.png	64	animate	insect	ant	4	0	4	stars	3	incorrect	1.47221580869518
80259	1	stim171_inanimate_plants_sunflower_3.png	171	inanimate	plants	sunflower	3	0	4	stars	3	incorrect	1.47221580869518
80309	1	stim073_animate_insect_dragonfly_1.png	73	animate	insect	dragonfly	1	0	4	stars	3	incorrect	1.47221580869518
80359	1	stim039_animate_bird_penguin_3.png	39	animate	bird	penguin	3	0	4	stars	3	incorrect	1.47221580869518
80409	1	stim114_inanimate_clothing_shirt_2.png	114	inanimate	clothing	shirt	2	0	4	stars	3	incorrect	1.47221580869518
80459	1	stim160_inanimate_furniture_table_4.png	160	inanimate	furniture	table	4	0	4	stars	3	incorrect	1.47221580869518
80509	1	stim147_inanimate_furniture_chair_3.png	147	inanimate	furniture	chair	3	0	4	stars	3	incorrect	1.47221580869518
80559	1	stim167_inanimate_plants_cactus_3.png	167	inanimate	plants	cactus	3	0	4	stars	3	incorrect	1.47221580869518
80609	1	stim116_inanimate_clothing_shirt_4.png	116	inanimate	clothing	shirt	4	0	4	stars	3	incorrect	1.47221580869518
80659	1	stim102_inanimate_clothing_gloves_2.png	102	inanimate	clothing	gloves	2	0	4	stars	3	incorrect	1.47221580869518
80709	1	stim150_inanimate_furniture_closet_2.png	150	inanimate	furniture	closet	2	0	4	stars	3	incorrect	1.47221580869518
80759	1	stim048_animate_human_child_4.png	48	animate	human	child	4	0	4	stars	3	incorrect	1.47221580869518
80809	1	stim012_animate_aquatic_seahorse_4.png	12	animate	aquatic	seahorse	4	0	4	stars	3	incorrect	1.47221580869518
80859	1	stim021_animate_bird_chicken_1.png	21	animate	bird	chicken	1	0	4	stars	3	incorrect	1.47221580869518
80909	1	stim164_inanimate_plants_bush_4.png	164	inanimate	plants	bush	4	0	4	stars	3	incorrect	1.47221580869518
80959	1	stim130_inanimate_fruits_grape_2.png	130	inanimate	fruits	grape	2	0	4	stars	3	incorrect	1.47221580869518
81009	1	stim040_animate_bird_penguin_4.png	40	animate	bird	penguin	4	0	4	stars	3	incorrect	1.47221580869518
81059	1	stim113_inanimate_clothing_shirt_1.png	113	inanimate	clothing	shirt	1	0	4	stars	3	incorrect	1.47221580869518
81109	1	stim134_inanimate_fruits_pineapple_2.png	134	inanimate	fruits	pineapple	2	0	4	stars	3	incorrect	1.47221580869518
81159	1	stim173_inanimate_plants_tree_1.png	173	inanimate	plants	tree	1	0	4	stars	3	incorrect	1.47221580869518
81209	1	stim027_animate_bird_duck_3.png	27	animate	bird	duck	3	0	4	stars	3	incorrect	1.47221580869518
81259	1	stim161_inanimate_plants_bush_1.png	161	inanimate	plants	bush	1	0	4	stars	3	incorrect	1.47221580869518
81309	1	stim045_animate_human_child_1.png	45	animate	human	child	1	0	4	stars	3	incorrect	1.47221580869518
81359	1	stim075_animate_insect_dragonfly_3.png	75	animate	insect	dragonfly	3	0	4	stars	3	incorrect	1.47221580869518
81409	1	stim061_animate_insect_ant_1.png	61	animate	insect	ant	1	0	4	stars	3	incorrect	1.47221580869518
81459	1	stim072_animate_insect_butterfly_4.png	72	animate	insect	butterfly	4	0	4	stars	3	incorrect	1.47221580869518
81509	1	stim137_inanimate_fruits_strawberry_1.png	137	inanimate	fruits	strawberry	1	0	4	stars	3	incorrect	1.47221580869518
81559	1	stim051_animate_human_clown_3.png	51	animate	human	clown	3	0	4	stars	3	incorrect	1.47221580869518
81609	1	stim162_inanimate_plants_bush_2.png	162	inanimate	plants	bush	2	0	4	stars	3	incorrect	1.47221580869518
81659	1	stim178_inanimate_plants_tulip_2.png	178	inanimate	plants	tulip	2	0	4	stars	3	incorrect	1.47221580869518
81709	1	stim086_animate_mammal_giraffe_2.png	86	animate	mammal	giraffe	2	0	4	stars	3	incorrect	1.47221580869518
81759	1	stim035_animate_bird_peacock_3.png	35	animate	bird	peacock	3	0	4	stars	3	incorrect	1.47221580869518
81809	1	stim127_inanimate_fruits_banana_3.png	127	inanimate	fruits	banana	3	0	4	stars	3	incorrect	1.47221580869518
81859	1	stim059_animate_human_sports_3.png	59	animate	human	sports	3	0	4	stars	3	incorrect	1.47221580869518
81909	1	stim216_targets_shapes_star_4.png	216	targets	shapes	star	4	1	4	stars	3	incorrect	1.47221580869518
81959	1	stim007_animate_aquatic_fish_3.png	7	animate	aquatic	fish	3	0	4	stars	3	incorrect	1.47221580869518
82009	1	stim026_animate_bird_duck_2.png	26	animate	bird	duck	2	0	4	stars	3	incorrect	1.47221580869518
82059	1	stim006_animate_aquatic_fish_2.png	6	animate	aquatic	fish	2	0	4	stars	3	incorrect	1.47221580869518
82109	1	stim192_inanimate_tools_pan_4.png	192	inanimate	tools	pan	4	0	4	stars	3	incorrect	1.47221580869518
82159	1	stim066_animate_insect_bug_2.png	66	animate	insect	bug	2	0	4	stars	3	incorrect	1.47221580869518
82209	1	stim047_animate_human_child_3.png	47	animate	human	child	3	0	4	stars	3	incorrect	1.47221580869518
82259	1	stim083_animate_mammal_cow_3.png	83	animate	mammal	cow	3	0	4	stars	3	incorrect	1.47221580869518
82309	1	stim163_inanimate_plants_bush_3.png	163	inanimate	plants	bush	3	0	4	stars	3	incorrect	1.47221580869518
82359	1	stim094_animate_mammal_monkey_2.png	94	animate	mammal	monkey	2	0	4	stars	3	incorrect	1.47221580869518
82409	1	stim070_animate_insect_butterfly_2.png	70	animate	insect	butterfly	2	0	4	stars	3	incorrect	1.47221580869518
82459	1	stim067_animate_insect_bug_3.png	67	animate	insect	bug	3	0	4	stars	3	incorrect	1.47221580869518
82509	1	stim065_animate_insect_bug_1.png	65	animate	insect	bug	1	0	4	stars	3	incorrect	1.47221580869518
82559	1	stim056_animate_human_faces_4.png	56	animate	human	faces	4	0	4	stars	3	incorrect	1.47221580869518
82609	1	stim015_animate_aquatic_shark_3.png	15	animate	aquatic	shark	3	0	4	stars	3	incorrect	1.47221580869518
82659	1	stim154_inanimate_furniture_sofa_2.png	154	inanimate	furniture	sofa	2	0	4	stars	3	incorrect	1.47221580869518
82709	1	stim033_animate_bird_peacock_1.png	33	animate	bird	peacock	1	0	4	stars	3	incorrect	1.47221580869518
82759	1	stim038_animate_bird_penguin_2.png	38	animate	bird	penguin	2	0	4	stars	3	incorrect	1.47221580869518
82809	1	stim124_inanimate_fruits_apple_4.png	124	inanimate	fruits	apple	4	0	4	stars	3	incorrect	1.47221580869518
82859	1	stim118_inanimate_clothing_socks_2.png	118	inanimate	clothing	socks	2	0	4	stars	3	incorrect	1.47221580869518
82909	1	stim199_inanimate_tools_wrench_3.png	199	inanimate	tools	wrench	3	0	4	stars	3	incorrect	1.47221580869518
82959	1	stim097_animate_mammal_rhino_1.png	97	animate	mammal	rhino	1	0	4	stars	3	incorrect	1.47221580869518
83009	1	stim198_inanimate_tools_wrench_2.png	198	inanimate	tools	wrench	2	0	4	stars	3	incorrect	1.47221580869518
83059	1	stim074_animate_insect_dragonfly_2.png	74	animate	insect	dragonfly	2	0	4	stars	3	incorrect	1.47221580869518
83109	1	stim016_animate_aquatic_shark_4.png	16	animate	aquatic	shark	4	0	4	stars	3	incorrect	1.47221580869518
83159	1	stim140_inanimate_fruits_strawberry_4.png	140	inanimate	fruits	strawberry	4	0	4	stars	3	incorrect	1.47221580869518
83209	1	stim025_animate_bird_duck_1.png	25	animate	bird	duck	1	0	4	stars	3	incorrect	1.47221580869518
83259	1	stim023_animate_bird_chicken_3.png	23	animate	bird	chicken	3	0	4	stars	3	incorrect	1.47221580869518
83309	1	stim128_inanimate_fruits_banana_4.png	128	inanimate	fruits	banana	4	0	4	stars	3	incorrect	1.47221580869518
83359	1	stim085_animate_mammal_giraffe_1.png	85	animate	mammal	giraffe	1	0	4	stars	3	incorrect	1.47221580869518
83409	1	stim188_inanimate_tools_hammer_4.png	188	inanimate	tools	hammer	4	0	4	stars	3	incorrect	1.47221580869518
83459	1	stim089_animate_mammal_kangaroo_1.png	89	animate	mammal	kangaroo	1	0	4	stars	3	incorrect	1.47221580869518
83509	1	stim036_animate_bird_peacock_4.png	36	animate	bird	peacock	4	0	4	stars	3	incorrect	1.47221580869518
83559	1	stim123_inanimate_fruits_apple_3.png	123	inanimate	fruits	apple	3	0	4	stars	3	incorrect	1.47221580869518
83609	1	stim191_inanimate_tools_pan_3.png	191	inanimate	tools	pan	3	0	4	stars	3	incorrect	1.47221580869518
83659	1	stim043_animate_human_baby_3.png	43	animate	human	baby	3	0	4	stars	3	incorrect	1.47221580869518
83709	1	stim183_inanimate_tools_broom_3.png	183	inanimate	tools	broom	3	0	4	stars	3	incorrect	1.47221580869518
83759	1	stim143_inanimate_furniture_bed_3.png	143	inanimate	furniture	bed	3	0	4	stars	3	incorrect	1.47221580869518
83809	1	stim078_animate_insect_grasshopper_2.png	78	animate	insect	grasshopper	2	0	4	stars	3	incorrect	1.47221580869518
83859	1	stim108_inanimate_clothing_hat_4.png	108	inanimate	clothing	hat	4	0	4	stars	3	incorrect	1.47221580869518
83909	1	stim101_inanimate_clothing_gloves_1.png	101	inanimate	clothing	gloves	1	0	4	stars	3	incorrect	1.47221580869518
83959	1	stim136_inanimate_fruits_pineapple_4.png	136	inanimate	fruits	pineapple	4	0	4	stars	3	incorrect	1.47221580869518
84009	1	stim142_inanimate_furniture_bed_2.png	142	inanimate	furniture	bed	2	0	4	stars	3	incorrect	1.47221580869518
84059	1	stim100_animate_mammal_rhino_4.png	100	animate	mammal	rhino	4	0	4	stars	3	incorrect	1.47221580869518
84109	1	stim096_animate_mammal_monkey_4.png	96	animate	mammal	monkey	4	0	4	stars	3	incorrect	1.47221580869518
84159	1	stim014_animate_aquatic_shark_2.png	14	animate	aquatic	shark	2	0	4	stars	3	incorrect	1.47221580869518
84209	1	stim071_animate_insect_butterfly_3.png	71	animate	insect	butterfly	3	0	4	stars	3	incorrect	1.47221580869518
84259	1	stim010_animate_aquatic_seahorse_2.png	10	animate	aquatic	seahorse	2	0	4	stars	3	incorrect	1.47221580869518
84309	1	stim032_animate_bird_parrot_4.png	32	animate	bird	parrot	4	0	4	stars	3	incorrect	1.47221580869518
84359	1	stim174_inanimate_plants_tree_2.png	174	inanimate	plants	tree	2	0	4	stars	3	incorrect	1.47221580869518
84409	1	stim182_inanimate_tools_broom_2.png	182	inanimate	tools	broom	2	0	4	stars	3	incorrect	1.47221580869518
84459	1	stim157_inanimate_furniture_table_1.png	157	inanimate	furniture	table	1	0	4	stars	3	incorrect	1.47221580869518
84509	1	stim170_inanimate_plants_sunflower_2.png	170	inanimate	plants	sunflower	2	0	4	stars	3	incorrect	1.47221580869518
84559	1	stim200_inanimate_tools_wrench_4.png	200	inanimate	tools	wrench	4	0	4	stars	3	incorrect	1.47221580869518
84609	1	stim146_inanimate_furniture_chair_2.png	146	inanimate	furniture	chair	2	0	4	stars	3	incorrect	1.47221580869518
84659	1	stim185_inanimate_tools_hammer_1.png	185	inanimate	tools	hammer	1	0	4	stars	3	incorrect	1.47221580869518
84709	1	stim155_inanimate_furniture_sofa_3.png	155	inanimate	furniture	sofa	3	0	4	stars	3	incorrect	1.47221580869518
84759	1	stim044_animate_human_baby_4.png	44	animate	human	baby	4	0	4	stars	3	incorrect	1.47221580869518
84809	1	stim158_inanimate_furniture_table_2.png	158	inanimate	furniture	table	2	0	4	stars	3	incorrect	1.47221580869518
84859	1	stim176_inanimate_plants_tree_4.png	176	inanimate	plants	tree	4	0	4	stars	3	incorrect	1.47221580869518
84909	1	stim062_animate_insect_ant_2.png	62	animate	insect	ant	2	0	4	stars	3	incorrect	1.47221580869518
84959	1	stim138_inanimate_fruits_strawberry_2.png	138	inanimate	fruits	strawberry	2	0	4	stars	3	incorrect	1.47221580869518
85009	1	stim119_inanimate_clothing_socks_3.png	119	inanimate	clothing	socks	3	0	4	stars	3	incorrect	1.47221580869518
85059	1	stim109_inanimate_clothing_jeans_1.png	109	inanimate	clothing	jeans	1	0	4	stars	3	incorrect	1.47221580869518
85109	1	stim125_inanimate_fruits_banana_1.png	125	inanimate	fruits	banana	1	0	4	stars	3	incorrect	1.47221580869518
85159	1	stim105_inanimate_clothing_hat_1.png	105	inanimate	clothing	hat	1	0	4	stars	3	incorrect	1.47221580869518
85209	1	stim126_inanimate_fruits_banana_2.png	126	inanimate	fruits	banana	2	0	4	stars	3	incorrect	1.47221580869518
85259	1	stim131_inanimate_fruits_grape_3.png	131	inanimate	fruits	grape	3	0	4	stars	3	incorrect	1.47221580869518
85309	1	stim082_animate_mammal_cow_2.png	82	animate	mammal	cow	2	0	4	stars	3	incorrect	1.47221580869518
85359	1	stim058_animate_human_sports_2.png	58	animate	human	sports	2	0	4	stars	3	incorrect	1.47221580869518
85409	1	stim196_inanimate_tools_scissors_4.png	196	inanimate	tools	scissors	4	0	4	stars	3	incorrect	1.47221580869518
85459	1	stim001_animate_aquatic_crab_1.png	1	animate	aquatic	crab	1	0	4	stars	3	incorrect	1.47221580869518
85509	1	stim013_animate_aquatic_shark_1.png	13	animate	aquatic	shark	1	0	4	stars	3	incorrect	1.47221580869518
90526	1	stim034_animate_bird_peacock_2.png	34	animate	bird	peacock	2	0	5	stars	3	incorrect	1.18198470375501
90576	1	stim163_inanimate_plants_bush_3.png	163	inanimate	plants	bush	3	0	5	stars	3	incorrect	1.18198470375501
90626	1	stim167_inanimate_plants_cactus_3.png	167	inanimate	plants	cactus	3	0	5	stars	3	incorrect	1.18198470375501
90676	1	stim077_animate_insect_grasshopper_1.png	77	animate	insect	grasshopper	1	0	5	stars	3	incorrect	1.18198470375501
90726	1	stim076_animate_insect_dragonfly_4.png	76	animate	insect	dragonfly	4	0	5	stars	3	incorrect	1.18198470375501
90776	1	stim052_animate_human_clown_4.png	52	animate	human	clown	4	0	5	stars	3	incorrect	1.18198470375501
90826	1	stim055_animate_human_faces_3.png	55	animate	human	faces	3	0	5	stars	3	incorrect	1.18198470375501
90876	1	stim109_inanimate_clothing_jeans_1.png	109	inanimate	clothing	jeans	1	0	5	stars	3	incorrect	1.18198470375501
90926	1	stim192_inanimate_tools_pan_4.png	192	inanimate	tools	pan	4	0	5	stars	3	incorrect	1.18198470375501
90976	1	stim026_animate_bird_duck_2.png	26	animate	bird	duck	2	0	5	stars	3	incorrect	1.18198470375501
91026	1	stim091_animate_mammal_kangaroo_3.png	91	animate	mammal	kangaroo	3	0	5	stars	3	incorrect	1.18198470375501
91076	1	stim114_inanimate_clothing_shirt_2.png	114	inanimate	clothing	shirt	2	0	5	stars	3	incorrect	1.18198470375501
91126	1	stim197_inanimate_tools_wrench_1.png	197	inanimate	tools	wrench	1	0	5	stars	3	incorrect	1.18198470375501
91176	1	stim068_animate_insect_bug_4.png	68	animate	insect	bug	4	0	5	stars	3	incorrect	1.18198470375501
91226	1	stim070_animate_insect_butterfly_2.png	70	animate	insect	butterfly	2	0	5	stars	3	incorrect	1.18198470375501
91276	1	stim036_animate_bird_peacock_4.png	36	animate	bird	peacock	4	0	5	stars	3	incorrect	1.18198470375501
91326	1	stim098_animate_mammal_rhino_2.png	98	animate	mammal	rhino	2	0	5	stars	3	incorrect	1.18198470375501
91376	1	stim170_inanimate_plants_sunflower_2.png	170	inanimate	plants	sunflower	2	0	5	stars	3	incorrect	1.18198470375501
91426	1	stim039_animate_bird_penguin_3.png	39	animate	bird	penguin	3	0	5	stars	3	incorrect	1.18198470375501
91476	1	stim120_inanimate_clothing_socks_4.png	120	inanimate	clothing	socks	4	0	5	stars	3	incorrect	1.18198470375501
91526	1	stim115_inanimate_clothing_shirt_3.png	115	inanimate	clothing	shirt	3	0	5	stars	3	incorrect	1.18198470375501
91576	1	stim094_animate_mammal_monkey_2.png	94	animate	mammal	monkey	2	0	5	stars	3	incorrect	1.18198470375501
91626	1	stim177_inanimate_plants_tulip_1.png	177	inanimate	plants	tulip	1	0	5	stars	3	incorrect	1.18198470375501
91676	1	stim011_animate_aquatic_seahorse_3.png	11	animate	aquatic	seahorse	3	0	5	stars	3	incorrect	1.18198470375501
91726	1	stim118_inanimate_clothing_socks_2.png	118	inanimate	clothing	socks	2	0	5	stars	3	incorrect	1.18198470375501
91776	1	stim100_animate_mammal_rhino_4.png	100	animate	mammal	rhino	4	0	5	stars	3	incorrect	1.18198470375501
91826	1	stim001_animate_aquatic_crab_1.png	1	animate	aquatic	crab	1	0	5	stars	3	incorrect	1.18198470375501
91876	1	stim038_animate_bird_penguin_2.png	38	animate	bird	penguin	2	0	5	stars	3	incorrect	1.18198470375501
91926	1	stim195_inanimate_tools_scissors_3.png	195	inanimate	tools	scissors	3	0	5	stars	3	incorrect	1.18198470375501
91976	1	stim182_inanimate_tools_broom_2.png	182	inanimate	tools	broom	2	0	5	stars	3	incorrect	1.18198470375501
92026	1	stim154_inanimate_furniture_sofa_2.png	154	inanimate	furniture	sofa	2	0	5	stars	3	incorrect	1.18198470375501
92076	1	stim157_inanimate_furniture_table_1.png	157	inanimate	furniture	table	1	0	5	stars	3	incorrect	1.18198470375501
92126	1	stim101_inanimate_clothing_gloves_1.png	101	inanimate	clothing	gloves	1	0	5	stars	3	incorrect	1.18198470375501
92176	1	stim143_inanimate_furniture_bed_3.png	143	inanimate	furniture	bed	3	0	5	stars	3	incorrect	1.18198470375501
92226	1	stim083_animate_mammal_cow_3.png	83	animate	mammal	cow	3	0	5	stars	3	incorrect	1.18198470375501
92276	1	stim062_animate_insect_ant_2.png	62	animate	insect	ant	2	0	5	stars	3	incorrect	1.18198470375501
92326	1	stim037_animate_bird_penguin_1.png	37	animate	bird	penguin	1	0	5	stars	3	incorrect	1.18198470375501
92376	1	stim168_inanimate_plants_cactus_4.png	168	inanimate	plants	cactus	4	0	5	stars	3	incorrect	1.18198470375501
92426	1	stim058_animate_human_sports_2.png	58	animate	human	sports	2	0	5	stars	3	incorrect	1.18198470375501
92476	1	stim005_animate_aquatic_fish_1.png	5	animate	aquatic	fish	1	0	5	stars	3	incorrect	1.18198470375501
92526	1	stim032_animate_bird_parrot_4.png	32	animate	bird	parrot	4	0	5	stars	3	incorrect	1.18198470375501
92576	1	stim104_inanimate_clothing_gloves_4.png	104	inanimate	clothing	gloves	4	0	5	stars	3	incorrect	1.18198470375501
92626	1	stim165_inanimate_plants_cactus_1.png	165	inanimate	plants	cactus	1	0	5	stars	3	incorrect	1.18198470375501
92676	1	stim124_inanimate_fruits_apple_4.png	124	inanimate	fruits	apple	4	0	5	stars	3	incorrect	1.18198470375501
92726	1	stim063_animate_insect_ant_3.png	63	animate	insect	ant	3	0	5	stars	3	incorrect	1.18198470375501
92776	1	stim028_animate_bird_duck_4.png	28	animate	bird	duck	4	0	5	stars	3	incorrect	1.18198470375501
92826	1	stim029_animate_bird_parrot_1.png	29	animate	bird	parrot	1	0	5	stars	3	incorrect	1.18198470375501
92876	1	stim007_animate_aquatic_fish_3.png	7	animate	aquatic	fish	3	0	5	stars	3	incorrect	1.18198470375501
92926	1	stim180_inanimate_plants_tulip_4.png	180	inanimate	plants	tulip	4	0	5	stars	3	incorrect	1.18198470375501
92976	1	stim017_animate_aquatic_shrimp_1.png	17	animate	aquatic	shrimp	1	0	5	stars	3	incorrect	1.18198470375501
93026	1	stim014_animate_aquatic_shark_2.png	14	animate	aquatic	shark	2	0	5	stars	3	incorrect	1.18198470375501
93076	1	stim111_inanimate_clothing_jeans_3.png	111	inanimate	clothing	jeans	3	0	5	stars	3	incorrect	1.18198470375501
93126	1	stim187_inanimate_tools_hammer_3.png	187	inanimate	tools	hammer	3	0	5	stars	3	incorrect	1.18198470375501
93176	1	stim152_inanimate_furniture_closet_4.png	152	inanimate	furniture	closet	4	0	5	stars	3	incorrect	1.18198470375501
93226	1	stim074_animate_insect_dragonfly_2.png	74	animate	insect	dragonfly	2	0	5	stars	3	incorrect	1.18198470375501
93276	1	stim151_inanimate_furniture_closet_3.png	151	inanimate	furniture	closet	3	0	5	stars	3	incorrect	1.18198470375501
93326	1	stim067_animate_insect_bug_3.png	67	animate	insect	bug	3	0	5	stars	3	incorrect	1.18198470375501
93376	1	stim108_inanimate_clothing_hat_4.png	108	inanimate	clothing	hat	4	0	5	stars	3	incorrect	1.18198470375501
93426	1	stim210_targets_shapes_star_2.png	210	targets	shapes	star	2	1	5	stars	3	incorrect	1.18198470375501
93476	1	stim096_animate_mammal_monkey_4.png	96	animate	mammal	monkey	4	0	5	stars	3	incorrect	1.18198470375501
93526	1	stim189_inanimate_tools_pan_1.png	189	inanimate	tools	pan	1	0	5	stars	3	incorrect	1.18198470375501
93576	1	stim169_inanimate_plants_sunflower_1.png	169	inanimate	plants	sunflower	1	0	5	stars	3	incorrect	1.18198470375501
93626	1	stim134_inanimate_fruits_pineapple_2.png	134	inanimate	fruits	pineapple	2	0	5	stars	3	incorrect	1.18198470375501
93676	1	stim061_animate_insect_ant_1.png	61	animate	insect	ant	1	0	5	stars	3	incorrect	1.18198470375501
93726	1	stim023_animate_bird_chicken_3.png	23	animate	bird	chicken	3	0	5	stars	3	incorrect	1.18198470375501
93776	1	stim090_animate_mammal_kangaroo_2.png	90	animate	mammal	kangaroo	2	0	5	stars	3	incorrect	1.18198470375501
93826	1	stim050_animate_human_clown_2.png	50	animate	human	clown	2	0	5	stars	3	incorrect	1.18198470375501
93876	1	stim072_animate_insect_butterfly_4.png	72	animate	insect	butterfly	4	0	5	stars	3	incorrect	1.18198470375501
93926	1	stim021_animate_bird_chicken_1.png	21	animate	bird	chicken	1	0	5	stars	3	incorrect	1.18198470375501
93976	1	stim081_animate_mammal_cow_1.png	81	animate	mammal	cow	1	0	5	stars	3	incorrect	1.18198470375501
94026	1	stim198_inanimate_tools_wrench_2.png	198	inanimate	tools	wrench	2	0	5	stars	3	incorrect	1.18198470375501
94076	1	stim119_inanimate_clothing_socks_3.png	119	inanimate	clothing	socks	3	0	5	stars	3	incorrect	1.18198470375501
94126	1	stim006_animate_aquatic_fish_2.png	6	animate	aquatic	fish	2	0	5	stars	3	incorrect	1.18198470375501
94176	1	stim194_inanimate_tools_scissors_2.png	194	inanimate	tools	scissors	2	0	5	stars	3	incorrect	1.18198470375501
94226	1	stim078_animate_insect_grasshopper_2.png	78	animate	insect	grasshopper	2	0	5	stars	3	incorrect	1.18198470375501
94276	1	stim148_inanimate_furniture_chair_4.png	148	inanimate	furniture	chair	4	0	5	stars	3	incorrect	1.18198470375501
94326	1	stim160_inanimate_furniture_table_4.png	160	inanimate	furniture	table	4	0	5	stars	3	incorrect	1.18198470375501
94376	1	stim214_targets_shapes_star_2.png	214	targets	shapes	star	2	1	5	stars	3	incorrect	1.18198470375501
94426	1	stim128_inanimate_fruits_banana_4.png	128	inanimate	fruits	banana	4	0	5	stars	3	incorrect	1.18198470375501
94476	1	stim116_inanimate_clothing_shirt_4.png	116	inanimate	clothing	shirt	4	0	5	stars	3	incorrect	1.18198470375501
94526	1	stim033_animate_bird_peacock_1.png	33	animate	bird	peacock	1	0	5	stars	3	incorrect	1.18198470375501
94576	1	stim162_inanimate_plants_bush_2.png	162	inanimate	plants	bush	2	0	5	stars	3	incorrect	1.18198470375501
94626	1	stim048_animate_human_child_4.png	48	animate	human	child	4	0	5	stars	3	incorrect	1.18198470375501
94676	1	stim122_inanimate_fruits_apple_2.png	122	inanimate	fruits	apple	2	0	5	stars	3	incorrect	1.18198470375501
94726	1	stim025_animate_bird_duck_1.png	25	animate	bird	duck	1	0	5	stars	3	incorrect	1.18198470375501
94776	1	stim135_inanimate_fruits_pineapple_3.png	135	inanimate	fruits	pineapple	3	0	5	stars	3	incorrect	1.18198470375501
94826	1	stim004_animate_aquatic_crab_4.png	4	animate	aquatic	crab	4	0	5	stars	3	incorrect	1.18198470375501
94876	1	stim144_inanimate_furniture_bed_4.png	144	inanimate	furniture	bed	4	0	5	stars	3	incorrect	1.18198470375501
94926	1	stim150_inanimate_furniture_closet_2.png	150	inanimate	furniture	closet	2	0	5	stars	3	incorrect	1.18198470375501
94976	1	stim193_inanimate_tools_scissors_1.png	193	inanimate	tools	scissors	1	0	5	stars	3	incorrect	1.18198470375501
95026	1	stim185_inanimate_tools_hammer_1.png	185	inanimate	tools	hammer	1	0	5	stars	3	incorrect	1.18198470375501
95076	1	stim012_animate_aquatic_seahorse_4.png	12	animate	aquatic	seahorse	4	0	5	stars	3	incorrect	1.18198470375501
95126	1	stim136_inanimate_fruits_pineapple_4.png	136	inanimate	fruits	pineapple	4	0	5	stars	3	incorrect	1.18198470375501
