onset	duration	stimulusname	stimulusnumber	levelA	levelB	levelC	withinexemplarnumber	istarget	trialnumber	condition	response	correct	rt
42054	1	stim017_animate_aquatic_shrimp_1.png	17	animate	aquatic	shrimp	1	0	1	boats	1	correct	1.28205247609367
42254	1	stim139_inanimate_fruits_strawberry_3.png	139	inanimate	fruits	strawberry	3	0	1	boats	1	correct	1.28205247609367
42454	1	stim058_animate_human_sports_2.png	58	animate	human	sports	2	0	1	boats	1	correct	1.28205247609367
42654	1	stim037_animate_bird_penguin_1.png	37	animate	bird	penguin	1	0	1	boats	1	correct	1.28205247609367
42854	1	stim156_inanimate_furniture_sofa_4.png	156	inanimate	furniture	sofa	4	0	1	boats	1	correct	1.28205247609367
43054	1	stim008_animate_aquatic_fish_4.png	8	animate	aquatic	fish	4	0	1	boats	1	correct	1.28205247609367
43254	1	stim164_inanimate_plants_bush_4.png	164	inanimate	plants	bush	4	0	1	boats	1	correct	1.28205247609367
43454	1	stim159_inanimate_furniture_table_3.png	159	inanimate	furniture	table	3	0	1	boats	1	correct	1.28205247609367
43654	1	stim019_animate_aquatic_shrimp_3.png	19	animate	aquatic	shrimp	3	0	1	boats	1	correct	1.28205247609367
43854	1	stim038_animate_bird_penguin_2.png	38	animate	bird	penguin	2	0	1	boats	1	correct	1.28205247609367
44054	1	stim057_animate_human_sports_1.png	57	animate	human	sports	1	0	1	boats	1	correct	1.28205247609367
44254	1	stim056_animate_human_faces_4.png	56	animate	human	faces	4	0	1	boats	1	correct	1.28205247609367
44454	1	stim027_animate_bird_duck_3.png	27	animate	bird	duck	3	0	1	boats	1	correct	1.28205247609367
44654	1	stim142_inanimate_furniture_bed_2.png	142	inanimate	furniture	bed	2	0	1	boats	1	correct	1.28205247609367
44854	1	stim109_inanimate_clothing_jeans_1.png	109	inanimate	clothing	jeans	1	0	1	boats	1	correct	1.28205247609367
45054	1	stim004_animate_aquatic_crab_4.png	4	animate	aquatic	crab	4	0	1	boats	1	correct	1.28205247609367
45254	1	stim178_inanimate_plants_tulip_2.png	178	inanimate	plants	tulip	2	0	1	boats	1	correct	1.28205247609367
45454	1	stim114_inanimate_clothing_shirt_2.png	114	inanimate	clothing	shirt	2	0	1	boats	1	correct	1.28205247609367
45654	1	stim028_animate_bird_duck_4.png	28	animate	bird	duck	4	0	1	boats	1	correct	1.28205247609367
45854	1	stim131_inanimate_fruits_grape_3.png	131	inanimate	fruits	grape	3	0	1	boats	1	correct	1.28205247609367
46054	1	stim020_animate_aquatic_shrimp_4.png	20	animate	aquatic	shrimp	4	0	1	boats	1	correct	1.28205247609367
46254	1	stim191_inanimate_tools_pan_3.png	191	inanimate	tools	pan	3	0	1	boats	1	correct	1.28205247609367
46454	1	stim149_inanimate_furniture_closet_1.png	149	inanimate	furniture	closet	1	0	1	boats	1	correct	1.28205247609367
46654	1	stim099_animate_mammal_rhino_3.png	99	animate	mammal	rhino	3	0	1	boats	1	correct	1.28205247609367
46854	1	stim113_inanimate_clothing_shirt_1.png	113	inanimate	clothing	shirt	1	0	1	boats	1	correct	1.28205247609367
47054	1	stim169_inanimate_plants_sunflower_1.png	169	inanimate	plants	sunflower	1	0	1	boats	1	correct	1.28205247609367
47254	1	stim133_inanimate_fruits_pineapple_1.png	133	inanimate	fruits	pineapple	1	0	1	boats	1	correct	1.28205247609367
47454	1	stim081_animate_mammal_cow_1.png	81	animate	mammal	cow	1	0	1	boats	1	correct	1.28205247609367
47654	1	stim155_inanimate_furniture_sofa_3.png	155	inanimate	furniture	sofa	3	0	1	boats	1	correct	1.28205247609367
47854	1	stim115_inanimate_clothing_shirt_3.png	115	inanimate	clothing	shirt	3	0	1	boats	1	correct	1.28205247609367
48054	1	stim194_inanimate_tools_scissors_2.png	194	inanimate	tools	scissors	2	0	1	boats	1	correct	1.28205247609367
48254	1	stim152_inanimate_furniture_closet_4.png	152	inanimate	furniture	closet	4	0	1	boats	1	correct	1.28205247609367
48454	1	stim050_animate_human_clown_2.png	50	animate	human	clown	2	0	1	boats	1	correct	1.28205247609367
48654	1	stim200_inanimate_tools_wrench_4.png	200	inanimate	tools	wrench	4	0	1	boats	1	correct	1.28205247609367
48854	1	stim089_animate_mammal_kangaroo_1.png	89	animate	mammal	kangaroo	1	0	1	boats	1	correct	1.28205247609367
49054	1	stim083_animate_mammal_cow_3.png	83	animate	mammal	cow	3	0	1	boats	1	correct	1.28205247609367
49254	1	stim147_inanimate_furniture_chair_3.png	147	inanimate	furniture	chair	3	0	1	boats	1	correct	1.28205247609367
49454	1	stim171_inanimate_plants_sunflower_3.png	171	inanimate	plants	sunflower	3	0	1	boats	1	correct	1.28205247609367
49654	1	stim021_animate_bird_chicken_1.png	21	animate	bird	chicken	1	0	1	boats	1	correct	1.28205247609367
49854	1	stim192_inanimate_tools_pan_4.png	192	inanimate	tools	pan	4	0	1	boats	1	correct	1.28205247609367
50054	1	stim160_inanimate_furniture_table_4.png	160	inanimate	furniture	table	4	0	1	boats	1	correct	1.28205247609367
50254	1	stim073_animate_insect_dragonfly_1.png	73	animate	insect	dragonfly	1	0	1	boats	1	correct	1.28205247609367
50454	1	stim128_inanimate_fruits_banana_4.png	128	inanimate	fruits	banana	4	0	1	boats	1	correct	1.28205247609367
50654	1	stim016_animate_aquatic_shark_4.png	16	animate	aquatic	shark	4	0	1	boats	1	correct	1.28205247609367
50854	1	stim106_inanimate_clothing_hat_2.png	106	inanimate	clothing	hat	2	0	1	boats	1	correct	1.28205247609367
51054	1	stim014_animate_aquatic_shark_2.png	14	animate	aquatic	shark	2	0	1	boats	1	correct	1.28205247609367
51254	1	stim026_animate_bird_duck_2.png	26	animate	bird	duck	2	0	1	boats	1	correct	1.28205247609367
51454	1	stim174_inanimate_plants_tree_2.png	174	inanimate	plants	tree	2	0	1	boats	1	correct	1.28205247609367
51654	1	stim180_inanimate_plants_tulip_4.png	180	inanimate	plants	tulip	4	0	1	boats	1	correct	1.28205247609367
51854	1	stim007_animate_aquatic_fish_3.png	7	animate	aquatic	fish	3	0	1	boats	1	correct	1.28205247609367
52054	1	stim010_animate_aquatic_seahorse_2.png	10	animate	aquatic	seahorse	2	0	1	boats	1	correct	1.28205247609367
52254	1	stim193_inanimate_tools_scissors_1.png	193	inanimate	tools	scissors	1	0	1	boats	1	correct	1.28205247609367
52454	1	stim168_inanimate_plants_cactus_4.png	168	inanimate	plants	cactus	4	0	1	boats	1	correct	1.28205247609367
52654	1	stim098_animate_mammal_rhino_2.png	98	animate	mammal	rhino	2	0	1	boats	1	correct	1.28205247609367
52854	1	stim070_animate_insect_butterfly_2.png	70	animate	insect	butterfly	2	0	1	boats	1	correct	1.28205247609367
53054	1	stim072_animate_insect_butterfly_4.png	72	animate	insect	butterfly	4	0	1	boats	1	correct	1.28205247609367
53254	1	stim082_animate_mammal_cow_2.png	82	animate	mammal	cow	2	0	1	boats	1	correct	1.28205247609367
53454	1	stim181_inanimate_tools_broom_1.png	181	inanimate	tools	broom	1	0	1	boats	1	correct	1.28205247609367
53654	1	stim148_inanimate_furniture_chair_4.png	148	inanimate	furniture	chair	4	0	1	boats	1	correct	1.28205247609367
53854	1	stim170_inanimate_plants_sunflower_2.png	170	inanimate	plants	sunflower	2	0	1	boats	1	correct	1.28205247609367
54054	1	stim150_inanimate_furniture_closet_2.png	150	inanimate	furniture	closet	2	0	1	boats	1	correct	1.28205247609367
54254	1	stim045_animate_human_child_1.png	45	animate	human	child	1	0	1	boats	1	correct	1.28205247609367
54454	1	stim175_inanimate_plants_tree_3.png	175	inanimate	plants	tree	3	0	1	boats	1	correct	1.28205247609367
54654	1	stim146_inanimate_furniture_chair_2.png	146	inanimate	furniture	chair	2	0	1	boats	1	correct	1.28205247609367
54854	1	stim005_animate_aquatic_fish_1.png	5	animate	aquatic	fish	1	0	1	boats	1	correct	1.28205247609367
55054	1	stim086_animate_mammal_giraffe_2.png	86	animate	mammal	giraffe	2	0	1	boats	1	correct	1.28205247609367
55254	1	stim127_inanimate_fruits_banana_3.png	127	inanimate	fruits	banana	3	0	1	boats	1	correct	1.28205247609367
55454	1	stim077_animate_insect_grasshopper_1.png	77	animate	insect	grasshopper	1	0	1	boats	1	correct	1.28205247609367
55654	1	stim097_animate_mammal_rhino_1.png	97	animate	mammal	rhino	1	0	1	boats	1	correct	1.28205247609367
55854	1	stim075_animate_insect_dragonfly_3.png	75	animate	insect	dragonfly	3	0	1	boats	1	correct	1.28205247609367
56054	1	stim143_inanimate_furniture_bed_3.png	143	inanimate	furniture	bed	3	0	1	boats	1	correct	1.28205247609367
56254	1	stim092_animate_mammal_kangaroo_4.png	92	animate	mammal	kangaroo	4	0	1	boats	1	correct	1.28205247609367
56454	1	stim111_inanimate_clothing_jeans_3.png	111	inanimate	clothing	jeans	3	0	1	boats	1	correct	1.28205247609367
56654	1	stim199_inanimate_tools_wrench_3.png	199	inanimate	tools	wrench	3	0	1	boats	1	correct	1.28205247609367
56854	1	stim068_animate_insect_bug_4.png	68	animate	insect	bug	4	0	1	boats	1	correct	1.28205247609367
57054	1	stim162_inanimate_plants_bush_2.png	162	inanimate	plants	bush	2	0	1	boats	1	correct	1.28205247609367
57254	1	stim018_animate_aquatic_shrimp_2.png	18	animate	aquatic	shrimp	2	0	1	boats	1	correct	1.28205247609367
57454	1	stim046_animate_human_child_2.png	46	animate	human	child	2	0	1	boats	1	correct	1.28205247609367
57654	1	stim104_inanimate_clothing_gloves_4.png	104	inanimate	clothing	gloves	4	0	1	boats	1	correct	1.28205247609367
57854	1	stim119_inanimate_clothing_socks_3.png	119	inanimate	clothing	socks	3	0	1	boats	1	correct	1.28205247609367
58054	1	stim030_animate_bird_parrot_2.png	30	animate	bird	parrot	2	0	1	boats	1	correct	1.28205247609367
58254	1	stim163_inanimate_plants_bush_3.png	163	inanimate	plants	bush	3	0	1	boats	1	correct	1.28205247609367
58454	1	stim074_animate_insect_dragonfly_2.png	74	animate	insect	dragonfly	2	0	1	boats	1	correct	1.28205247609367
58654	1	stim084_animate_mammal_cow_4.png	84	animate	mammal	cow	4	0	1	boats	1	correct	1.28205247609367
58854	1	stim032_animate_bird_parrot_4.png	32	animate	bird	parrot	4	0	1	boats	1	correct	1.28205247609367
59054	1	stim036_animate_bird_peacock_4.png	36	animate	bird	peacock	4	0	1	boats	1	correct	1.28205247609367
59254	1	stim080_animate_insect_grasshopper_4.png	80	animate	insect	grasshopper	4	0	1	boats	1	correct	1.28205247609367
59454	1	stim022_animate_bird_chicken_2.png	22	animate	bird	chicken	2	0	1	boats	1	correct	1.28205247609367
59654	1	stim129_inanimate_fruits_grape_1.png	129	inanimate	fruits	grape	1	0	1	boats	1	correct	1.28205247609367
59854	1	stim188_inanimate_tools_hammer_4.png	188	inanimate	tools	hammer	4	0	1	boats	1	correct	1.28205247609367
60054	1	stim141_inanimate_furniture_bed_1.png	141	inanimate	furniture	bed	1	0	1	boats	1	correct	1.28205247609367
60254	1	stim015_animate_aquatic_shark_3.png	15	animate	aquatic	shark	3	0	1	boats	1	correct	1.28205247609367
60454	1	stim047_animate_human_child_3.png	47	animate	human	child	3	0	1	boats	1	correct	1.28205247609367
60654	1	stim001_animate_aquatic_crab_1.png	1	animate	aquatic	crab	1	0	1	boats	1	correct	1.28205247609367
60854	1	stim125_inanimate_fruits_banana_1.png	125	inanimate	fruits	banana	1	0	1	boats	1	correct	1.28205247609367
61054	1	stim197_inanimate_tools_wrench_1.png	197	inanimate	tools	wrench	1	0	1	boats	1	correct	1.28205247609367
61254	1	stim103_inanimate_clothing_gloves_3.png	103	inanimate	clothing	gloves	3	0	1	boats	1	correct	1.28205247609367
61454	1	stim123_inanimate_fruits_apple_3.png	123	inanimate	fruits	apple	3	0	1	boats	1	correct	1.28205247609367
61654	1	stim059_animate_human_sports_3.png	59	animate	human	sports	3	0	1	boats	1	correct	1.28205247609367
61854	1	stim124_inanimate_fruits_apple_4.png	124	inanimate	fruits	apple	4	0	1	boats	1	correct	1.28205247609367
62054	1	stim043_animate_human_baby_3.png	43	animate	human	baby	3	0	1	boats	1	correct	1.28205247609367
62254	1	stim204_targets_object_boats_4.png	204	targets	object	boats	4	1	1	boats	1	correct	1.28205247609367
62454	1	stim122_inanimate_fruits_apple_2.png	122	inanimate	fruits	apple	2	0	1	boats	1	correct	1.28205247609367
62654	1	stim117_inanimate_clothing_socks_1.png	117	inanimate	clothing	socks	1	0	1	boats	1	correct	1.28205247609367
62854	1	stim172_inanimate_plants_sunflower_4.png	172	inanimate	plants	sunflower	4	0	1	boats	1	correct	1.28205247609367
63054	1	stim118_inanimate_clothing_socks_2.png	118	inanimate	clothing	socks	2	0	1	boats	1	correct	1.28205247609367
63254	1	stim062_animate_insect_ant_2.png	62	animate	insect	ant	2	0	1	boats	1	correct	1.28205247609367
63454	1	stim116_inanimate_clothing_shirt_4.png	116	inanimate	clothing	shirt	4	0	1	boats	1	correct	1.28205247609367
63654	1	stim048_animate_human_child_4.png	48	animate	human	child	4	0	1	boats	1	correct	1.28205247609367
63854	1	stim130_inanimate_fruits_grape_2.png	130	inanimate	fruits	grape	2	0	1	boats	1	correct	1.28205247609367
64054	1	stim085_animate_mammal_giraffe_1.png	85	animate	mammal	giraffe	1	0	1	boats	1	correct	1.28205247609367
64254	1	stim165_inanimate_plants_cactus_1.png	165	inanimate	plants	cactus	1	0	1	boats	1	correct	1.28205247609367
64454	1	stim153_inanimate_furniture_sofa_1.png	153	inanimate	furniture	sofa	1	0	1	boats	1	correct	1.28205247609367
64654	1	stim051_animate_human_clown_3.png	51	animate	human	clown	3	0	1	boats	1	correct	1.28205247609367
64854	1	stim112_inanimate_clothing_jeans_4.png	112	inanimate	clothing	jeans	4	0	1	boats	1	correct	1.28205247609367
65054	1	stim183_inanimate_tools_broom_3.png	183	inanimate	tools	broom	3	0	1	boats	1	correct	1.28205247609367
65254	1	stim166_inanimate_plants_cactus_2.png	166	inanimate	plants	cactus	2	0	1	boats	1	correct	1.28205247609367
65454	1	stim055_animate_human_faces_3.png	55	animate	human	faces	3	0	1	boats	1	correct	1.28205247609367
65654	1	stim061_animate_insect_ant_1.png	61	animate	insect	ant	1	0	1	boats	1	correct	1.28205247609367
65854	1	stim039_animate_bird_penguin_3.png	39	animate	bird	penguin	3	0	1	boats	1	correct	1.28205247609367
66054	1	stim157_inanimate_furniture_table_1.png	157	inanimate	furniture	table	1	0	1	boats	1	correct	1.28205247609367
66254	1	stim006_animate_aquatic_fish_2.png	6	animate	aquatic	fish	2	0	1	boats	1	correct	1.28205247609367
66454	1	stim190_inanimate_tools_pan_2.png	190	inanimate	tools	pan	2	0	1	boats	1	correct	1.28205247609367
66654	1	stim108_inanimate_clothing_hat_4.png	108	inanimate	clothing	hat	4	0	1	boats	1	correct	1.28205247609367
66854	1	stim185_inanimate_tools_hammer_1.png	185	inanimate	tools	hammer	1	0	1	boats	1	correct	1.28205247609367
67054	1	stim069_animate_insect_butterfly_1.png	69	animate	insect	butterfly	1	0	1	boats	1	correct	1.28205247609367
67254	1	stim140_inanimate_fruits_strawberry_4.png	140	inanimate	fruits	strawberry	4	0	1	boats	1	correct	1.28205247609367
67454	1	stim029_animate_bird_parrot_1.png	29	animate	bird	parrot	1	0	1	boats	1	correct	1.28205247609367
67654	1	stim088_animate_mammal_giraffe_4.png	88	animate	mammal	giraffe	4	0	1	boats	1	correct	1.28205247609367
67854	1	stim034_animate_bird_peacock_2.png	34	animate	bird	peacock	2	0	1	boats	1	correct	1.28205247609367
68054	1	stim195_inanimate_tools_scissors_3.png	195	inanimate	tools	scissors	3	0	1	boats	1	correct	1.28205247609367
68254	1	stim176_inanimate_plants_tree_4.png	176	inanimate	plants	tree	4	0	1	boats	1	correct	1.28205247609367
68454	1	stim137_inanimate_fruits_strawberry_1.png	137	inanimate	fruits	strawberry	1	0	1	boats	1	correct	1.28205247609367
68654	1	stim031_animate_bird_parrot_3.png	31	animate	bird	parrot	3	0	1	boats	1	correct	1.28205247609367
68854	1	stim186_inanimate_tools_hammer_2.png	186	inanimate	tools	hammer	2	0	1	boats	1	correct	1.28205247609367
69054	1	stim135_inanimate_fruits_pineapple_3.png	135	inanimate	fruits	pineapple	3	0	1	boats	1	correct	1.28205247609367
69254	1	stim151_inanimate_furniture_closet_3.png	151	inanimate	furniture	closet	3	0	1	boats	1	correct	1.28205247609367
69454	1	stim033_animate_bird_peacock_1.png	33	animate	bird	peacock	1	0	1	boats	1	correct	1.28205247609367
69654	1	stim187_inanimate_tools_hammer_3.png	187	inanimate	tools	hammer	3	0	1	boats	1	correct	1.28205247609367
69854	1	stim024_animate_bird_chicken_4.png	24	animate	bird	chicken	4	0	1	boats	1	correct	1.28205247609367
70054	1	stim035_animate_bird_peacock_3.png	35	animate	bird	peacock	3	0	1	boats	1	correct	1.28205247609367
70255	1	stim044_animate_human_baby_4.png	44	animate	human	baby	4	0	1	boats	1	correct	1.28205247609367
70454	1	stim138_inanimate_fruits_strawberry_2.png	138	inanimate	fruits	strawberry	2	0	1	boats	1	correct	1.28205247609367
70654	1	stim002_animate_aquatic_crab_2.png	2	animate	aquatic	crab	2	0	1	boats	1	correct	1.28205247609367
70854	1	stim025_animate_bird_duck_1.png	25	animate	bird	duck	1	0	1	boats	1	correct	1.28205247609367
71055	1	stim054_animate_human_faces_2.png	54	animate	human	faces	2	0	1	boats	1	correct	1.28205247609367
71255	1	stim087_animate_mammal_giraffe_3.png	87	animate	mammal	giraffe	3	0	1	boats	1	correct	1.28205247609367
71454	1	stim189_inanimate_tools_pan_1.png	189	inanimate	tools	pan	1	0	1	boats	1	correct	1.28205247609367
71655	1	stim107_inanimate_clothing_hat_3.png	107	inanimate	clothing	hat	3	0	1	boats	1	correct	1.28205247609367
71855	1	stim091_animate_mammal_kangaroo_3.png	91	animate	mammal	kangaroo	3	0	1	boats	1	correct	1.28205247609367
72055	1	stim101_inanimate_clothing_gloves_1.png	101	inanimate	clothing	gloves	1	0	1	boats	1	correct	1.28205247609367
72255	1	stim078_animate_insect_grasshopper_2.png	78	animate	insect	grasshopper	2	0	1	boats	1	correct	1.28205247609367
72455	1	stim009_animate_aquatic_seahorse_1.png	9	animate	aquatic	seahorse	1	0	1	boats	1	correct	1.28205247609367
72655	1	stim090_animate_mammal_kangaroo_2.png	90	animate	mammal	kangaroo	2	0	1	boats	1	correct	1.28205247609367
72855	1	stim042_animate_human_baby_2.png	42	animate	human	baby	2	0	1	boats	1	correct	1.28205247609367
73055	1	stim079_animate_insect_grasshopper_3.png	79	animate	insect	grasshopper	3	0	1	boats	1	correct	1.28205247609367
73255	1	stim060_animate_human_sports_4.png	60	animate	human	sports	4	0	1	boats	1	correct	1.28205247609367
73455	1	stim063_animate_insect_ant_3.png	63	animate	insect	ant	3	0	1	boats	1	correct	1.28205247609367
73655	1	stim145_inanimate_furniture_chair_1.png	145	inanimate	furniture	chair	1	0	1	boats	1	correct	1.28205247609367
73855	1	stim158_inanimate_furniture_table_2.png	158	inanimate	furniture	table	2	0	1	boats	1	correct	1.28205247609367
74055	1	stim120_inanimate_clothing_socks_4.png	120	inanimate	clothing	socks	4	0	1	boats	1	correct	1.28205247609367
74255	1	stim167_inanimate_plants_cactus_3.png	167	inanimate	plants	cactus	3	0	1	boats	1	correct	1.28205247609367
74455	1	stim134_inanimate_fruits_pineapple_2.png	134	inanimate	fruits	pineapple	2	0	1	boats	1	correct	1.28205247609367
74655	1	stim198_inanimate_tools_wrench_2.png	198	inanimate	tools	wrench	2	0	1	boats	1	correct	1.28205247609367
74855	1	stim182_inanimate_tools_broom_2.png	182	inanimate	tools	broom	2	0	1	boats	1	correct	1.28205247609367
75055	1	stim067_animate_insect_bug_3.png	67	animate	insect	bug	3	0	1	boats	1	correct	1.28205247609367
75255	1	stim154_inanimate_furniture_sofa_2.png	154	inanimate	furniture	sofa	2	0	1	boats	1	correct	1.28205247609367
75455	1	stim093_animate_mammal_monkey_1.png	93	animate	mammal	monkey	1	0	1	boats	1	correct	1.28205247609367
75655	1	stim049_animate_human_clown_1.png	49	animate	human	clown	1	0	1	boats	1	correct	1.28205247609367
75855	1	stim066_animate_insect_bug_2.png	66	animate	insect	bug	2	0	1	boats	1	correct	1.28205247609367
76055	1	stim064_animate_insect_ant_4.png	64	animate	insect	ant	4	0	1	boats	1	correct	1.28205247609367
76255	1	stim013_animate_aquatic_shark_1.png	13	animate	aquatic	shark	1	0	1	boats	1	correct	1.28205247609367
76455	1	stim105_inanimate_clothing_hat_1.png	105	inanimate	clothing	hat	1	0	1	boats	1	correct	1.28205247609367
76655	1	stim053_animate_human_faces_1.png	53	animate	human	faces	1	0	1	boats	1	correct	1.28205247609367
76855	1	stim179_inanimate_plants_tulip_3.png	179	inanimate	plants	tulip	3	0	1	boats	1	correct	1.28205247609367
77055	1	stim110_inanimate_clothing_jeans_2.png	110	inanimate	clothing	jeans	2	0	1	boats	1	correct	1.28205247609367
77255	1	stim003_animate_aquatic_crab_3.png	3	animate	aquatic	crab	3	0	1	boats	1	correct	1.28205247609367
77455	1	stim065_animate_insect_bug_1.png	65	animate	insect	bug	1	0	1	boats	1	correct	1.28205247609367
77655	1	stim161_inanimate_plants_bush_1.png	161	inanimate	plants	bush	1	0	1	boats	1	correct	1.28205247609367
77855	1	stim023_animate_bird_chicken_3.png	23	animate	bird	chicken	3	0	1	boats	1	correct	1.28205247609367
78055	1	stim196_inanimate_tools_scissors_4.png	196	inanimate	tools	scissors	4	0	1	boats	1	correct	1.28205247609367
78255	1	stim071_animate_insect_butterfly_3.png	71	animate	insect	butterfly	3	0	1	boats	1	correct	1.28205247609367
78455	1	stim095_animate_mammal_monkey_3.png	95	animate	mammal	monkey	3	0	1	boats	1	correct	1.28205247609367
78655	1	stim041_animate_human_baby_1.png	41	animate	human	baby	1	0	1	boats	1	correct	1.28205247609367
78855	1	stim100_animate_mammal_rhino_4.png	100	animate	mammal	rhino	4	0	1	boats	1	correct	1.28205247609367
79055	1	stim096_animate_mammal_monkey_4.png	96	animate	mammal	monkey	4	0	1	boats	1	correct	1.28205247609367
79255	1	stim102_inanimate_clothing_gloves_2.png	102	inanimate	clothing	gloves	2	0	1	boats	1	correct	1.28205247609367
79455	1	stim121_inanimate_fruits_apple_1.png	121	inanimate	fruits	apple	1	0	1	boats	1	correct	1.28205247609367
79655	1	stim136_inanimate_fruits_pineapple_4.png	136	inanimate	fruits	pineapple	4	0	1	boats	1	correct	1.28205247609367
79855	1	stim132_inanimate_fruits_grape_4.png	132	inanimate	fruits	grape	4	0	1	boats	1	correct	1.28205247609367
80055	1	stim052_animate_human_clown_4.png	52	animate	human	clown	4	0	1	boats	1	correct	1.28205247609367
80255	1	stim144_inanimate_furniture_bed_4.png	144	inanimate	furniture	bed	4	0	1	boats	1	correct	1.28205247609367
80455	1	stim177_inanimate_plants_tulip_1.png	177	inanimate	plants	tulip	1	0	1	boats	1	correct	1.28205247609367
80655	1	stim094_animate_mammal_monkey_2.png	94	animate	mammal	monkey	2	0	1	boats	1	correct	1.28205247609367
80855	1	stim173_inanimate_plants_tree_1.png	173	inanimate	plants	tree	1	0	1	boats	1	correct	1.28205247609367
81055	1	stim012_animate_aquatic_seahorse_4.png	12	animate	aquatic	seahorse	4	0	1	boats	1	correct	1.28205247609367
81255	1	stim040_animate_bird_penguin_4.png	40	animate	bird	penguin	4	0	1	boats	1	correct	1.28205247609367
81455	1	stim011_animate_aquatic_seahorse_3.png	11	animate	aquatic	seahorse	3	0	1	boats	1	correct	1.28205247609367
81655	1	stim126_inanimate_fruits_banana_2.png	126	inanimate	fruits	banana	2	0	1	boats	1	correct	1.28205247609367
81855	1	stim184_inanimate_tools_broom_4.png	184	inanimate	tools	broom	4	0	1	boats	1	correct	1.28205247609367
82055	1	stim076_animate_insect_dragonfly_4.png	76	animate	insect	dragonfly	4	0	1	boats	1	correct	1.28205247609367
89522	1	stim178_inanimate_plants_tulip_2.png	178	inanimate	plants	tulip	2	0	2	stars	3	correct	1.04330007853059
89722	1	stim163_inanimate_plants_bush_3.png	163	inanimate	plants	bush	3	0	2	stars	3	correct	1.04330007853059
89922	1	stim157_inanimate_furniture_table_1.png	157	inanimate	furniture	table	1	0	2	stars	3	correct	1.04330007853059
90122	1	stim030_animate_bird_parrot_2.png	30	animate	bird	parrot	2	0	2	stars	3	correct	1.04330007853059
90322	1	stim120_inanimate_clothing_socks_4.png	120	inanimate	clothing	socks	4	0	2	stars	3	correct	1.04330007853059
90522	1	stim046_animate_human_child_2.png	46	animate	human	child	2	0	2	stars	3	correct	1.04330007853059
90722	1	stim031_animate_bird_parrot_3.png	31	animate	bird	parrot	3	0	2	stars	3	correct	1.04330007853059
90922	1	stim123_inanimate_fruits_apple_3.png	123	inanimate	fruits	apple	3	0	2	stars	3	correct	1.04330007853059
91122	1	stim200_inanimate_tools_wrench_4.png	200	inanimate	tools	wrench	4	0	2	stars	3	correct	1.04330007853059
91322	1	stim175_inanimate_plants_tree_3.png	175	inanimate	plants	tree	3	0	2	stars	3	correct	1.04330007853059
91522	1	stim061_animate_insect_ant_1.png	61	animate	insect	ant	1	0	2	stars	3	correct	1.04330007853059
91722	1	stim149_inanimate_furniture_closet_1.png	149	inanimate	furniture	closet	1	0	2	stars	3	correct	1.04330007853059
91922	1	stim166_inanimate_plants_cactus_2.png	166	inanimate	plants	cactus	2	0	2	stars	3	correct	1.04330007853059
92122	1	stim002_animate_aquatic_crab_2.png	2	animate	aquatic	crab	2	0	2	stars	3	correct	1.04330007853059
92322	1	stim124_inanimate_fruits_apple_4.png	124	inanimate	fruits	apple	4	0	2	stars	3	correct	1.04330007853059
92522	1	stim058_animate_human_sports_2.png	58	animate	human	sports	2	0	2	stars	3	correct	1.04330007853059
92722	1	stim006_animate_aquatic_fish_2.png	6	animate	aquatic	fish	2	0	2	stars	3	correct	1.04330007853059
92922	1	stim083_animate_mammal_cow_3.png	83	animate	mammal	cow	3	0	2	stars	3	correct	1.04330007853059
93122	1	stim045_animate_human_child_1.png	45	animate	human	child	1	0	2	stars	3	correct	1.04330007853059
93322	1	stim021_animate_bird_chicken_1.png	21	animate	bird	chicken	1	0	2	stars	3	correct	1.04330007853059
93522	1	stim159_inanimate_furniture_table_3.png	159	inanimate	furniture	table	3	0	2	stars	3	correct	1.04330007853059
93722	1	stim056_animate_human_faces_4.png	56	animate	human	faces	4	0	2	stars	3	correct	1.04330007853059
93922	1	stim141_inanimate_furniture_bed_1.png	141	inanimate	furniture	bed	1	0	2	stars	3	correct	1.04330007853059
94122	1	stim027_animate_bird_duck_3.png	27	animate	bird	duck	3	0	2	stars	3	correct	1.04330007853059
94322	1	stim034_animate_bird_peacock_2.png	34	animate	bird	peacock	2	0	2	stars	3	correct	1.04330007853059
94522	1	stim195_inanimate_tools_scissors_3.png	195	inanimate	tools	scissors	3	0	2	stars	3	correct	1.04330007853059
94722	1	stim136_inanimate_fruits_pineapple_4.png	136	inanimate	fruits	pineapple	4	0	2	stars	3	correct	1.04330007853059
94922	1	stim160_inanimate_furniture_table_4.png	160	inanimate	furniture	table	4	0	2	stars	3	correct	1.04330007853059
95122	1	stim068_animate_insect_bug_4.png	68	animate	insect	bug	4	0	2	stars	3	correct	1.04330007853059
95322	1	stim191_inanimate_tools_pan_3.png	191	inanimate	tools	pan	3	0	2	stars	3	correct	1.04330007853059
95522	1	stim118_inanimate_clothing_socks_2.png	118	inanimate	clothing	socks	2	0	2	stars	3	correct	1.04330007853059
95722	1	stim184_inanimate_tools_broom_4.png	184	inanimate	tools	broom	4	0	2	stars	3	correct	1.04330007853059
95922	1	stim053_animate_human_faces_1.png	53	animate	human	faces	1	0	2	stars	3	correct	1.04330007853059
96122	1	stim148_inanimate_furniture_chair_4.png	148	inanimate	furniture	chair	4	0	2	stars	3	correct	1.04330007853059
96322	1	stim127_inanimate_fruits_banana_3.png	127	inanimate	fruits	banana	3	0	2	stars	3	correct	1.04330007853059
96522	1	stim186_inanimate_tools_hammer_2.png	186	inanimate	tools	hammer	2	0	2	stars	3	correct	1.04330007853059
96722	1	stim093_animate_mammal_monkey_1.png	93	animate	mammal	monkey	1	0	2	stars	3	correct	1.04330007853059
96922	1	stim067_animate_insect_bug_3.png	67	animate	insect	bug	3	0	2	stars	3	correct	1.04330007853059
97122	1	stim117_inanimate_clothing_socks_1.png	117	inanimate	clothing	socks	1	0	2	stars	3	correct	1.04330007853059
97322	1	stim066_animate_insect_bug_2.png	66	animate	insect	bug	2	0	2	stars	3	correct	1.04330007853059
97522	1	stim116_inanimate_clothing_shirt_4.png	116	inanimate	clothing	shirt	4	0	2	stars	3	correct	1.04330007853059
97722	1	stim131_inanimate_fruits_grape_3.png	131	inanimate	fruits	grape	3	0	2	stars	3	correct	1.04330007853059
97922	1	stim192_inanimate_tools_pan_4.png	192	inanimate	tools	pan	4	0	2	stars	3	correct	1.04330007853059
98122	1	stim011_animate_aquatic_seahorse_3.png	11	animate	aquatic	seahorse	3	0	2	stars	3	correct	1.04330007853059
98322	1	stim094_animate_mammal_monkey_2.png	94	animate	mammal	monkey	2	0	2	stars	3	correct	1.04330007853059
98522	1	stim114_inanimate_clothing_shirt_2.png	114	inanimate	clothing	shirt	2	0	2	stars	3	correct	1.04330007853059
98722	1	stim168_inanimate_plants_cactus_4.png	168	inanimate	plants	cactus	4	0	2	stars	3	correct	1.04330007853059
98922	1	stim072_animate_insect_butterfly_4.png	72	animate	insect	butterfly	4	0	2	stars	3	correct	1.04330007853059
99122	1	stim165_inanimate_plants_cactus_1.png	165	inanimate	plants	cactus	1	0	2	stars	3	correct	1.04330007853059
99322	1	stim036_animate_bird_peacock_4.png	36	animate	bird	peacock	4	0	2	stars	3	correct	1.04330007853059
99522	1	stim005_animate_aquatic_fish_1.png	5	animate	aquatic	fish	1	0	2	stars	3	correct	1.04330007853059
99722	1	stim216_targets_shapes_star_4.png	216	targets	shapes	star	4	1	2	stars	3	correct	1.04330007853059
99922	1	stim035_animate_bird_peacock_3.png	35	animate	bird	peacock	3	0	2	stars	3	correct	1.04330007853059
100122	1	stim022_animate_bird_chicken_2.png	22	animate	bird	chicken	2	0	2	stars	3	correct	1.04330007853059
100322	1	stim033_animate_bird_peacock_1.png	33	animate	bird	peacock	1	0	2	stars	3	correct	1.04330007853059
100522	1	stim134_inanimate_fruits_pineapple_2.png	134	inanimate	fruits	pineapple	2	0	2	stars	3	correct	1.04330007853059
100722	1	stim057_animate_human_sports_1.png	57	animate	human	sports	1	0	2	stars	3	correct	1.04330007853059
100922	1	stim060_animate_human_sports_4.png	60	animate	human	sports	4	0	2	stars	3	correct	1.04330007853059
101122	1	stim190_inanimate_tools_pan_2.png	190	inanimate	tools	pan	2	0	2	stars	3	correct	1.04330007853059
101322	1	stim079_animate_insect_grasshopper_3.png	79	animate	insect	grasshopper	3	0	2	stars	3	correct	1.04330007853059
101522	1	stim091_animate_mammal_kangaroo_3.png	91	animate	mammal	kangaroo	3	0	2	stars	3	correct	1.04330007853059
101722	1	stim098_animate_mammal_rhino_2.png	98	animate	mammal	rhino	2	0	2	stars	3	correct	1.04330007853059
101922	1	stim167_inanimate_plants_cactus_3.png	167	inanimate	plants	cactus	3	0	2	stars	3	correct	1.04330007853059
102122	1	stim018_animate_aquatic_shrimp_2.png	18	animate	aquatic	shrimp	2	0	2	stars	3	correct	1.04330007853059
102322	1	stim013_animate_aquatic_shark_1.png	13	animate	aquatic	shark	1	0	2	stars	3	correct	1.04330007853059
102522	1	stim052_animate_human_clown_4.png	52	animate	human	clown	4	0	2	stars	3	correct	1.04330007853059
102722	1	stim106_inanimate_clothing_hat_2.png	106	inanimate	clothing	hat	2	0	2	stars	3	correct	1.04330007853059
102922	1	stim174_inanimate_plants_tree_2.png	174	inanimate	plants	tree	2	0	2	stars	3	correct	1.04330007853059
103122	1	stim063_animate_insect_ant_3.png	63	animate	insect	ant	3	0	2	stars	3	correct	1.04330007853059
103322	1	stim055_animate_human_faces_3.png	55	animate	human	faces	3	0	2	stars	3	correct	1.04330007853059
103522	1	stim090_animate_mammal_kangaroo_2.png	90	animate	mammal	kangaroo	2	0	2	stars	3	correct	1.04330007853059
103722	1	stim003_animate_aquatic_crab_3.png	3	animate	aquatic	crab	3	0	2	stars	3	correct	1.04330007853059
103922	1	stim086_animate_mammal_giraffe_2.png	86	animate	mammal	giraffe	2	0	2	stars	3	correct	1.04330007853059
104122	1	stim193_inanimate_tools_scissors_1.png	193	inanimate	tools	scissors	1	0	2	stars	3	correct	1.04330007853059
104322	1	stim177_inanimate_plants_tulip_1.png	177	inanimate	plants	tulip	1	0	2	stars	3	correct	1.04330007853059
104522	1	stim010_animate_aquatic_seahorse_2.png	10	animate	aquatic	seahorse	2	0	2	stars	3	correct	1.04330007853059
104722	1	stim152_inanimate_furniture_closet_4.png	152	inanimate	furniture	closet	4	0	2	stars	3	correct	1.04330007853059
104922	1	stim185_inanimate_tools_hammer_1.png	185	inanimate	tools	hammer	1	0	2	stars	3	correct	1.04330007853059
105122	1	stim172_inanimate_plants_sunflower_4.png	172	inanimate	plants	sunflower	4	0	2	stars	3	correct	1.04330007853059
105322	1	stim104_inanimate_clothing_gloves_4.png	104	inanimate	clothing	gloves	4	0	2	stars	3	correct	1.04330007853059
105522	1	stim161_inanimate_plants_bush_1.png	161	inanimate	plants	bush	1	0	2	stars	3	correct	1.04330007853059
105722	1	stim122_inanimate_fruits_apple_2.png	122	inanimate	fruits	apple	2	0	2	stars	3	correct	1.04330007853059
105922	1	stim050_animate_human_clown_2.png	50	animate	human	clown	2	0	2	stars	3	correct	1.04330007853059
106122	1	stim121_inanimate_fruits_apple_1.png	121	inanimate	fruits	apple	1	0	2	stars	3	correct	1.04330007853059
106322	1	stim199_inanimate_tools_wrench_3.png	199	inanimate	tools	wrench	3	0	2	stars	3	correct	1.04330007853059
106522	1	stim180_inanimate_plants_tulip_4.png	180	inanimate	plants	tulip	4	0	2	stars	3	correct	1.04330007853059
106722	1	stim008_animate_aquatic_fish_4.png	8	animate	aquatic	fish	4	0	2	stars	3	correct	1.04330007853059
106922	1	stim144_inanimate_furniture_bed_4.png	144	inanimate	furniture	bed	4	0	2	stars	3	correct	1.04330007853059
107122	1	stim062_animate_insect_ant_2.png	62	animate	insect	ant	2	0	2	stars	3	correct	1.04330007853059
107322	1	stim129_inanimate_fruits_grape_1.png	129	inanimate	fruits	grape	1	0	2	stars	3	correct	1.04330007853059
107522	1	stim020_animate_aquatic_shrimp_4.png	20	animate	aquatic	shrimp	4	0	2	stars	3	correct	1.04330007853059
107722	1	stim182_inanimate_tools_broom_2.png	182	inanimate	tools	broom	2	0	2	stars	3	correct	1.04330007853059
107922	1	stim169_inanimate_plants_sunflower_1.png	169	inanimate	plants	sunflower	1	0	2	stars	3	correct	1.04330007853059
108122	1	stim115_inanimate_clothing_shirt_3.png	115	inanimate	clothing	shirt	3	0	2	stars	3	correct	1.04330007853059
108322	1	stim164_inanimate_plants_bush_4.png	164	inanimate	plants	bush	4	0	2	stars	3	correct	1.04330007853059
108522	1	stim070_animate_insect_butterfly_2.png	70	animate	insect	butterfly	2	0	2	stars	3	correct	1.04330007853059
108722	1	stim140_inanimate_fruits_strawberry_4.png	140	inanimate	fruits	strawberry	4	0	2	stars	3	correct	1.04330007853059
108922	1	stim150_inanimate_furniture_closet_2.png	150	inanimate	furniture	closet	2	0	2	stars	3	correct	1.04330007853059
109122	1	stim024_animate_bird_chicken_4.png	24	animate	bird	chicken	4	0	2	stars	3	correct	1.04330007853059
109322	1	stim087_animate_mammal_giraffe_3.png	87	animate	mammal	giraffe	3	0	2	stars	3	correct	1.04330007853059
109522	1	stim151_inanimate_furniture_closet_3.png	151	inanimate	furniture	closet	3	0	2	stars	3	correct	1.04330007853059
109722	1	stim084_animate_mammal_cow_4.png	84	animate	mammal	cow	4	0	2	stars	3	correct	1.04330007853059
109922	1	stim096_animate_mammal_monkey_4.png	96	animate	mammal	monkey	4	0	2	stars	3	correct	1.04330007853059
110122	1	stim071_animate_insect_butterfly_3.png	71	animate	insect	butterfly	3	0	2	stars	3	correct	1.04330007853059
110322	1	stim108_inanimate_clothing_hat_4.png	108	inanimate	clothing	hat	4	0	2	stars	3	correct	1.04330007853059
110522	1	stim015_animate_aquatic_shark_3.png	15	animate	aquatic	shark	3	0	2	stars	3	correct	1.04330007853059
110722	1	stim212_targets_shapes_star_4.png	212	targets	shapes	star	4	1	2	stars	3	correct	1.04330007853059
110922	1	stim198_inanimate_tools_wrench_2.png	198	inanimate	tools	wrench	2	0	2	stars	3	correct	1.04330007853059
111122	1	stim142_inanimate_furniture_bed_2.png	142	inanimate	furniture	bed	2	0	2	stars	3	correct	1.04330007853059
111322	1	stim138_inanimate_fruits_strawberry_2.png	138	inanimate	fruits	strawberry	2	0	2	stars	3	correct	1.04330007853059
111522	1	stim130_inanimate_fruits_grape_2.png	130	inanimate	fruits	grape	2	0	2	stars	3	correct	1.04330007853059
111722	1	stim059_animate_human_sports_3.png	59	animate	human	sports	3	0	2	stars	3	correct	1.04330007853059
111922	1	stim026_animate_bird_duck_2.png	26	animate	bird	duck	2	0	2	stars	3	correct	1.04330007853059
112122	1	stim143_inanimate_furniture_bed_3.png	143	inanimate	furniture	bed	3	0	2	stars	3	correct	1.04330007853059
112322	1	stim037_animate_bird_penguin_1.png	37	animate	bird	penguin	1	0	2	stars	3	correct	1.04330007853059
112522	1	stim132_inanimate_fruits_grape_4.png	132	inanimate	fruits	grape	4	0	2	stars	3	correct	1.04330007853059
112722	1	stim009_animate_aquatic_seahorse_1.png	9	animate	aquatic	seahorse	1	0	2	stars	3	correct	1.04330007853059
112922	1	stim109_inanimate_clothing_jeans_1.png	109	inanimate	clothing	jeans	1	0	2	stars	3	correct	1.04330007853059
113122	1	stim099_animate_mammal_rhino_3.png	99	animate	mammal	rhino	3	0	2	stars	3	correct	1.04330007853059
113322	1	stim119_inanimate_clothing_socks_3.png	119	inanimate	clothing	socks	3	0	2	stars	3	correct	1.04330007853059
113522	1	stim101_inanimate_clothing_gloves_1.png	101	inanimate	clothing	gloves	1	0	2	stars	3	correct	1.04330007853059
113722	1	stim181_inanimate_tools_broom_1.png	181	inanimate	tools	broom	1	0	2	stars	3	correct	1.04330007853059
113922	1	stim041_animate_human_baby_1.png	41	animate	human	baby	1	0	2	stars	3	correct	1.04330007853059
114122	1	stim135_inanimate_fruits_pineapple_3.png	135	inanimate	fruits	pineapple	3	0	2	stars	3	correct	1.04330007853059
114322	1	stim111_inanimate_clothing_jeans_3.png	111	inanimate	clothing	jeans	3	0	2	stars	3	correct	1.04330007853059
114522	1	stim069_animate_insect_butterfly_1.png	69	animate	insect	butterfly	1	0	2	stars	3	correct	1.04330007853059
114722	1	stim025_animate_bird_duck_1.png	25	animate	bird	duck	1	0	2	stars	3	correct	1.04330007853059
114922	1	stim054_animate_human_faces_2.png	54	animate	human	faces	2	0	2	stars	3	correct	1.04330007853059
115122	1	stim017_animate_aquatic_shrimp_1.png	17	animate	aquatic	shrimp	1	0	2	stars	3	correct	1.04330007853059
115322	1	stim081_animate_mammal_cow_1.png	81	animate	mammal	cow	1	0	2	stars	3	correct	1.04330007853059
115522	1	stim133_inanimate_fruits_pineapple_1.png	133	inanimate	fruits	pineapple	1	0	2	stars	3	correct	1.04330007853059
115722	1	stim082_animate_mammal_cow_2.png	82	animate	mammal	cow	2	0	2	stars	3	correct	1.04330007853059
115922	1	stim176_inanimate_plants_tree_4.png	176	inanimate	plants	tree	4	0	2	stars	3	correct	1.04330007853059
116122	1	stim074_animate_insect_dragonfly_2.png	74	animate	insect	dragonfly	2	0	2	stars	3	correct	1.04330007853059
116322	1	stim075_animate_insect_dragonfly_3.png	75	animate	insect	dragonfly	3	0	2	stars	3	correct	1.04330007853059
116522	1	stim043_animate_human_baby_3.png	43	animate	human	baby	3	0	2	stars	3	correct	1.04330007853059
116722	1	stim171_inanimate_plants_sunflower_3.png	171	inanimate	plants	sunflower	3	0	2	stars	3	correct	1.04330007853059
116922	1	stim187_inanimate_tools_hammer_3.png	187	inanimate	tools	hammer	3	0	2	stars	3	correct	1.04330007853059
117122	1	stim153_inanimate_furniture_sofa_1.png	153	inanimate	furniture	sofa	1	0	2	stars	3	correct	1.04330007853059
117322	1	stim103_inanimate_clothing_gloves_3.png	103	inanimate	clothing	gloves	3	0	2	stars	3	correct	1.04330007853059
117522	1	stim215_targets_shapes_star_3.png	215	targets	shapes	star	3	1	2	stars	3	correct	1.04330007853059
117722	1	stim088_animate_mammal_giraffe_4.png	88	animate	mammal	giraffe	4	0	2	stars	3	correct	1.04330007853059
117922	1	stim156_inanimate_furniture_sofa_4.png	156	inanimate	furniture	sofa	4	0	2	stars	3	correct	1.04330007853059
118122	1	stim023_animate_bird_chicken_3.png	23	animate	bird	chicken	3	0	2	stars	3	correct	1.04330007853059
118322	1	stim097_animate_mammal_rhino_1.png	97	animate	mammal	rhino	1	0	2	stars	3	correct	1.04330007853059
118522	1	stim095_animate_mammal_monkey_3.png	95	animate	mammal	monkey	3	0	2	stars	3	correct	1.04330007853059
118722	1	stim044_animate_human_baby_4.png	44	animate	human	baby	4	0	2	stars	3	correct	1.04330007853059
118922	1	stim197_inanimate_tools_wrench_1.png	197	inanimate	tools	wrench	1	0	2	stars	3	correct	1.04330007853059
119122	1	stim004_animate_aquatic_crab_4.png	4	animate	aquatic	crab	4	0	2	stars	3	correct	1.04330007853059
119322	1	stim019_animate_aquatic_shrimp_3.png	19	animate	aquatic	shrimp	3	0	2	stars	3	correct	1.04330007853059
119522	1	stim196_inanimate_tools_scissors_4.png	196	inanimate	tools	scissors	4	0	2	stars	3	correct	1.04330007853059
119722	1	stim007_animate_aquatic_fish_3.png	7	animate	aquatic	fish	3	0	2	stars	3	correct	1.04330007853059
119922	1	stim012_animate_aquatic_seahorse_4.png	12	animate	aquatic	seahorse	4	0	2	stars	3	correct	1.04330007853059
120122	1	stim092_animate_mammal_kangaroo_4.png	92	animate	mammal	kangaroo	4	0	2	stars	3	correct	1.04330007853059
120322	1	stim076_animate_insect_dragonfly_4.png	76	animate	insect	dragonfly	4	0	2	stars	3	correct	1.04330007853059
120522	1	stim042_animate_human_baby_2.png	42	animate	human	baby	2	0	2	stars	3	correct	1.04330007853059
120722	1	stim102_inanimate_clothing_gloves_2.png	102	inanimate	clothing	gloves	2	0	2	stars	3	correct	1.04330007853059
120922	1	stim029_animate_bird_parrot_1.png	29	animate	bird	parrot	1	0	2	stars	3	correct	1.04330007853059
121122	1	stim047_animate_human_child_3.png	47	animate	human	child	3	0	2	stars	3	correct	1.04330007853059
121322	1	stim146_inanimate_furniture_chair_2.png	146	inanimate	furniture	chair	2	0	2	stars	3	correct	1.04330007853059
121522	1	stim188_inanimate_tools_hammer_4.png	188	inanimate	tools	hammer	4	0	2	stars	3	correct	1.04330007853059
121722	1	stim158_inanimate_furniture_table_2.png	158	inanimate	furniture	table	2	0	2	stars	3	correct	1.04330007853059
121922	1	stim126_inanimate_fruits_banana_2.png	126	inanimate	fruits	banana	2	0	2	stars	3	correct	1.04330007853059
122122	1	stim014_animate_aquatic_shark_2.png	14	animate	aquatic	shark	2	0	2	stars	3	correct	1.04330007853059
122322	1	stim100_animate_mammal_rhino_4.png	100	animate	mammal	rhino	4	0	2	stars	3	correct	1.04330007853059
122522	1	stim048_animate_human_child_4.png	48	animate	human	child	4	0	2	stars	3	correct	1.04330007853059
122722	1	stim154_inanimate_furniture_sofa_2.png	154	inanimate	furniture	sofa	2	0	2	stars	3	correct	1.04330007853059
122922	1	stim032_animate_bird_parrot_4.png	32	animate	bird	parrot	4	0	2	stars	3	correct	1.04330007853059
123122	1	stim183_inanimate_tools_broom_3.png	183	inanimate	tools	broom	3	0	2	stars	3	correct	1.04330007853059
123322	1	stim028_animate_bird_duck_4.png	28	animate	bird	duck	4	0	2	stars	3	correct	1.04330007853059
123522	1	stim110_inanimate_clothing_jeans_2.png	110	inanimate	clothing	jeans	2	0	2	stars	3	correct	1.04330007853059
123722	1	stim105_inanimate_clothing_hat_1.png	105	inanimate	clothing	hat	1	0	2	stars	3	correct	1.04330007853059
123922	1	stim039_animate_bird_penguin_3.png	39	animate	bird	penguin	3	0	2	stars	3	correct	1.04330007853059
124122	1	stim107_inanimate_clothing_hat_3.png	107	inanimate	clothing	hat	3	0	2	stars	3	correct	1.04330007853059
124322	1	stim038_animate_bird_penguin_2.png	38	animate	bird	penguin	2	0	2	stars	3	correct	1.04330007853059
124522	1	stim065_animate_insect_bug_1.png	65	animate	insect	bug	1	0	2	stars	3	correct	1.04330007853059
124722	1	stim077_animate_insect_grasshopper_1.png	77	animate	insect	grasshopper	1	0	2	stars	3	correct	1.04330007853059
124922	1	stim040_animate_bird_penguin_4.png	40	animate	bird	penguin	4	0	2	stars	3	correct	1.04330007853059
125122	1	stim113_inanimate_clothing_shirt_1.png	113	inanimate	clothing	shirt	1	0	2	stars	3	correct	1.04330007853059
125322	1	stim162_inanimate_plants_bush_2.png	162	inanimate	plants	bush	2	0	2	stars	3	correct	1.04330007853059
125522	1	stim001_animate_aquatic_crab_1.png	1	animate	aquatic	crab	1	0	2	stars	3	correct	1.04330007853059
125722	1	stim179_inanimate_plants_tulip_3.png	179	inanimate	plants	tulip	3	0	2	stars	3	correct	1.04330007853059
125922	1	stim078_animate_insect_grasshopper_2.png	78	animate	insect	grasshopper	2	0	2	stars	3	correct	1.04330007853059
126122	1	stim016_animate_aquatic_shark_4.png	16	animate	aquatic	shark	4	0	2	stars	3	correct	1.04330007853059
126322	1	stim064_animate_insect_ant_4.png	64	animate	insect	ant	4	0	2	stars	3	correct	1.04330007853059
126522	1	stim125_inanimate_fruits_banana_1.png	125	inanimate	fruits	banana	1	0	2	stars	3	correct	1.04330007853059
126722	1	stim137_inanimate_fruits_strawberry_1.png	137	inanimate	fruits	strawberry	1	0	2	stars	3	correct	1.04330007853059
126922	1	stim189_inanimate_tools_pan_1.png	189	inanimate	tools	pan	1	0	2	stars	3	correct	1.04330007853059
127122	1	stim139_inanimate_fruits_strawberry_3.png	139	inanimate	fruits	strawberry	3	0	2	stars	3	correct	1.04330007853059
127322	1	stim080_animate_insect_grasshopper_4.png	80	animate	insect	grasshopper	4	0	2	stars	3	correct	1.04330007853059
127522	1	stim173_inanimate_plants_tree_1.png	173	inanimate	plants	tree	1	0	2	stars	3	correct	1.04330007853059
127722	1	stim089_animate_mammal_kangaroo_1.png	89	animate	mammal	kangaroo	1	0	2	stars	3	correct	1.04330007853059
127922	1	stim145_inanimate_furniture_chair_1.png	145	inanimate	furniture	chair	1	0	2	stars	3	correct	1.04330007853059
128122	1	stim147_inanimate_furniture_chair_3.png	147	inanimate	furniture	chair	3	0	2	stars	3	correct	1.04330007853059
128322	1	stim073_animate_insect_dragonfly_1.png	73	animate	insect	dragonfly	1	0	2	stars	3	correct	1.04330007853059
128522	1	stim194_inanimate_tools_scissors_2.png	194	inanimate	tools	scissors	2	0	2	stars	3	correct	1.04330007853059
128722	1	stim155_inanimate_furniture_sofa_3.png	155	inanimate	furniture	sofa	3	0	2	stars	3	correct	1.04330007853059
128922	1	stim049_animate_human_clown_1.png	49	animate	human	clown	1	0	2	stars	3	correct	1.04330007853059
129122	1	stim128_inanimate_fruits_banana_4.png	128	inanimate	fruits	banana	4	0	2	stars	3	correct	1.04330007853059
129322	1	stim112_inanimate_clothing_jeans_4.png	112	inanimate	clothing	jeans	4	0	2	stars	3	correct	1.04330007853059
129522	1	stim085_animate_mammal_giraffe_1.png	85	animate	mammal	giraffe	1	0	2	stars	3	correct	1.04330007853059
129723	1	stim170_inanimate_plants_sunflower_2.png	170	inanimate	plants	sunflower	2	0	2	stars	3	correct	1.04330007853059
129922	1	stim051_animate_human_clown_3.png	51	animate	human	clown	3	0	2	stars	3	correct	1.04330007853059
138156	1	stim197_inanimate_tools_wrench_1.png	197	inanimate	tools	wrench	1	0	3	stars	1	correct	0.907075668472316
138356	1	stim017_animate_aquatic_shrimp_1.png	17	animate	aquatic	shrimp	1	0	3	stars	1	correct	0.907075668472316
138556	1	stim059_animate_human_sports_3.png	59	animate	human	sports	3	0	3	stars	1	correct	0.907075668472316
138756	1	stim095_animate_mammal_monkey_3.png	95	animate	mammal	monkey	3	0	3	stars	1	correct	0.907075668472316
138956	1	stim072_animate_insect_butterfly_4.png	72	animate	insect	butterfly	4	0	3	stars	1	correct	0.907075668472316
139156	1	stim171_inanimate_plants_sunflower_3.png	171	inanimate	plants	sunflower	3	0	3	stars	1	correct	0.907075668472316
139356	1	stim150_inanimate_furniture_closet_2.png	150	inanimate	furniture	closet	2	0	3	stars	1	correct	0.907075668472316
139556	1	stim036_animate_bird_peacock_4.png	36	animate	bird	peacock	4	0	3	stars	1	correct	0.907075668472316
139756	1	stim088_animate_mammal_giraffe_4.png	88	animate	mammal	giraffe	4	0	3	stars	1	correct	0.907075668472316
139956	1	stim140_inanimate_fruits_strawberry_4.png	140	inanimate	fruits	strawberry	4	0	3	stars	1	correct	0.907075668472316
140156	1	stim121_inanimate_fruits_apple_1.png	121	inanimate	fruits	apple	1	0	3	stars	1	correct	0.907075668472316
140356	1	stim091_animate_mammal_kangaroo_3.png	91	animate	mammal	kangaroo	3	0	3	stars	1	correct	0.907075668472316
140556	1	stim164_inanimate_plants_bush_4.png	164	inanimate	plants	bush	4	0	3	stars	1	correct	0.907075668472316
140756	1	stim056_animate_human_faces_4.png	56	animate	human	faces	4	0	3	stars	1	correct	0.907075668472316
140956	1	stim141_inanimate_furniture_bed_1.png	141	inanimate	furniture	bed	1	0	3	stars	1	correct	0.907075668472316
141156	1	stim145_inanimate_furniture_chair_1.png	145	inanimate	furniture	chair	1	0	3	stars	1	correct	0.907075668472316
141356	1	stim033_animate_bird_peacock_1.png	33	animate	bird	peacock	1	0	3	stars	1	correct	0.907075668472316
141556	1	stim159_inanimate_furniture_table_3.png	159	inanimate	furniture	table	3	0	3	stars	1	correct	0.907075668472316
141756	1	stim085_animate_mammal_giraffe_1.png	85	animate	mammal	giraffe	1	0	3	stars	1	correct	0.907075668472316
141956	1	stim045_animate_human_child_1.png	45	animate	human	child	1	0	3	stars	1	correct	0.907075668472316
142156	1	stim156_inanimate_furniture_sofa_4.png	156	inanimate	furniture	sofa	4	0	3	stars	1	correct	0.907075668472316
142356	1	stim175_inanimate_plants_tree_3.png	175	inanimate	plants	tree	3	0	3	stars	1	correct	0.907075668472316
142556	1	stim123_inanimate_fruits_apple_3.png	123	inanimate	fruits	apple	3	0	3	stars	1	correct	0.907075668472316
142756	1	stim094_animate_mammal_monkey_2.png	94	animate	mammal	monkey	2	0	3	stars	1	correct	0.907075668472316
142956	1	stim153_inanimate_furniture_sofa_1.png	153	inanimate	furniture	sofa	1	0	3	stars	1	correct	0.907075668472316
143156	1	stim039_animate_bird_penguin_3.png	39	animate	bird	penguin	3	0	3	stars	1	correct	0.907075668472316
143356	1	stim128_inanimate_fruits_banana_4.png	128	inanimate	fruits	banana	4	0	3	stars	1	correct	0.907075668472316
143556	1	stim111_inanimate_clothing_jeans_3.png	111	inanimate	clothing	jeans	3	0	3	stars	1	correct	0.907075668472316
143756	1	stim119_inanimate_clothing_socks_3.png	119	inanimate	clothing	socks	3	0	3	stars	1	correct	0.907075668472316
143956	1	stim020_animate_aquatic_shrimp_4.png	20	animate	aquatic	shrimp	4	0	3	stars	1	correct	0.907075668472316
144156	1	stim019_animate_aquatic_shrimp_3.png	19	animate	aquatic	shrimp	3	0	3	stars	1	correct	0.907075668472316
144356	1	stim067_animate_insect_bug_3.png	67	animate	insect	bug	3	0	3	stars	1	correct	0.907075668472316
144556	1	stim048_animate_human_child_4.png	48	animate	human	child	4	0	3	stars	1	correct	0.907075668472316
144756	1	stim028_animate_bird_duck_4.png	28	animate	bird	duck	4	0	3	stars	1	correct	0.907075668472316
144956	1	stim104_inanimate_clothing_gloves_4.png	104	inanimate	clothing	gloves	4	0	3	stars	1	correct	0.907075668472316
145156	1	stim193_inanimate_tools_scissors_1.png	193	inanimate	tools	scissors	1	0	3	stars	1	correct	0.907075668472316
145356	1	stim151_inanimate_furniture_closet_3.png	151	inanimate	furniture	closet	3	0	3	stars	1	correct	0.907075668472316
145556	1	stim195_inanimate_tools_scissors_3.png	195	inanimate	tools	scissors	3	0	3	stars	1	correct	0.907075668472316
145756	1	stim129_inanimate_fruits_grape_1.png	129	inanimate	fruits	grape	1	0	3	stars	1	correct	0.907075668472316
145956	1	stim078_animate_insect_grasshopper_2.png	78	animate	insect	grasshopper	2	0	3	stars	1	correct	0.907075668472316
146156	1	stim189_inanimate_tools_pan_1.png	189	inanimate	tools	pan	1	0	3	stars	1	correct	0.907075668472316
146356	1	stim050_animate_human_clown_2.png	50	animate	human	clown	2	0	3	stars	1	correct	0.907075668472316
146556	1	stim122_inanimate_fruits_apple_2.png	122	inanimate	fruits	apple	2	0	3	stars	1	correct	0.907075668472316
146756	1	stim038_animate_bird_penguin_2.png	38	animate	bird	penguin	2	0	3	stars	1	correct	0.907075668472316
146956	1	stim170_inanimate_plants_sunflower_2.png	170	inanimate	plants	sunflower	2	0	3	stars	1	correct	0.907075668472316
147156	1	stim080_animate_insect_grasshopper_4.png	80	animate	insect	grasshopper	4	0	3	stars	1	correct	0.907075668472316
147356	1	stim192_inanimate_tools_pan_4.png	192	inanimate	tools	pan	4	0	3	stars	1	correct	0.907075668472316
147556	1	stim034_animate_bird_peacock_2.png	34	animate	bird	peacock	2	0	3	stars	1	correct	0.907075668472316
147756	1	stim103_inanimate_clothing_gloves_3.png	103	inanimate	clothing	gloves	3	0	3	stars	1	correct	0.907075668472316
147956	1	stim046_animate_human_child_2.png	46	animate	human	child	2	0	3	stars	1	correct	0.907075668472316
148156	1	stim013_animate_aquatic_shark_1.png	13	animate	aquatic	shark	1	0	3	stars	1	correct	0.907075668472316
148356	1	stim071_animate_insect_butterfly_3.png	71	animate	insect	butterfly	3	0	3	stars	1	correct	0.907075668472316
148556	1	stim006_animate_aquatic_fish_2.png	6	animate	aquatic	fish	2	0	3	stars	1	correct	0.907075668472316
148756	1	stim109_inanimate_clothing_jeans_1.png	109	inanimate	clothing	jeans	1	0	3	stars	1	correct	0.907075668472316
148956	1	stim075_animate_insect_dragonfly_3.png	75	animate	insect	dragonfly	3	0	3	stars	1	correct	0.907075668472316
149156	1	stim173_inanimate_plants_tree_1.png	173	inanimate	plants	tree	1	0	3	stars	1	correct	0.907075668472316
149356	1	stim063_animate_insect_ant_3.png	63	animate	insect	ant	3	0	3	stars	1	correct	0.907075668472316
149556	1	stim199_inanimate_tools_wrench_3.png	199	inanimate	tools	wrench	3	0	3	stars	1	correct	0.907075668472316
149756	1	stim124_inanimate_fruits_apple_4.png	124	inanimate	fruits	apple	4	0	3	stars	1	correct	0.907075668472316
149956	1	stim090_animate_mammal_kangaroo_2.png	90	animate	mammal	kangaroo	2	0	3	stars	1	correct	0.907075668472316
150156	1	stim016_animate_aquatic_shark_4.png	16	animate	aquatic	shark	4	0	3	stars	1	correct	0.907075668472316
150356	1	stim097_animate_mammal_rhino_1.png	97	animate	mammal	rhino	1	0	3	stars	1	correct	0.907075668472316
150556	1	stim161_inanimate_plants_bush_1.png	161	inanimate	plants	bush	1	0	3	stars	1	correct	0.907075668472316
150756	1	stim011_animate_aquatic_seahorse_3.png	11	animate	aquatic	seahorse	3	0	3	stars	1	correct	0.907075668472316
150956	1	stim169_inanimate_plants_sunflower_1.png	169	inanimate	plants	sunflower	1	0	3	stars	1	correct	0.907075668472316
151156	1	stim152_inanimate_furniture_closet_4.png	152	inanimate	furniture	closet	4	0	3	stars	1	correct	0.907075668472316
151356	1	stim181_inanimate_tools_broom_1.png	181	inanimate	tools	broom	1	0	3	stars	1	correct	0.907075668472316
151556	1	stim125_inanimate_fruits_banana_1.png	125	inanimate	fruits	banana	1	0	3	stars	1	correct	0.907075668472316
151756	1	stim107_inanimate_clothing_hat_3.png	107	inanimate	clothing	hat	3	0	3	stars	1	correct	0.907075668472316
151956	1	stim185_inanimate_tools_hammer_1.png	185	inanimate	tools	hammer	1	0	3	stars	1	correct	0.907075668472316
152156	1	stim055_animate_human_faces_3.png	55	animate	human	faces	3	0	3	stars	1	correct	0.907075668472316
152356	1	stim115_inanimate_clothing_shirt_3.png	115	inanimate	clothing	shirt	3	0	3	stars	1	correct	0.907075668472316
152556	1	stim001_animate_aquatic_crab_1.png	1	animate	aquatic	crab	1	0	3	stars	1	correct	0.907075668472316
152756	1	stim180_inanimate_plants_tulip_4.png	180	inanimate	plants	tulip	4	0	3	stars	1	correct	0.907075668472316
152956	1	stim101_inanimate_clothing_gloves_1.png	101	inanimate	clothing	gloves	1	0	3	stars	1	correct	0.907075668472316
153156	1	stim073_animate_insect_dragonfly_1.png	73	animate	insect	dragonfly	1	0	3	stars	1	correct	0.907075668472316
153356	1	stim165_inanimate_plants_cactus_1.png	165	inanimate	plants	cactus	1	0	3	stars	1	correct	0.907075668472316
153556	1	stim100_animate_mammal_rhino_4.png	100	animate	mammal	rhino	4	0	3	stars	1	correct	0.907075668472316
153756	1	stim077_animate_insect_grasshopper_1.png	77	animate	insect	grasshopper	1	0	3	stars	1	correct	0.907075668472316
153956	1	stim002_animate_aquatic_crab_2.png	2	animate	aquatic	crab	2	0	3	stars	1	correct	0.907075668472316
154156	1	stim149_inanimate_furniture_closet_1.png	149	inanimate	furniture	closet	1	0	3	stars	1	correct	0.907075668472316
154356	1	stim021_animate_bird_chicken_1.png	21	animate	bird	chicken	1	0	3	stars	1	correct	0.907075668472316
154556	1	stim137_inanimate_fruits_strawberry_1.png	137	inanimate	fruits	strawberry	1	0	3	stars	1	correct	0.907075668472316
154756	1	stim062_animate_insect_ant_2.png	62	animate	insect	ant	2	0	3	stars	1	correct	0.907075668472316
154956	1	stim105_inanimate_clothing_hat_1.png	105	inanimate	clothing	hat	1	0	3	stars	1	correct	0.907075668472316
155156	1	stim098_animate_mammal_rhino_2.png	98	animate	mammal	rhino	2	0	3	stars	1	correct	0.907075668472316
155356	1	stim054_animate_human_faces_2.png	54	animate	human	faces	2	0	3	stars	1	correct	0.907075668472316
155556	1	stim186_inanimate_tools_hammer_2.png	186	inanimate	tools	hammer	2	0	3	stars	1	correct	0.907075668472316
155756	1	stim160_inanimate_furniture_table_4.png	160	inanimate	furniture	table	4	0	3	stars	1	correct	0.907075668472316
155956	1	stim060_animate_human_sports_4.png	60	animate	human	sports	4	0	3	stars	1	correct	0.907075668472316
156156	1	stim025_animate_bird_duck_1.png	25	animate	bird	duck	1	0	3	stars	1	correct	0.907075668472316
156356	1	stim147_inanimate_furniture_chair_3.png	147	inanimate	furniture	chair	3	0	3	stars	1	correct	0.907075668472316
156556	1	stim083_animate_mammal_cow_3.png	83	animate	mammal	cow	3	0	3	stars	1	correct	0.907075668472316
156756	1	stim116_inanimate_clothing_shirt_4.png	116	inanimate	clothing	shirt	4	0	3	stars	1	correct	0.907075668472316
156956	1	stim053_animate_human_faces_1.png	53	animate	human	faces	1	0	3	stars	1	correct	0.907075668472316
157156	1	stim118_inanimate_clothing_socks_2.png	118	inanimate	clothing	socks	2	0	3	stars	1	correct	0.907075668472316
157356	1	stim027_animate_bird_duck_3.png	27	animate	bird	duck	3	0	3	stars	1	correct	0.907075668472316
157556	1	stim009_animate_aquatic_seahorse_1.png	9	animate	aquatic	seahorse	1	0	3	stars	1	correct	0.907075668472316
157756	1	stim120_inanimate_clothing_socks_4.png	120	inanimate	clothing	socks	4	0	3	stars	1	correct	0.907075668472316
157956	1	stim194_inanimate_tools_scissors_2.png	194	inanimate	tools	scissors	2	0	3	stars	1	correct	0.907075668472316
158156	1	stim086_animate_mammal_giraffe_2.png	86	animate	mammal	giraffe	2	0	3	stars	1	correct	0.907075668472316
158356	1	stim010_animate_aquatic_seahorse_2.png	10	animate	aquatic	seahorse	2	0	3	stars	1	correct	0.907075668472316
158556	1	stim155_inanimate_furniture_sofa_3.png	155	inanimate	furniture	sofa	3	0	3	stars	1	correct	0.907075668472316
158756	1	stim130_inanimate_fruits_grape_2.png	130	inanimate	fruits	grape	2	0	3	stars	1	correct	0.907075668472316
158957	1	stim042_animate_human_baby_2.png	42	animate	human	baby	2	0	3	stars	1	correct	0.907075668472316
159156	1	stim146_inanimate_furniture_chair_2.png	146	inanimate	furniture	chair	2	0	3	stars	1	correct	0.907075668472316
159356	1	stim214_targets_shapes_star_2.png	214	targets	shapes	star	2	1	3	stars	1	correct	0.907075668472316
159557	1	stim108_inanimate_clothing_hat_4.png	108	inanimate	clothing	hat	4	0	3	stars	1	correct	0.907075668472316
159757	1	stim030_animate_bird_parrot_2.png	30	animate	bird	parrot	2	0	3	stars	1	correct	0.907075668472316
159957	1	stim070_animate_insect_butterfly_2.png	70	animate	insect	butterfly	2	0	3	stars	1	correct	0.907075668472316
160157	1	stim188_inanimate_tools_hammer_4.png	188	inanimate	tools	hammer	4	0	3	stars	1	correct	0.907075668472316
160356	1	stim117_inanimate_clothing_socks_1.png	117	inanimate	clothing	socks	1	0	3	stars	1	correct	0.907075668472316
160557	1	stim061_animate_insect_ant_1.png	61	animate	insect	ant	1	0	3	stars	1	correct	0.907075668472316
160757	1	stim065_animate_insect_bug_1.png	65	animate	insect	bug	1	0	3	stars	1	correct	0.907075668472316
160957	1	stim179_inanimate_plants_tulip_3.png	179	inanimate	plants	tulip	3	0	3	stars	1	correct	0.907075668472316
161157	1	stim106_inanimate_clothing_hat_2.png	106	inanimate	clothing	hat	2	0	3	stars	1	correct	0.907075668472316
161357	1	stim096_animate_mammal_monkey_4.png	96	animate	mammal	monkey	4	0	3	stars	1	correct	0.907075668472316
161557	1	stim148_inanimate_furniture_chair_4.png	148	inanimate	furniture	chair	4	0	3	stars	1	correct	0.907075668472316
161757	1	stim183_inanimate_tools_broom_3.png	183	inanimate	tools	broom	3	0	3	stars	1	correct	0.907075668472316
161957	1	stim154_inanimate_furniture_sofa_2.png	154	inanimate	furniture	sofa	2	0	3	stars	1	correct	0.907075668472316
162157	1	stim166_inanimate_plants_cactus_2.png	166	inanimate	plants	cactus	2	0	3	stars	1	correct	0.907075668472316
162357	1	stim005_animate_aquatic_fish_1.png	5	animate	aquatic	fish	1	0	3	stars	1	correct	0.907075668472316
162557	1	stim041_animate_human_baby_1.png	41	animate	human	baby	1	0	3	stars	1	correct	0.907075668472316
162757	1	stim057_animate_human_sports_1.png	57	animate	human	sports	1	0	3	stars	1	correct	0.907075668472316
162957	1	stim127_inanimate_fruits_banana_3.png	127	inanimate	fruits	banana	3	0	3	stars	1	correct	0.907075668472316
163157	1	stim081_animate_mammal_cow_1.png	81	animate	mammal	cow	1	0	3	stars	1	correct	0.907075668472316
163357	1	stim066_animate_insect_bug_2.png	66	animate	insect	bug	2	0	3	stars	1	correct	0.907075668472316
163557	1	stim162_inanimate_plants_bush_2.png	162	inanimate	plants	bush	2	0	3	stars	1	correct	0.907075668472316
163757	1	stim139_inanimate_fruits_strawberry_3.png	139	inanimate	fruits	strawberry	3	0	3	stars	1	correct	0.907075668472316
163957	1	stim172_inanimate_plants_sunflower_4.png	172	inanimate	plants	sunflower	4	0	3	stars	1	correct	0.907075668472316
164157	1	stim068_animate_insect_bug_4.png	68	animate	insect	bug	4	0	3	stars	1	correct	0.907075668472316
164357	1	stim131_inanimate_fruits_grape_3.png	131	inanimate	fruits	grape	3	0	3	stars	1	correct	0.907075668472316
164557	1	stim064_animate_insect_ant_4.png	64	animate	insect	ant	4	0	3	stars	1	correct	0.907075668472316
164757	1	stim079_animate_insect_grasshopper_3.png	79	animate	insect	grasshopper	3	0	3	stars	1	correct	0.907075668472316
164957	1	stim133_inanimate_fruits_pineapple_1.png	133	inanimate	fruits	pineapple	1	0	3	stars	1	correct	0.907075668472316
165157	1	stim158_inanimate_furniture_table_2.png	158	inanimate	furniture	table	2	0	3	stars	1	correct	0.907075668472316
165357	1	stim196_inanimate_tools_scissors_4.png	196	inanimate	tools	scissors	4	0	3	stars	1	correct	0.907075668472316
165557	1	stim084_animate_mammal_cow_4.png	84	animate	mammal	cow	4	0	3	stars	1	correct	0.907075668472316
165757	1	stim114_inanimate_clothing_shirt_2.png	114	inanimate	clothing	shirt	2	0	3	stars	1	correct	0.907075668472316
165957	1	stim142_inanimate_furniture_bed_2.png	142	inanimate	furniture	bed	2	0	3	stars	1	correct	0.907075668472316
166157	1	stim076_animate_insect_dragonfly_4.png	76	animate	insect	dragonfly	4	0	3	stars	1	correct	0.907075668472316
166357	1	stim178_inanimate_plants_tulip_2.png	178	inanimate	plants	tulip	2	0	3	stars	1	correct	0.907075668472316
166557	1	stim099_animate_mammal_rhino_3.png	99	animate	mammal	rhino	3	0	3	stars	1	correct	0.907075668472316
166757	1	stim026_animate_bird_duck_2.png	26	animate	bird	duck	2	0	3	stars	1	correct	0.907075668472316
166957	1	stim093_animate_mammal_monkey_1.png	93	animate	mammal	monkey	1	0	3	stars	1	correct	0.907075668472316
167157	1	stim049_animate_human_clown_1.png	49	animate	human	clown	1	0	3	stars	1	correct	0.907075668472316
167357	1	stim035_animate_bird_peacock_3.png	35	animate	bird	peacock	3	0	3	stars	1	correct	0.907075668472316
167557	1	stim126_inanimate_fruits_banana_2.png	126	inanimate	fruits	banana	2	0	3	stars	1	correct	0.907075668472316
167757	1	stim031_animate_bird_parrot_3.png	31	animate	bird	parrot	3	0	3	stars	1	correct	0.907075668472316
167957	1	stim112_inanimate_clothing_jeans_4.png	112	inanimate	clothing	jeans	4	0	3	stars	1	correct	0.907075668472316
168157	1	stim168_inanimate_plants_cactus_4.png	168	inanimate	plants	cactus	4	0	3	stars	1	correct	0.907075668472316
168357	1	stim190_inanimate_tools_pan_2.png	190	inanimate	tools	pan	2	0	3	stars	1	correct	0.907075668472316
168557	1	stim022_animate_bird_chicken_2.png	22	animate	bird	chicken	2	0	3	stars	1	correct	0.907075668472316
168757	1	stim008_animate_aquatic_fish_4.png	8	animate	aquatic	fish	4	0	3	stars	1	correct	0.907075668472316
168957	1	stim136_inanimate_fruits_pineapple_4.png	136	inanimate	fruits	pineapple	4	0	3	stars	1	correct	0.907075668472316
169157	1	stim134_inanimate_fruits_pineapple_2.png	134	inanimate	fruits	pineapple	2	0	3	stars	1	correct	0.907075668472316
169357	1	stim012_animate_aquatic_seahorse_4.png	12	animate	aquatic	seahorse	4	0	3	stars	1	correct	0.907075668472316
169557	1	stim102_inanimate_clothing_gloves_2.png	102	inanimate	clothing	gloves	2	0	3	stars	1	correct	0.907075668472316
169757	1	stim176_inanimate_plants_tree_4.png	176	inanimate	plants	tree	4	0	3	stars	1	correct	0.907075668472316
169957	1	stim058_animate_human_sports_2.png	58	animate	human	sports	2	0	3	stars	1	correct	0.907075668472316
170157	1	stim087_animate_mammal_giraffe_3.png	87	animate	mammal	giraffe	3	0	3	stars	1	correct	0.907075668472316
170357	1	stim198_inanimate_tools_wrench_2.png	198	inanimate	tools	wrench	2	0	3	stars	1	correct	0.907075668472316
170557	1	stim200_inanimate_tools_wrench_4.png	200	inanimate	tools	wrench	4	0	3	stars	1	correct	0.907075668472316
170757	1	stim113_inanimate_clothing_shirt_1.png	113	inanimate	clothing	shirt	1	0	3	stars	1	correct	0.907075668472316
170957	1	stim157_inanimate_furniture_table_1.png	157	inanimate	furniture	table	1	0	3	stars	1	correct	0.907075668472316
171157	1	stim032_animate_bird_parrot_4.png	32	animate	bird	parrot	4	0	3	stars	1	correct	0.907075668472316
171357	1	stim138_inanimate_fruits_strawberry_2.png	138	inanimate	fruits	strawberry	2	0	3	stars	1	correct	0.907075668472316
171557	1	stim135_inanimate_fruits_pineapple_3.png	135	inanimate	fruits	pineapple	3	0	3	stars	1	correct	0.907075668472316
171757	1	stim015_animate_aquatic_shark_3.png	15	animate	aquatic	shark	3	0	3	stars	1	correct	0.907075668472316
171957	1	stim167_inanimate_plants_cactus_3.png	167	inanimate	plants	cactus	3	0	3	stars	1	correct	0.907075668472316
172157	1	stim014_animate_aquatic_shark_2.png	14	animate	aquatic	shark	2	0	3	stars	1	correct	0.907075668472316
172357	1	stim163_inanimate_plants_bush_3.png	163	inanimate	plants	bush	3	0	3	stars	1	correct	0.907075668472316
172557	1	stim082_animate_mammal_cow_2.png	82	animate	mammal	cow	2	0	3	stars	1	correct	0.907075668472316
172757	1	stim092_animate_mammal_kangaroo_4.png	92	animate	mammal	kangaroo	4	0	3	stars	1	correct	0.907075668472316
172957	1	stim069_animate_insect_butterfly_1.png	69	animate	insect	butterfly	1	0	3	stars	1	correct	0.907075668472316
173157	1	stim029_animate_bird_parrot_1.png	29	animate	bird	parrot	1	0	3	stars	1	correct	0.907075668472316
173357	1	stim143_inanimate_furniture_bed_3.png	143	inanimate	furniture	bed	3	0	3	stars	1	correct	0.907075668472316
173557	1	stim037_animate_bird_penguin_1.png	37	animate	bird	penguin	1	0	3	stars	1	correct	0.907075668472316
173757	1	stim132_inanimate_fruits_grape_4.png	132	inanimate	fruits	grape	4	0	3	stars	1	correct	0.907075668472316
173957	1	stim174_inanimate_plants_tree_2.png	174	inanimate	plants	tree	2	0	3	stars	1	correct	0.907075668472316
174157	1	stim003_animate_aquatic_crab_3.png	3	animate	aquatic	crab	3	0	3	stars	1	correct	0.907075668472316
174357	1	stim191_inanimate_tools_pan_3.png	191	inanimate	tools	pan	3	0	3	stars	1	correct	0.907075668472316
174557	1	stim024_animate_bird_chicken_4.png	24	animate	bird	chicken	4	0	3	stars	1	correct	0.907075668472316
174757	1	stim044_animate_human_baby_4.png	44	animate	human	baby	4	0	3	stars	1	correct	0.907075668472316
174957	1	stim184_inanimate_tools_broom_4.png	184	inanimate	tools	broom	4	0	3	stars	1	correct	0.907075668472316
175157	1	stim074_animate_insect_dragonfly_2.png	74	animate	insect	dragonfly	2	0	3	stars	1	correct	0.907075668472316
175357	1	stim051_animate_human_clown_3.png	51	animate	human	clown	3	0	3	stars	1	correct	0.907075668472316
175557	1	stim018_animate_aquatic_shrimp_2.png	18	animate	aquatic	shrimp	2	0	3	stars	1	correct	0.907075668472316
175757	1	stim144_inanimate_furniture_bed_4.png	144	inanimate	furniture	bed	4	0	3	stars	1	correct	0.907075668472316
175957	1	stim187_inanimate_tools_hammer_3.png	187	inanimate	tools	hammer	3	0	3	stars	1	correct	0.907075668472316
176157	1	stim023_animate_bird_chicken_3.png	23	animate	bird	chicken	3	0	3	stars	1	correct	0.907075668472316
176357	1	stim043_animate_human_baby_3.png	43	animate	human	baby	3	0	3	stars	1	correct	0.907075668472316
176557	1	stim040_animate_bird_penguin_4.png	40	animate	bird	penguin	4	0	3	stars	1	correct	0.907075668472316
176757	1	stim007_animate_aquatic_fish_3.png	7	animate	aquatic	fish	3	0	3	stars	1	correct	0.907075668472316
176957	1	stim052_animate_human_clown_4.png	52	animate	human	clown	4	0	3	stars	1	correct	0.907075668472316
177157	1	stim089_animate_mammal_kangaroo_1.png	89	animate	mammal	kangaroo	1	0	3	stars	1	correct	0.907075668472316
177357	1	stim047_animate_human_child_3.png	47	animate	human	child	3	0	3	stars	1	correct	0.907075668472316
177557	1	stim177_inanimate_plants_tulip_1.png	177	inanimate	plants	tulip	1	0	3	stars	1	correct	0.907075668472316
177757	1	stim004_animate_aquatic_crab_4.png	4	animate	aquatic	crab	4	0	3	stars	1	correct	0.907075668472316
177957	1	stim182_inanimate_tools_broom_2.png	182	inanimate	tools	broom	2	0	3	stars	1	correct	0.907075668472316
178157	1	stim110_inanimate_clothing_jeans_2.png	110	inanimate	clothing	jeans	2	0	3	stars	1	correct	0.907075668472316
185840	1	stim129_inanimate_fruits_grape_1.png	129	inanimate	fruits	grape	1	0	4	boats	1	correct	0.871220069031551
186040	1	stim095_animate_mammal_monkey_3.png	95	animate	mammal	monkey	3	0	4	boats	1	correct	0.871220069031551
186240	1	stim048_animate_human_child_4.png	48	animate	human	child	4	0	4	boats	1	correct	0.871220069031551
186440	1	stim199_inanimate_tools_wrench_3.png	199	inanimate	tools	wrench	3	0	4	boats	1	correct	0.871220069031551
186640	1	stim173_inanimate_plants_tree_1.png	173	inanimate	plants	tree	1	0	4	boats	1	correct	0.871220069031551
186840	1	stim072_animate_insect_butterfly_4.png	72	animate	insect	butterfly	4	0	4	boats	1	correct	0.871220069031551
187040	1	stim165_inanimate_plants_cactus_1.png	165	inanimate	plants	cactus	1	0	4	boats	1	correct	0.871220069031551
187240	1	stim063_animate_insect_ant_3.png	63	animate	insect	ant	3	0	4	boats	1	correct	0.871220069031551
187440	1	stim026_animate_bird_duck_2.png	26	animate	bird	duck	2	0	4	boats	1	correct	0.871220069031551
187640	1	stim174_inanimate_plants_tree_2.png	174	inanimate	plants	tree	2	0	4	boats	1	correct	0.871220069031551
187840	1	stim107_inanimate_clothing_hat_3.png	107	inanimate	clothing	hat	3	0	4	boats	1	correct	0.871220069031551
188040	1	stim112_inanimate_clothing_jeans_4.png	112	inanimate	clothing	jeans	4	0	4	boats	1	correct	0.871220069031551
188240	1	stim182_inanimate_tools_broom_2.png	182	inanimate	tools	broom	2	0	4	boats	1	correct	0.871220069031551
188440	1	stim167_inanimate_plants_cactus_3.png	167	inanimate	plants	cactus	3	0	4	boats	1	correct	0.871220069031551
188640	1	stim121_inanimate_fruits_apple_1.png	121	inanimate	fruits	apple	1	0	4	boats	1	correct	0.871220069031551
188841	1	stim002_animate_aquatic_crab_2.png	2	animate	aquatic	crab	2	0	4	boats	1	correct	0.871220069031551
189041	1	stim143_inanimate_furniture_bed_3.png	143	inanimate	furniture	bed	3	0	4	boats	1	correct	0.871220069031551
189241	1	stim193_inanimate_tools_scissors_1.png	193	inanimate	tools	scissors	1	0	4	boats	1	correct	0.871220069031551
189441	1	stim009_animate_aquatic_seahorse_1.png	9	animate	aquatic	seahorse	1	0	4	boats	1	correct	0.871220069031551
189641	1	stim039_animate_bird_penguin_3.png	39	animate	bird	penguin	3	0	4	boats	1	correct	0.871220069031551
189841	1	stim061_animate_insect_ant_1.png	61	animate	insect	ant	1	0	4	boats	1	correct	0.871220069031551
190040	1	stim161_inanimate_plants_bush_1.png	161	inanimate	plants	bush	1	0	4	boats	1	correct	0.871220069031551
190241	1	stim128_inanimate_fruits_banana_4.png	128	inanimate	fruits	banana	4	0	4	boats	1	correct	0.871220069031551
190441	1	stim138_inanimate_fruits_strawberry_2.png	138	inanimate	fruits	strawberry	2	0	4	boats	1	correct	0.871220069031551
190641	1	stim181_inanimate_tools_broom_1.png	181	inanimate	tools	broom	1	0	4	boats	1	correct	0.871220069031551
190841	1	stim114_inanimate_clothing_shirt_2.png	114	inanimate	clothing	shirt	2	0	4	boats	1	correct	0.871220069031551
191041	1	stim055_animate_human_faces_3.png	55	animate	human	faces	3	0	4	boats	1	correct	0.871220069031551
191241	1	stim184_inanimate_tools_broom_4.png	184	inanimate	tools	broom	4	0	4	boats	1	correct	0.871220069031551
191441	1	stim086_animate_mammal_giraffe_2.png	86	animate	mammal	giraffe	2	0	4	boats	1	correct	0.871220069031551
191641	1	stim163_inanimate_plants_bush_3.png	163	inanimate	plants	bush	3	0	4	boats	1	correct	0.871220069031551
191841	1	stim130_inanimate_fruits_grape_2.png	130	inanimate	fruits	grape	2	0	4	boats	1	correct	0.871220069031551
192041	1	stim005_animate_aquatic_fish_1.png	5	animate	aquatic	fish	1	0	4	boats	1	correct	0.871220069031551
192241	1	stim140_inanimate_fruits_strawberry_4.png	140	inanimate	fruits	strawberry	4	0	4	boats	1	correct	0.871220069031551
192441	1	stim056_animate_human_faces_4.png	56	animate	human	faces	4	0	4	boats	1	correct	0.871220069031551
192641	1	stim122_inanimate_fruits_apple_2.png	122	inanimate	fruits	apple	2	0	4	boats	1	correct	0.871220069031551
192841	1	stim030_animate_bird_parrot_2.png	30	animate	bird	parrot	2	0	4	boats	1	correct	0.871220069031551
193041	1	stim067_animate_insect_bug_3.png	67	animate	insect	bug	3	0	4	boats	1	correct	0.871220069031551
193241	1	stim023_animate_bird_chicken_3.png	23	animate	bird	chicken	3	0	4	boats	1	correct	0.871220069031551
193441	1	stim090_animate_mammal_kangaroo_2.png	90	animate	mammal	kangaroo	2	0	4	boats	1	correct	0.871220069031551
193641	1	stim101_inanimate_clothing_gloves_1.png	101	inanimate	clothing	gloves	1	0	4	boats	1	correct	0.871220069031551
193841	1	stim010_animate_aquatic_seahorse_2.png	10	animate	aquatic	seahorse	2	0	4	boats	1	correct	0.871220069031551
194041	1	stim093_animate_mammal_monkey_1.png	93	animate	mammal	monkey	1	0	4	boats	1	correct	0.871220069031551
194241	1	stim134_inanimate_fruits_pineapple_2.png	134	inanimate	fruits	pineapple	2	0	4	boats	1	correct	0.871220069031551
194441	1	stim180_inanimate_plants_tulip_4.png	180	inanimate	plants	tulip	4	0	4	boats	1	correct	0.871220069031551
194641	1	stim076_animate_insect_dragonfly_4.png	76	animate	insect	dragonfly	4	0	4	boats	1	correct	0.871220069031551
194841	1	stim111_inanimate_clothing_jeans_3.png	111	inanimate	clothing	jeans	3	0	4	boats	1	correct	0.871220069031551
195041	1	stim045_animate_human_child_1.png	45	animate	human	child	1	0	4	boats	1	correct	0.871220069031551
195241	1	stim034_animate_bird_peacock_2.png	34	animate	bird	peacock	2	0	4	boats	1	correct	0.871220069031551
195441	1	stim036_animate_bird_peacock_4.png	36	animate	bird	peacock	4	0	4	boats	1	correct	0.871220069031551
195641	1	stim179_inanimate_plants_tulip_3.png	179	inanimate	plants	tulip	3	0	4	boats	1	correct	0.871220069031551
195841	1	stim084_animate_mammal_cow_4.png	84	animate	mammal	cow	4	0	4	boats	1	correct	0.871220069031551
196041	1	stim169_inanimate_plants_sunflower_1.png	169	inanimate	plants	sunflower	1	0	4	boats	1	correct	0.871220069031551
196241	1	stim066_animate_insect_bug_2.png	66	animate	insect	bug	2	0	4	boats	1	correct	0.871220069031551
196441	1	stim144_inanimate_furniture_bed_4.png	144	inanimate	furniture	bed	4	0	4	boats	1	correct	0.871220069031551
196641	1	stim041_animate_human_baby_1.png	41	animate	human	baby	1	0	4	boats	1	correct	0.871220069031551
196841	1	stim106_inanimate_clothing_hat_2.png	106	inanimate	clothing	hat	2	0	4	boats	1	correct	0.871220069031551
197041	1	stim200_inanimate_tools_wrench_4.png	200	inanimate	tools	wrench	4	0	4	boats	1	correct	0.871220069031551
197241	1	stim099_animate_mammal_rhino_3.png	99	animate	mammal	rhino	3	0	4	boats	1	correct	0.871220069031551
197441	1	stim118_inanimate_clothing_socks_2.png	118	inanimate	clothing	socks	2	0	4	boats	1	correct	0.871220069031551
197641	1	stim132_inanimate_fruits_grape_4.png	132	inanimate	fruits	grape	4	0	4	boats	1	correct	0.871220069031551
197841	1	stim085_animate_mammal_giraffe_1.png	85	animate	mammal	giraffe	1	0	4	boats	1	correct	0.871220069031551
198041	1	stim141_inanimate_furniture_bed_1.png	141	inanimate	furniture	bed	1	0	4	boats	1	correct	0.871220069031551
198241	1	stim102_inanimate_clothing_gloves_2.png	102	inanimate	clothing	gloves	2	0	4	boats	1	correct	0.871220069031551
198441	1	stim139_inanimate_fruits_strawberry_3.png	139	inanimate	fruits	strawberry	3	0	4	boats	1	correct	0.871220069031551
198641	1	stim096_animate_mammal_monkey_4.png	96	animate	mammal	monkey	4	0	4	boats	1	correct	0.871220069031551
198841	1	stim097_animate_mammal_rhino_1.png	97	animate	mammal	rhino	1	0	4	boats	1	correct	0.871220069031551
199041	1	stim087_animate_mammal_giraffe_3.png	87	animate	mammal	giraffe	3	0	4	boats	1	correct	0.871220069031551
199241	1	stim008_animate_aquatic_fish_4.png	8	animate	aquatic	fish	4	0	4	boats	1	correct	0.871220069031551
199441	1	stim077_animate_insect_grasshopper_1.png	77	animate	insect	grasshopper	1	0	4	boats	1	correct	0.871220069031551
199641	1	stim148_inanimate_furniture_chair_4.png	148	inanimate	furniture	chair	4	0	4	boats	1	correct	0.871220069031551
199841	1	stim135_inanimate_fruits_pineapple_3.png	135	inanimate	fruits	pineapple	3	0	4	boats	1	correct	0.871220069031551
200041	1	stim073_animate_insect_dragonfly_1.png	73	animate	insect	dragonfly	1	0	4	boats	1	correct	0.871220069031551
200241	1	stim155_inanimate_furniture_sofa_3.png	155	inanimate	furniture	sofa	3	0	4	boats	1	correct	0.871220069031551
200441	1	stim022_animate_bird_chicken_2.png	22	animate	bird	chicken	2	0	4	boats	1	correct	0.871220069031551
200641	1	stim088_animate_mammal_giraffe_4.png	88	animate	mammal	giraffe	4	0	4	boats	1	correct	0.871220069031551
200841	1	stim115_inanimate_clothing_shirt_3.png	115	inanimate	clothing	shirt	3	0	4	boats	1	correct	0.871220069031551
201041	1	stim068_animate_insect_bug_4.png	68	animate	insect	bug	4	0	4	boats	1	correct	0.871220069031551
201241	1	stim046_animate_human_child_2.png	46	animate	human	child	2	0	4	boats	1	correct	0.871220069031551
201441	1	stim100_animate_mammal_rhino_4.png	100	animate	mammal	rhino	4	0	4	boats	1	correct	0.871220069031551
201641	1	stim178_inanimate_plants_tulip_2.png	178	inanimate	plants	tulip	2	0	4	boats	1	correct	0.871220069031551
201841	1	stim004_animate_aquatic_crab_4.png	4	animate	aquatic	crab	4	0	4	boats	1	correct	0.871220069031551
202041	1	stim166_inanimate_plants_cactus_2.png	166	inanimate	plants	cactus	2	0	4	boats	1	correct	0.871220069031551
202241	1	stim147_inanimate_furniture_chair_3.png	147	inanimate	furniture	chair	3	0	4	boats	1	correct	0.871220069031551
202441	1	stim082_animate_mammal_cow_2.png	82	animate	mammal	cow	2	0	4	boats	1	correct	0.871220069031551
202641	1	stim092_animate_mammal_kangaroo_4.png	92	animate	mammal	kangaroo	4	0	4	boats	1	correct	0.871220069031551
202841	1	stim098_animate_mammal_rhino_2.png	98	animate	mammal	rhino	2	0	4	boats	1	correct	0.871220069031551
203041	1	stim176_inanimate_plants_tree_4.png	176	inanimate	plants	tree	4	0	4	boats	1	correct	0.871220069031551
203241	1	stim110_inanimate_clothing_jeans_2.png	110	inanimate	clothing	jeans	2	0	4	boats	1	correct	0.871220069031551
203441	1	stim157_inanimate_furniture_table_1.png	157	inanimate	furniture	table	1	0	4	boats	1	correct	0.871220069031551
203641	1	stim075_animate_insect_dragonfly_3.png	75	animate	insect	dragonfly	3	0	4	boats	1	correct	0.871220069031551
203841	1	stim104_inanimate_clothing_gloves_4.png	104	inanimate	clothing	gloves	4	0	4	boats	1	correct	0.871220069031551
204041	1	stim051_animate_human_clown_3.png	51	animate	human	clown	3	0	4	boats	1	correct	0.871220069031551
204241	1	stim094_animate_mammal_monkey_2.png	94	animate	mammal	monkey	2	0	4	boats	1	correct	0.871220069031551
204441	1	stim024_animate_bird_chicken_4.png	24	animate	bird	chicken	4	0	4	boats	1	correct	0.871220069031551
204641	1	stim018_animate_aquatic_shrimp_2.png	18	animate	aquatic	shrimp	2	0	4	boats	1	correct	0.871220069031551
204841	1	stim027_animate_bird_duck_3.png	27	animate	bird	duck	3	0	4	boats	1	correct	0.871220069031551
205041	1	stim126_inanimate_fruits_banana_2.png	126	inanimate	fruits	banana	2	0	4	boats	1	correct	0.871220069031551
205241	1	stim172_inanimate_plants_sunflower_4.png	172	inanimate	plants	sunflower	4	0	4	boats	1	correct	0.871220069031551
205441	1	stim091_animate_mammal_kangaroo_3.png	91	animate	mammal	kangaroo	3	0	4	boats	1	correct	0.871220069031551
205641	1	stim025_animate_bird_duck_1.png	25	animate	bird	duck	1	0	4	boats	1	correct	0.871220069031551
205841	1	stim044_animate_human_baby_4.png	44	animate	human	baby	4	0	4	boats	1	correct	0.871220069031551
206041	1	stim206_targets_object_boats_2.png	206	targets	object	boats	2	1	4	boats	1	correct	0.871220069031551
206241	1	stim081_animate_mammal_cow_1.png	81	animate	mammal	cow	1	0	4	boats	1	correct	0.871220069031551
206441	1	stim154_inanimate_furniture_sofa_2.png	154	inanimate	furniture	sofa	2	0	4	boats	1	correct	0.871220069031551
206641	1	stim185_inanimate_tools_hammer_1.png	185	inanimate	tools	hammer	1	0	4	boats	1	correct	0.871220069031551
206841	1	stim158_inanimate_furniture_table_2.png	158	inanimate	furniture	table	2	0	4	boats	1	correct	0.871220069031551
207041	1	stim103_inanimate_clothing_gloves_3.png	103	inanimate	clothing	gloves	3	0	4	boats	1	correct	0.871220069031551
207241	1	stim052_animate_human_clown_4.png	52	animate	human	clown	4	0	4	boats	1	correct	0.871220069031551
207441	1	stim171_inanimate_plants_sunflower_3.png	171	inanimate	plants	sunflower	3	0	4	boats	1	correct	0.871220069031551
207641	1	stim194_inanimate_tools_scissors_2.png	194	inanimate	tools	scissors	2	0	4	boats	1	correct	0.871220069031551
207841	1	stim074_animate_insect_dragonfly_2.png	74	animate	insect	dragonfly	2	0	4	boats	1	correct	0.871220069031551
208041	1	stim198_inanimate_tools_wrench_2.png	198	inanimate	tools	wrench	2	0	4	boats	1	correct	0.871220069031551
208241	1	stim011_animate_aquatic_seahorse_3.png	11	animate	aquatic	seahorse	3	0	4	boats	1	correct	0.871220069031551
208441	1	stim123_inanimate_fruits_apple_3.png	123	inanimate	fruits	apple	3	0	4	boats	1	correct	0.871220069031551
208641	1	stim020_animate_aquatic_shrimp_4.png	20	animate	aquatic	shrimp	4	0	4	boats	1	correct	0.871220069031551
208841	1	stim162_inanimate_plants_bush_2.png	162	inanimate	plants	bush	2	0	4	boats	1	correct	0.871220069031551
209041	1	stim069_animate_insect_butterfly_1.png	69	animate	insect	butterfly	1	0	4	boats	1	correct	0.871220069031551
209241	1	stim070_animate_insect_butterfly_2.png	70	animate	insect	butterfly	2	0	4	boats	1	correct	0.871220069031551
209441	1	stim060_animate_human_sports_4.png	60	animate	human	sports	4	0	4	boats	1	correct	0.871220069031551
209641	1	stim156_inanimate_furniture_sofa_4.png	156	inanimate	furniture	sofa	4	0	4	boats	1	correct	0.871220069031551
209841	1	stim175_inanimate_plants_tree_3.png	175	inanimate	plants	tree	3	0	4	boats	1	correct	0.871220069031551
210041	1	stim014_animate_aquatic_shark_2.png	14	animate	aquatic	shark	2	0	4	boats	1	correct	0.871220069031551
210241	1	stim117_inanimate_clothing_socks_1.png	117	inanimate	clothing	socks	1	0	4	boats	1	correct	0.871220069031551
210441	1	stim007_animate_aquatic_fish_3.png	7	animate	aquatic	fish	3	0	4	boats	1	correct	0.871220069031551
210641	1	stim152_inanimate_furniture_closet_4.png	152	inanimate	furniture	closet	4	0	4	boats	1	correct	0.871220069031551
210841	1	stim078_animate_insect_grasshopper_2.png	78	animate	insect	grasshopper	2	0	4	boats	1	correct	0.871220069031551
211041	1	stim168_inanimate_plants_cactus_4.png	168	inanimate	plants	cactus	4	0	4	boats	1	correct	0.871220069031551
211241	1	stim177_inanimate_plants_tulip_1.png	177	inanimate	plants	tulip	1	0	4	boats	1	correct	0.871220069031551
211441	1	stim189_inanimate_tools_pan_1.png	189	inanimate	tools	pan	1	0	4	boats	1	correct	0.871220069031551
211641	1	stim006_animate_aquatic_fish_2.png	6	animate	aquatic	fish	2	0	4	boats	1	correct	0.871220069031551
211841	1	stim105_inanimate_clothing_hat_1.png	105	inanimate	clothing	hat	1	0	4	boats	1	correct	0.871220069031551
212041	1	stim071_animate_insect_butterfly_3.png	71	animate	insect	butterfly	3	0	4	boats	1	correct	0.871220069031551
212241	1	stim064_animate_insect_ant_4.png	64	animate	insect	ant	4	0	4	boats	1	correct	0.871220069031551
212441	1	stim170_inanimate_plants_sunflower_2.png	170	inanimate	plants	sunflower	2	0	4	boats	1	correct	0.871220069031551
212641	1	stim159_inanimate_furniture_table_3.png	159	inanimate	furniture	table	3	0	4	boats	1	correct	0.871220069031551
212841	1	stim031_animate_bird_parrot_3.png	31	animate	bird	parrot	3	0	4	boats	1	correct	0.871220069031551
213041	1	stim153_inanimate_furniture_sofa_1.png	153	inanimate	furniture	sofa	1	0	4	boats	1	correct	0.871220069031551
213241	1	stim012_animate_aquatic_seahorse_4.png	12	animate	aquatic	seahorse	4	0	4	boats	1	correct	0.871220069031551
213441	1	stim047_animate_human_child_3.png	47	animate	human	child	3	0	4	boats	1	correct	0.871220069031551
213641	1	stim035_animate_bird_peacock_3.png	35	animate	bird	peacock	3	0	4	boats	1	correct	0.871220069031551
213841	1	stim137_inanimate_fruits_strawberry_1.png	137	inanimate	fruits	strawberry	1	0	4	boats	1	correct	0.871220069031551
214041	1	stim119_inanimate_clothing_socks_3.png	119	inanimate	clothing	socks	3	0	4	boats	1	correct	0.871220069031551
214241	1	stim054_animate_human_faces_2.png	54	animate	human	faces	2	0	4	boats	1	correct	0.871220069031551
214441	1	stim033_animate_bird_peacock_1.png	33	animate	bird	peacock	1	0	4	boats	1	correct	0.871220069031551
214641	1	stim191_inanimate_tools_pan_3.png	191	inanimate	tools	pan	3	0	4	boats	1	correct	0.871220069031551
214841	1	stim050_animate_human_clown_2.png	50	animate	human	clown	2	0	4	boats	1	correct	0.871220069031551
215041	1	stim188_inanimate_tools_hammer_4.png	188	inanimate	tools	hammer	4	0	4	boats	1	correct	0.871220069031551
215241	1	stim028_animate_bird_duck_4.png	28	animate	bird	duck	4	0	4	boats	1	correct	0.871220069031551
215441	1	stim043_animate_human_baby_3.png	43	animate	human	baby	3	0	4	boats	1	correct	0.871220069031551
215641	1	stim040_animate_bird_penguin_4.png	40	animate	bird	penguin	4	0	4	boats	1	correct	0.871220069031551
215841	1	stim145_inanimate_furniture_chair_1.png	145	inanimate	furniture	chair	1	0	4	boats	1	correct	0.871220069031551
216041	1	stim151_inanimate_furniture_closet_3.png	151	inanimate	furniture	closet	3	0	4	boats	1	correct	0.871220069031551
216241	1	stim089_animate_mammal_kangaroo_1.png	89	animate	mammal	kangaroo	1	0	4	boats	1	correct	0.871220069031551
216441	1	stim019_animate_aquatic_shrimp_3.png	19	animate	aquatic	shrimp	3	0	4	boats	1	correct	0.871220069031551
216641	1	stim057_animate_human_sports_1.png	57	animate	human	sports	1	0	4	boats	1	correct	0.871220069031551
216841	1	stim187_inanimate_tools_hammer_3.png	187	inanimate	tools	hammer	3	0	4	boats	1	correct	0.871220069031551
217041	1	stim116_inanimate_clothing_shirt_4.png	116	inanimate	clothing	shirt	4	0	4	boats	1	correct	0.871220069031551
217241	1	stim016_animate_aquatic_shark_4.png	16	animate	aquatic	shark	4	0	4	boats	1	correct	0.871220069031551
217441	1	stim124_inanimate_fruits_apple_4.png	124	inanimate	fruits	apple	4	0	4	boats	1	correct	0.871220069031551
217641	1	stim038_animate_bird_penguin_2.png	38	animate	bird	penguin	2	0	4	boats	1	correct	0.871220069031551
217841	1	stim192_inanimate_tools_pan_4.png	192	inanimate	tools	pan	4	0	4	boats	1	correct	0.871220069031551
218041	1	stim079_animate_insect_grasshopper_3.png	79	animate	insect	grasshopper	3	0	4	boats	1	correct	0.871220069031551
218241	1	stim021_animate_bird_chicken_1.png	21	animate	bird	chicken	1	0	4	boats	1	correct	0.871220069031551
218441	1	stim186_inanimate_tools_hammer_2.png	186	inanimate	tools	hammer	2	0	4	boats	1	correct	0.871220069031551
218641	1	stim058_animate_human_sports_2.png	58	animate	human	sports	2	0	4	boats	1	correct	0.871220069031551
218841	1	stim003_animate_aquatic_crab_3.png	3	animate	aquatic	crab	3	0	4	boats	1	correct	0.871220069031551
219041	1	stim190_inanimate_tools_pan_2.png	190	inanimate	tools	pan	2	0	4	boats	1	correct	0.871220069031551
219241	1	stim197_inanimate_tools_wrench_1.png	197	inanimate	tools	wrench	1	0	4	boats	1	correct	0.871220069031551
219441	1	stim083_animate_mammal_cow_3.png	83	animate	mammal	cow	3	0	4	boats	1	correct	0.871220069031551
219641	1	stim183_inanimate_tools_broom_3.png	183	inanimate	tools	broom	3	0	4	boats	1	correct	0.871220069031551
219841	1	stim042_animate_human_baby_2.png	42	animate	human	baby	2	0	4	boats	1	correct	0.871220069031551
220041	1	stim065_animate_insect_bug_1.png	65	animate	insect	bug	1	0	4	boats	1	correct	0.871220069031551
220241	1	stim120_inanimate_clothing_socks_4.png	120	inanimate	clothing	socks	4	0	4	boats	1	correct	0.871220069031551
220441	1	stim017_animate_aquatic_shrimp_1.png	17	animate	aquatic	shrimp	1	0	4	boats	1	correct	0.871220069031551
220641	1	stim136_inanimate_fruits_pineapple_4.png	136	inanimate	fruits	pineapple	4	0	4	boats	1	correct	0.871220069031551
220841	1	stim037_animate_bird_penguin_1.png	37	animate	bird	penguin	1	0	4	boats	1	correct	0.871220069031551
221041	1	stim127_inanimate_fruits_banana_3.png	127	inanimate	fruits	banana	3	0	4	boats	1	correct	0.871220069031551
221241	1	stim150_inanimate_furniture_closet_2.png	150	inanimate	furniture	closet	2	0	4	boats	1	correct	0.871220069031551
221441	1	stim133_inanimate_fruits_pineapple_1.png	133	inanimate	fruits	pineapple	1	0	4	boats	1	correct	0.871220069031551
221641	1	stim125_inanimate_fruits_banana_1.png	125	inanimate	fruits	banana	1	0	4	boats	1	correct	0.871220069031551
221841	1	stim149_inanimate_furniture_closet_1.png	149	inanimate	furniture	closet	1	0	4	boats	1	correct	0.871220069031551
222041	1	stim108_inanimate_clothing_hat_4.png	108	inanimate	clothing	hat	4	0	4	boats	1	correct	0.871220069031551
222241	1	stim195_inanimate_tools_scissors_3.png	195	inanimate	tools	scissors	3	0	4	boats	1	correct	0.871220069031551
222441	1	stim015_animate_aquatic_shark_3.png	15	animate	aquatic	shark	3	0	4	boats	1	correct	0.871220069031551
222641	1	stim196_inanimate_tools_scissors_4.png	196	inanimate	tools	scissors	4	0	4	boats	1	correct	0.871220069031551
222841	1	stim001_animate_aquatic_crab_1.png	1	animate	aquatic	crab	1	0	4	boats	1	correct	0.871220069031551
223041	1	stim142_inanimate_furniture_bed_2.png	142	inanimate	furniture	bed	2	0	4	boats	1	correct	0.871220069031551
223241	1	stim029_animate_bird_parrot_1.png	29	animate	bird	parrot	1	0	4	boats	1	correct	0.871220069031551
223441	1	stim032_animate_bird_parrot_4.png	32	animate	bird	parrot	4	0	4	boats	1	correct	0.871220069031551
223641	1	stim160_inanimate_furniture_table_4.png	160	inanimate	furniture	table	4	0	4	boats	1	correct	0.871220069031551
223841	1	stim109_inanimate_clothing_jeans_1.png	109	inanimate	clothing	jeans	1	0	4	boats	1	correct	0.871220069031551
224041	1	stim059_animate_human_sports_3.png	59	animate	human	sports	3	0	4	boats	1	correct	0.871220069031551
224241	1	stim013_animate_aquatic_shark_1.png	13	animate	aquatic	shark	1	0	4	boats	1	correct	0.871220069031551
224441	1	stim146_inanimate_furniture_chair_2.png	146	inanimate	furniture	chair	2	0	4	boats	1	correct	0.871220069031551
224641	1	stim113_inanimate_clothing_shirt_1.png	113	inanimate	clothing	shirt	1	0	4	boats	1	correct	0.871220069031551
224841	1	stim164_inanimate_plants_bush_4.png	164	inanimate	plants	bush	4	0	4	boats	1	correct	0.871220069031551
225041	1	stim131_inanimate_fruits_grape_3.png	131	inanimate	fruits	grape	3	0	4	boats	1	correct	0.871220069031551
225241	1	stim080_animate_insect_grasshopper_4.png	80	animate	insect	grasshopper	4	0	4	boats	1	correct	0.871220069031551
225441	1	stim062_animate_insect_ant_2.png	62	animate	insect	ant	2	0	4	boats	1	correct	0.871220069031551
225641	1	stim049_animate_human_clown_1.png	49	animate	human	clown	1	0	4	boats	1	correct	0.871220069031551
225841	1	stim053_animate_human_faces_1.png	53	animate	human	faces	1	0	4	boats	1	correct	0.871220069031551
234458	1	stim031_animate_bird_parrot_3.png	31	animate	bird	parrot	3	0	5	boats	2	correct	1.00480719179541
234658	1	stim146_inanimate_furniture_chair_2.png	146	inanimate	furniture	chair	2	0	5	boats	2	correct	1.00480719179541
234858	1	stim110_inanimate_clothing_jeans_2.png	110	inanimate	clothing	jeans	2	0	5	boats	2	correct	1.00480719179541
235058	1	stim190_inanimate_tools_pan_2.png	190	inanimate	tools	pan	2	0	5	boats	2	correct	1.00480719179541
235258	1	stim185_inanimate_tools_hammer_1.png	185	inanimate	tools	hammer	1	0	5	boats	2	correct	1.00480719179541
235458	1	stim030_animate_bird_parrot_2.png	30	animate	bird	parrot	2	0	5	boats	2	correct	1.00480719179541
235658	1	stim131_inanimate_fruits_grape_3.png	131	inanimate	fruits	grape	3	0	5	boats	2	correct	1.00480719179541
235858	1	stim078_animate_insect_grasshopper_2.png	78	animate	insect	grasshopper	2	0	5	boats	2	correct	1.00480719179541
236058	1	stim025_animate_bird_duck_1.png	25	animate	bird	duck	1	0	5	boats	2	correct	1.00480719179541
236258	1	stim048_animate_human_child_4.png	48	animate	human	child	4	0	5	boats	2	correct	1.00480719179541
236458	1	stim077_animate_insect_grasshopper_1.png	77	animate	insect	grasshopper	1	0	5	boats	2	correct	1.00480719179541
236658	1	stim126_inanimate_fruits_banana_2.png	126	inanimate	fruits	banana	2	0	5	boats	2	correct	1.00480719179541
236858	1	stim121_inanimate_fruits_apple_1.png	121	inanimate	fruits	apple	1	0	5	boats	2	correct	1.00480719179541
237058	1	stim069_animate_insect_butterfly_1.png	69	animate	insect	butterfly	1	0	5	boats	2	correct	1.00480719179541
237258	1	stim022_animate_bird_chicken_2.png	22	animate	bird	chicken	2	0	5	boats	2	correct	1.00480719179541
237458	1	stim079_animate_insect_grasshopper_3.png	79	animate	insect	grasshopper	3	0	5	boats	2	correct	1.00480719179541
237658	1	stim072_animate_insect_butterfly_4.png	72	animate	insect	butterfly	4	0	5	boats	2	correct	1.00480719179541
237858	1	stim183_inanimate_tools_broom_3.png	183	inanimate	tools	broom	3	0	5	boats	2	correct	1.00480719179541
238058	1	stim011_animate_aquatic_seahorse_3.png	11	animate	aquatic	seahorse	3	0	5	boats	2	correct	1.00480719179541
238258	1	stim127_inanimate_fruits_banana_3.png	127	inanimate	fruits	banana	3	0	5	boats	2	correct	1.00480719179541
238458	1	stim067_animate_insect_bug_3.png	67	animate	insect	bug	3	0	5	boats	2	correct	1.00480719179541
238658	1	stim105_inanimate_clothing_hat_1.png	105	inanimate	clothing	hat	1	0	5	boats	2	correct	1.00480719179541
238858	1	stim034_animate_bird_peacock_2.png	34	animate	bird	peacock	2	0	5	boats	2	correct	1.00480719179541
239058	1	stim013_animate_aquatic_shark_1.png	13	animate	aquatic	shark	1	0	5	boats	2	correct	1.00480719179541
239258	1	stim047_animate_human_child_3.png	47	animate	human	child	3	0	5	boats	2	correct	1.00480719179541
239458	1	stim112_inanimate_clothing_jeans_4.png	112	inanimate	clothing	jeans	4	0	5	boats	2	correct	1.00480719179541
239658	1	stim046_animate_human_child_2.png	46	animate	human	child	2	0	5	boats	2	correct	1.00480719179541
239858	1	stim194_inanimate_tools_scissors_2.png	194	inanimate	tools	scissors	2	0	5	boats	2	correct	1.00480719179541
240058	1	stim200_inanimate_tools_wrench_4.png	200	inanimate	tools	wrench	4	0	5	boats	2	correct	1.00480719179541
240258	1	stim113_inanimate_clothing_shirt_1.png	113	inanimate	clothing	shirt	1	0	5	boats	2	correct	1.00480719179541
240458	1	stim012_animate_aquatic_seahorse_4.png	12	animate	aquatic	seahorse	4	0	5	boats	2	correct	1.00480719179541
240658	1	stim076_animate_insect_dragonfly_4.png	76	animate	insect	dragonfly	4	0	5	boats	2	correct	1.00480719179541
240858	1	stim091_animate_mammal_kangaroo_3.png	91	animate	mammal	kangaroo	3	0	5	boats	2	correct	1.00480719179541
241058	1	stim107_inanimate_clothing_hat_3.png	107	inanimate	clothing	hat	3	0	5	boats	2	correct	1.00480719179541
241258	1	stim167_inanimate_plants_cactus_3.png	167	inanimate	plants	cactus	3	0	5	boats	2	correct	1.00480719179541
241458	1	stim106_inanimate_clothing_hat_2.png	106	inanimate	clothing	hat	2	0	5	boats	2	correct	1.00480719179541
241658	1	stim041_animate_human_baby_1.png	41	animate	human	baby	1	0	5	boats	2	correct	1.00480719179541
241858	1	stim169_inanimate_plants_sunflower_1.png	169	inanimate	plants	sunflower	1	0	5	boats	2	correct	1.00480719179541
242058	1	stim059_animate_human_sports_3.png	59	animate	human	sports	3	0	5	boats	2	correct	1.00480719179541
242258	1	stim082_animate_mammal_cow_2.png	82	animate	mammal	cow	2	0	5	boats	2	correct	1.00480719179541
242458	1	stim111_inanimate_clothing_jeans_3.png	111	inanimate	clothing	jeans	3	0	5	boats	2	correct	1.00480719179541
242658	1	stim090_animate_mammal_kangaroo_2.png	90	animate	mammal	kangaroo	2	0	5	boats	2	correct	1.00480719179541
242858	1	stim080_animate_insect_grasshopper_4.png	80	animate	insect	grasshopper	4	0	5	boats	2	correct	1.00480719179541
243058	1	stim002_animate_aquatic_crab_2.png	2	animate	aquatic	crab	2	0	5	boats	2	correct	1.00480719179541
243258	1	stim007_animate_aquatic_fish_3.png	7	animate	aquatic	fish	3	0	5	boats	2	correct	1.00480719179541
243458	1	stim004_animate_aquatic_crab_4.png	4	animate	aquatic	crab	4	0	5	boats	2	correct	1.00480719179541
243658	1	stim147_inanimate_furniture_chair_3.png	147	inanimate	furniture	chair	3	0	5	boats	2	correct	1.00480719179541
243858	1	stim157_inanimate_furniture_table_1.png	157	inanimate	furniture	table	1	0	5	boats	2	correct	1.00480719179541
244058	1	stim166_inanimate_plants_cactus_2.png	166	inanimate	plants	cactus	2	0	5	boats	2	correct	1.00480719179541
244258	1	stim153_inanimate_furniture_sofa_1.png	153	inanimate	furniture	sofa	1	0	5	boats	2	correct	1.00480719179541
244458	1	stim092_animate_mammal_kangaroo_4.png	92	animate	mammal	kangaroo	4	0	5	boats	2	correct	1.00480719179541
244658	1	stim188_inanimate_tools_hammer_4.png	188	inanimate	tools	hammer	4	0	5	boats	2	correct	1.00480719179541
244858	1	stim142_inanimate_furniture_bed_2.png	142	inanimate	furniture	bed	2	0	5	boats	2	correct	1.00480719179541
245058	1	stim003_animate_aquatic_crab_3.png	3	animate	aquatic	crab	3	0	5	boats	2	correct	1.00480719179541
245258	1	stim027_animate_bird_duck_3.png	27	animate	bird	duck	3	0	5	boats	2	correct	1.00480719179541
245458	1	stim197_inanimate_tools_wrench_1.png	197	inanimate	tools	wrench	1	0	5	boats	2	correct	1.00480719179541
245658	1	stim158_inanimate_furniture_table_2.png	158	inanimate	furniture	table	2	0	5	boats	2	correct	1.00480719179541
245858	1	stim087_animate_mammal_giraffe_3.png	87	animate	mammal	giraffe	3	0	5	boats	2	correct	1.00480719179541
246058	1	stim115_inanimate_clothing_shirt_3.png	115	inanimate	clothing	shirt	3	0	5	boats	2	correct	1.00480719179541
246258	1	stim023_animate_bird_chicken_3.png	23	animate	bird	chicken	3	0	5	boats	2	correct	1.00480719179541
246458	1	stim040_animate_bird_penguin_4.png	40	animate	bird	penguin	4	0	5	boats	2	correct	1.00480719179541
246658	1	stim152_inanimate_furniture_closet_4.png	152	inanimate	furniture	closet	4	0	5	boats	2	correct	1.00480719179541
246858	1	stim070_animate_insect_butterfly_2.png	70	animate	insect	butterfly	2	0	5	boats	2	correct	1.00480719179541
247058	1	stim081_animate_mammal_cow_1.png	81	animate	mammal	cow	1	0	5	boats	2	correct	1.00480719179541
247259	1	stim053_animate_human_faces_1.png	53	animate	human	faces	1	0	5	boats	2	correct	1.00480719179541
247458	1	stim103_inanimate_clothing_gloves_3.png	103	inanimate	clothing	gloves	3	0	5	boats	2	correct	1.00480719179541
247659	1	stim179_inanimate_plants_tulip_3.png	179	inanimate	plants	tulip	3	0	5	boats	2	correct	1.00480719179541
247859	1	stim015_animate_aquatic_shark_3.png	15	animate	aquatic	shark	3	0	5	boats	2	correct	1.00480719179541
248059	1	stim096_animate_mammal_monkey_4.png	96	animate	mammal	monkey	4	0	5	boats	2	correct	1.00480719179541
248258	1	stim086_animate_mammal_giraffe_2.png	86	animate	mammal	giraffe	2	0	5	boats	2	correct	1.00480719179541
248459	1	stim128_inanimate_fruits_banana_4.png	128	inanimate	fruits	banana	4	0	5	boats	2	correct	1.00480719179541
248659	1	stim089_animate_mammal_kangaroo_1.png	89	animate	mammal	kangaroo	1	0	5	boats	2	correct	1.00480719179541
248859	1	stim139_inanimate_fruits_strawberry_3.png	139	inanimate	fruits	strawberry	3	0	5	boats	2	correct	1.00480719179541
249059	1	stim204_targets_object_boats_4.png	204	targets	object	boats	4	1	5	boats	2	correct	1.00480719179541
249259	1	stim143_inanimate_furniture_bed_3.png	143	inanimate	furniture	bed	3	0	5	boats	2	correct	1.00480719179541
249459	1	stim136_inanimate_fruits_pineapple_4.png	136	inanimate	fruits	pineapple	4	0	5	boats	2	correct	1.00480719179541
249659	1	stim150_inanimate_furniture_closet_2.png	150	inanimate	furniture	closet	2	0	5	boats	2	correct	1.00480719179541
249859	1	stim051_animate_human_clown_3.png	51	animate	human	clown	3	0	5	boats	2	correct	1.00480719179541
250059	1	stim088_animate_mammal_giraffe_4.png	88	animate	mammal	giraffe	4	0	5	boats	2	correct	1.00480719179541
250259	1	stim177_inanimate_plants_tulip_1.png	177	inanimate	plants	tulip	1	0	5	boats	2	correct	1.00480719179541
250459	1	stim199_inanimate_tools_wrench_3.png	199	inanimate	tools	wrench	3	0	5	boats	2	correct	1.00480719179541
250659	1	stim066_animate_insect_bug_2.png	66	animate	insect	bug	2	0	5	boats	2	correct	1.00480719179541
250859	1	stim122_inanimate_fruits_apple_2.png	122	inanimate	fruits	apple	2	0	5	boats	2	correct	1.00480719179541
251059	1	stim044_animate_human_baby_4.png	44	animate	human	baby	4	0	5	boats	2	correct	1.00480719179541
251259	1	stim134_inanimate_fruits_pineapple_2.png	134	inanimate	fruits	pineapple	2	0	5	boats	2	correct	1.00480719179541
251459	1	stim138_inanimate_fruits_strawberry_2.png	138	inanimate	fruits	strawberry	2	0	5	boats	2	correct	1.00480719179541
251659	1	stim141_inanimate_furniture_bed_1.png	141	inanimate	furniture	bed	1	0	5	boats	2	correct	1.00480719179541
251859	1	stim062_animate_insect_ant_2.png	62	animate	insect	ant	2	0	5	boats	2	correct	1.00480719179541
252059	1	stim149_inanimate_furniture_closet_1.png	149	inanimate	furniture	closet	1	0	5	boats	2	correct	1.00480719179541
