onset	duration	stimulusname	stimulusnumber	levelA	levelB	levelC	withinexemplarnumber	istarget	trialnumber	condition	response	correct	rt
50268	1	stim089_animate_mammal_kangaroo_1.png	89	animate	mammal	kangaroo	1	0	1	stars	1	correct	2.26906842994504
50318	1	stim034_animate_bird_peacock_2.png	34	animate	bird	peacock	2	0	1	stars	1	correct	2.26906842994504
50368	1	stim056_animate_human_faces_4.png	56	animate	human	faces	4	0	1	stars	1	correct	2.26906842994504
50418	1	stim174_inanimate_plants_tree_2.png	174	inanimate	plants	tree	2	0	1	stars	1	correct	2.26906842994504
50468	1	stim169_inanimate_plants_sunflower_1.png	169	inanimate	plants	sunflower	1	0	1	stars	1	correct	2.26906842994504
50518	1	stim159_inanimate_furniture_table_3.png	159	inanimate	furniture	table	3	0	1	stars	1	correct	2.26906842994504
50568	1	stim055_animate_human_faces_3.png	55	animate	human	faces	3	0	1	stars	1	correct	2.26906842994504
50618	1	stim178_inanimate_plants_tulip_2.png	178	inanimate	plants	tulip	2	0	1	stars	1	correct	2.26906842994504
50668	1	stim103_inanimate_clothing_gloves_3.png	103	inanimate	clothing	gloves	3	0	1	stars	1	correct	2.26906842994504
50718	1	stim187_inanimate_tools_hammer_3.png	187	inanimate	tools	hammer	3	0	1	stars	1	correct	2.26906842994504
50768	1	stim017_animate_aquatic_shrimp_1.png	17	animate	aquatic	shrimp	1	0	1	stars	1	correct	2.26906842994504
50818	1	stim155_inanimate_furniture_sofa_3.png	155	inanimate	furniture	sofa	3	0	1	stars	1	correct	2.26906842994504
50868	1	stim151_inanimate_furniture_closet_3.png	151	inanimate	furniture	closet	3	0	1	stars	1	correct	2.26906842994504
50918	1	stim194_inanimate_tools_scissors_2.png	194	inanimate	tools	scissors	2	0	1	stars	1	correct	2.26906842994504
50968	1	stim066_animate_insect_bug_2.png	66	animate	insect	bug	2	0	1	stars	1	correct	2.26906842994504
51018	1	stim166_inanimate_plants_cactus_2.png	166	inanimate	plants	cactus	2	0	1	stars	1	correct	2.26906842994504
51068	1	stim018_animate_aquatic_shrimp_2.png	18	animate	aquatic	shrimp	2	0	1	stars	1	correct	2.26906842994504
51118	1	stim142_inanimate_furniture_bed_2.png	142	inanimate	furniture	bed	2	0	1	stars	1	correct	2.26906842994504
51168	1	stim196_inanimate_tools_scissors_4.png	196	inanimate	tools	scissors	4	0	1	stars	1	correct	2.26906842994504
51218	1	stim012_animate_aquatic_seahorse_4.png	12	animate	aquatic	seahorse	4	0	1	stars	1	correct	2.26906842994504
51268	1	stim070_animate_insect_butterfly_2.png	70	animate	insect	butterfly	2	0	1	stars	1	correct	2.26906842994504
51318	1	stim075_animate_insect_dragonfly_3.png	75	animate	insect	dragonfly	3	0	1	stars	1	correct	2.26906842994504
51368	1	stim160_inanimate_furniture_table_4.png	160	inanimate	furniture	table	4	0	1	stars	1	correct	2.26906842994504
51418	1	stim092_animate_mammal_kangaroo_4.png	92	animate	mammal	kangaroo	4	0	1	stars	1	correct	2.26906842994504
51468	1	stim147_inanimate_furniture_chair_3.png	147	inanimate	furniture	chair	3	0	1	stars	1	correct	2.26906842994504
51518	1	stim130_inanimate_fruits_grape_2.png	130	inanimate	fruits	grape	2	0	1	stars	1	correct	2.26906842994504
51568	1	stim177_inanimate_plants_tulip_1.png	177	inanimate	plants	tulip	1	0	1	stars	1	correct	2.26906842994504
51618	1	stim047_animate_human_child_3.png	47	animate	human	child	3	0	1	stars	1	correct	2.26906842994504
51668	1	stim137_inanimate_fruits_strawberry_1.png	137	inanimate	fruits	strawberry	1	0	1	stars	1	correct	2.26906842994504
51718	1	stim161_inanimate_plants_bush_1.png	161	inanimate	plants	bush	1	0	1	stars	1	correct	2.26906842994504
51768	1	stim086_animate_mammal_giraffe_2.png	86	animate	mammal	giraffe	2	0	1	stars	1	correct	2.26906842994504
51818	1	stim085_animate_mammal_giraffe_1.png	85	animate	mammal	giraffe	1	0	1	stars	1	correct	2.26906842994504
51868	1	stim048_animate_human_child_4.png	48	animate	human	child	4	0	1	stars	1	correct	2.26906842994504
51918	1	stim195_inanimate_tools_scissors_3.png	195	inanimate	tools	scissors	3	0	1	stars	1	correct	2.26906842994504
51968	1	stim061_animate_insect_ant_1.png	61	animate	insect	ant	1	0	1	stars	1	correct	2.26906842994504
52018	1	stim010_animate_aquatic_seahorse_2.png	10	animate	aquatic	seahorse	2	0	1	stars	1	correct	2.26906842994504
52068	1	stim123_inanimate_fruits_apple_3.png	123	inanimate	fruits	apple	3	0	1	stars	1	correct	2.26906842994504
52118	1	stim135_inanimate_fruits_pineapple_3.png	135	inanimate	fruits	pineapple	3	0	1	stars	1	correct	2.26906842994504
52168	1	stim167_inanimate_plants_cactus_3.png	167	inanimate	plants	cactus	3	0	1	stars	1	correct	2.26906842994504
52218	1	stim176_inanimate_plants_tree_4.png	176	inanimate	plants	tree	4	0	1	stars	1	correct	2.26906842994504
52268	1	stim104_inanimate_clothing_gloves_4.png	104	inanimate	clothing	gloves	4	0	1	stars	1	correct	2.26906842994504
52318	1	stim117_inanimate_clothing_socks_1.png	117	inanimate	clothing	socks	1	0	1	stars	1	correct	2.26906842994504
52368	1	stim132_inanimate_fruits_grape_4.png	132	inanimate	fruits	grape	4	0	1	stars	1	correct	2.26906842994504
52418	1	stim067_animate_insect_bug_3.png	67	animate	insect	bug	3	0	1	stars	1	correct	2.26906842994504
52468	1	stim120_inanimate_clothing_socks_4.png	120	inanimate	clothing	socks	4	0	1	stars	1	correct	2.26906842994504
52518	1	stim013_animate_aquatic_shark_1.png	13	animate	aquatic	shark	1	0	1	stars	1	correct	2.26906842994504
52568	1	stim050_animate_human_clown_2.png	50	animate	human	clown	2	0	1	stars	1	correct	2.26906842994504
52618	1	stim036_animate_bird_peacock_4.png	36	animate	bird	peacock	4	0	1	stars	1	correct	2.26906842994504
52668	1	stim098_animate_mammal_rhino_2.png	98	animate	mammal	rhino	2	0	1	stars	1	correct	2.26906842994504
52718	1	stim107_inanimate_clothing_hat_3.png	107	inanimate	clothing	hat	3	0	1	stars	1	correct	2.26906842994504
52768	1	stim100_animate_mammal_rhino_4.png	100	animate	mammal	rhino	4	0	1	stars	1	correct	2.26906842994504
52818	1	stim115_inanimate_clothing_shirt_3.png	115	inanimate	clothing	shirt	3	0	1	stars	1	correct	2.26906842994504
52868	1	stim133_inanimate_fruits_pineapple_1.png	133	inanimate	fruits	pineapple	1	0	1	stars	1	correct	2.26906842994504
52918	1	stim124_inanimate_fruits_apple_4.png	124	inanimate	fruits	apple	4	0	1	stars	1	correct	2.26906842994504
52968	1	stim062_animate_insect_ant_2.png	62	animate	insect	ant	2	0	1	stars	1	correct	2.26906842994504
53018	1	stim175_inanimate_plants_tree_3.png	175	inanimate	plants	tree	3	0	1	stars	1	correct	2.26906842994504
53068	1	stim199_inanimate_tools_wrench_3.png	199	inanimate	tools	wrench	3	0	1	stars	1	correct	2.26906842994504
53118	1	stim065_animate_insect_bug_1.png	65	animate	insect	bug	1	0	1	stars	1	correct	2.26906842994504
53168	1	stim015_animate_aquatic_shark_3.png	15	animate	aquatic	shark	3	0	1	stars	1	correct	2.26906842994504
53218	1	stim045_animate_human_child_1.png	45	animate	human	child	1	0	1	stars	1	correct	2.26906842994504
53268	1	stim026_animate_bird_duck_2.png	26	animate	bird	duck	2	0	1	stars	1	correct	2.26906842994504
53318	1	stim031_animate_bird_parrot_3.png	31	animate	bird	parrot	3	0	1	stars	1	correct	2.26906842994504
53368	1	stim043_animate_human_baby_3.png	43	animate	human	baby	3	0	1	stars	1	correct	2.26906842994504
53418	1	stim129_inanimate_fruits_grape_1.png	129	inanimate	fruits	grape	1	0	1	stars	1	correct	2.26906842994504
53468	1	stim041_animate_human_baby_1.png	41	animate	human	baby	1	0	1	stars	1	correct	2.26906842994504
53518	1	stim198_inanimate_tools_wrench_2.png	198	inanimate	tools	wrench	2	0	1	stars	1	correct	2.26906842994504
53568	1	stim099_animate_mammal_rhino_3.png	99	animate	mammal	rhino	3	0	1	stars	1	correct	2.26906842994504
53618	1	stim030_animate_bird_parrot_2.png	30	animate	bird	parrot	2	0	1	stars	1	correct	2.26906842994504
53668	1	stim008_animate_aquatic_fish_4.png	8	animate	aquatic	fish	4	0	1	stars	1	correct	2.26906842994504
53718	1	stim080_animate_insect_grasshopper_4.png	80	animate	insect	grasshopper	4	0	1	stars	1	correct	2.26906842994504
53768	1	stim181_inanimate_tools_broom_1.png	181	inanimate	tools	broom	1	0	1	stars	1	correct	2.26906842994504
53818	1	stim024_animate_bird_chicken_4.png	24	animate	bird	chicken	4	0	1	stars	1	correct	2.26906842994504
53868	1	stim190_inanimate_tools_pan_2.png	190	inanimate	tools	pan	2	0	1	stars	1	correct	2.26906842994504
53918	1	stim105_inanimate_clothing_hat_1.png	105	inanimate	clothing	hat	1	0	1	stars	1	correct	2.26906842994504
53968	1	stim064_animate_insect_ant_4.png	64	animate	insect	ant	4	0	1	stars	1	correct	2.26906842994504
54018	1	stim001_animate_aquatic_crab_1.png	1	animate	aquatic	crab	1	0	1	stars	1	correct	2.26906842994504
54068	1	stim138_inanimate_fruits_strawberry_2.png	138	inanimate	fruits	strawberry	2	0	1	stars	1	correct	2.26906842994504
54118	1	stim059_animate_human_sports_3.png	59	animate	human	sports	3	0	1	stars	1	correct	2.26906842994504
54168	1	stim021_animate_bird_chicken_1.png	21	animate	bird	chicken	1	0	1	stars	1	correct	2.26906842994504
54218	1	stim131_inanimate_fruits_grape_3.png	131	inanimate	fruits	grape	3	0	1	stars	1	correct	2.26906842994504
54268	1	stim019_animate_aquatic_shrimp_3.png	19	animate	aquatic	shrimp	3	0	1	stars	1	correct	2.26906842994504
54318	1	stim150_inanimate_furniture_closet_2.png	150	inanimate	furniture	closet	2	0	1	stars	1	correct	2.26906842994504
54368	1	stim188_inanimate_tools_hammer_4.png	188	inanimate	tools	hammer	4	0	1	stars	1	correct	2.26906842994504
54418	1	stim200_inanimate_tools_wrench_4.png	200	inanimate	tools	wrench	4	0	1	stars	1	correct	2.26906842994504
54468	1	stim083_animate_mammal_cow_3.png	83	animate	mammal	cow	3	0	1	stars	1	correct	2.26906842994504
54518	1	stim072_animate_insect_butterfly_4.png	72	animate	insect	butterfly	4	0	1	stars	1	correct	2.26906842994504
54568	1	stim007_animate_aquatic_fish_3.png	7	animate	aquatic	fish	3	0	1	stars	1	correct	2.26906842994504
54618	1	stim097_animate_mammal_rhino_1.png	97	animate	mammal	rhino	1	0	1	stars	1	correct	2.26906842994504
54668	1	stim128_inanimate_fruits_banana_4.png	128	inanimate	fruits	banana	4	0	1	stars	1	correct	2.26906842994504
54718	1	stim088_animate_mammal_giraffe_4.png	88	animate	mammal	giraffe	4	0	1	stars	1	correct	2.26906842994504
54768	1	stim173_inanimate_plants_tree_1.png	173	inanimate	plants	tree	1	0	1	stars	1	correct	2.26906842994504
54818	1	stim091_animate_mammal_kangaroo_3.png	91	animate	mammal	kangaroo	3	0	1	stars	1	correct	2.26906842994504
54868	1	stim022_animate_bird_chicken_2.png	22	animate	bird	chicken	2	0	1	stars	1	correct	2.26906842994504
54918	1	stim087_animate_mammal_giraffe_3.png	87	animate	mammal	giraffe	3	0	1	stars	1	correct	2.26906842994504
54968	1	stim191_inanimate_tools_pan_3.png	191	inanimate	tools	pan	3	0	1	stars	1	correct	2.26906842994504
55018	1	stim079_animate_insect_grasshopper_3.png	79	animate	insect	grasshopper	3	0	1	stars	1	correct	2.26906842994504
55068	1	stim060_animate_human_sports_4.png	60	animate	human	sports	4	0	1	stars	1	correct	2.26906842994504
55118	1	stim158_inanimate_furniture_table_2.png	158	inanimate	furniture	table	2	0	1	stars	1	correct	2.26906842994504
55168	1	stim149_inanimate_furniture_closet_1.png	149	inanimate	furniture	closet	1	0	1	stars	1	correct	2.26906842994504
55218	1	stim182_inanimate_tools_broom_2.png	182	inanimate	tools	broom	2	0	1	stars	1	correct	2.26906842994504
55268	1	stim057_animate_human_sports_1.png	57	animate	human	sports	1	0	1	stars	1	correct	2.26906842994504
55318	1	stim081_animate_mammal_cow_1.png	81	animate	mammal	cow	1	0	1	stars	1	correct	2.26906842994504
55368	1	stim122_inanimate_fruits_apple_2.png	122	inanimate	fruits	apple	2	0	1	stars	1	correct	2.26906842994504
55418	1	stim214_targets_shapes_star_2.png	214	targets	shapes	star	2	1	1	stars	1	correct	2.26906842994504
55468	1	stim078_animate_insect_grasshopper_2.png	78	animate	insect	grasshopper	2	0	1	stars	1	correct	2.26906842994504
55518	1	stim006_animate_aquatic_fish_2.png	6	animate	aquatic	fish	2	0	1	stars	1	correct	2.26906842994504
55568	1	stim090_animate_mammal_kangaroo_2.png	90	animate	mammal	kangaroo	2	0	1	stars	1	correct	2.26906842994504
55618	1	stim094_animate_mammal_monkey_2.png	94	animate	mammal	monkey	2	0	1	stars	1	correct	2.26906842994504
55668	1	stim046_animate_human_child_2.png	46	animate	human	child	2	0	1	stars	1	correct	2.26906842994504
55718	1	stim141_inanimate_furniture_bed_1.png	141	inanimate	furniture	bed	1	0	1	stars	1	correct	2.26906842994504
55768	1	stim172_inanimate_plants_sunflower_4.png	172	inanimate	plants	sunflower	4	0	1	stars	1	correct	2.26906842994504
55818	1	stim077_animate_insect_grasshopper_1.png	77	animate	insect	grasshopper	1	0	1	stars	1	correct	2.26906842994504
55868	1	stim152_inanimate_furniture_closet_4.png	152	inanimate	furniture	closet	4	0	1	stars	1	correct	2.26906842994504
55918	1	stim109_inanimate_clothing_jeans_1.png	109	inanimate	clothing	jeans	1	0	1	stars	1	correct	2.26906842994504
55968	1	stim118_inanimate_clothing_socks_2.png	118	inanimate	clothing	socks	2	0	1	stars	1	correct	2.26906842994504
56018	1	stim068_animate_insect_bug_4.png	68	animate	insect	bug	4	0	1	stars	1	correct	2.26906842994504
56068	1	stim020_animate_aquatic_shrimp_4.png	20	animate	aquatic	shrimp	4	0	1	stars	1	correct	2.26906842994504
56118	1	stim002_animate_aquatic_crab_2.png	2	animate	aquatic	crab	2	0	1	stars	1	correct	2.26906842994504
56168	1	stim076_animate_insect_dragonfly_4.png	76	animate	insect	dragonfly	4	0	1	stars	1	correct	2.26906842994504
56218	1	stim028_animate_bird_duck_4.png	28	animate	bird	duck	4	0	1	stars	1	correct	2.26906842994504
56268	1	stim039_animate_bird_penguin_3.png	39	animate	bird	penguin	3	0	1	stars	1	correct	2.26906842994504
56318	1	stim163_inanimate_plants_bush_3.png	163	inanimate	plants	bush	3	0	1	stars	1	correct	2.26906842994504
56368	1	stim003_animate_aquatic_crab_3.png	3	animate	aquatic	crab	3	0	1	stars	1	correct	2.26906842994504
56418	1	stim139_inanimate_fruits_strawberry_3.png	139	inanimate	fruits	strawberry	3	0	1	stars	1	correct	2.26906842994504
56468	1	stim049_animate_human_clown_1.png	49	animate	human	clown	1	0	1	stars	1	correct	2.26906842994504
56518	1	stim148_inanimate_furniture_chair_4.png	148	inanimate	furniture	chair	4	0	1	stars	1	correct	2.26906842994504
56568	1	stim140_inanimate_fruits_strawberry_4.png	140	inanimate	fruits	strawberry	4	0	1	stars	1	correct	2.26906842994504
56618	1	stim145_inanimate_furniture_chair_1.png	145	inanimate	furniture	chair	1	0	1	stars	1	correct	2.26906842994504
56668	1	stim102_inanimate_clothing_gloves_2.png	102	inanimate	clothing	gloves	2	0	1	stars	1	correct	2.26906842994504
56718	1	stim184_inanimate_tools_broom_4.png	184	inanimate	tools	broom	4	0	1	stars	1	correct	2.26906842994504
56768	1	stim157_inanimate_furniture_table_1.png	157	inanimate	furniture	table	1	0	1	stars	1	correct	2.26906842994504
56818	1	stim029_animate_bird_parrot_1.png	29	animate	bird	parrot	1	0	1	stars	1	correct	2.26906842994504
56868	1	stim025_animate_bird_duck_1.png	25	animate	bird	duck	1	0	1	stars	1	correct	2.26906842994504
56918	1	stim095_animate_mammal_monkey_3.png	95	animate	mammal	monkey	3	0	1	stars	1	correct	2.26906842994504
56968	1	stim180_inanimate_plants_tulip_4.png	180	inanimate	plants	tulip	4	0	1	stars	1	correct	2.26906842994504
57018	1	stim153_inanimate_furniture_sofa_1.png	153	inanimate	furniture	sofa	1	0	1	stars	1	correct	2.26906842994504
57068	1	stim170_inanimate_plants_sunflower_2.png	170	inanimate	plants	sunflower	2	0	1	stars	1	correct	2.26906842994504
57118	1	stim096_animate_mammal_monkey_4.png	96	animate	mammal	monkey	4	0	1	stars	1	correct	2.26906842994504
57168	1	stim134_inanimate_fruits_pineapple_2.png	134	inanimate	fruits	pineapple	2	0	1	stars	1	correct	2.26906842994504
57218	1	stim121_inanimate_fruits_apple_1.png	121	inanimate	fruits	apple	1	0	1	stars	1	correct	2.26906842994504
57268	1	stim032_animate_bird_parrot_4.png	32	animate	bird	parrot	4	0	1	stars	1	correct	2.26906842994504
57318	1	stim113_inanimate_clothing_shirt_1.png	113	inanimate	clothing	shirt	1	0	1	stars	1	correct	2.26906842994504
57368	1	stim052_animate_human_clown_4.png	52	animate	human	clown	4	0	1	stars	1	correct	2.26906842994504
57418	1	stim125_inanimate_fruits_banana_1.png	125	inanimate	fruits	banana	1	0	1	stars	1	correct	2.26906842994504
57468	1	stim154_inanimate_furniture_sofa_2.png	154	inanimate	furniture	sofa	2	0	1	stars	1	correct	2.26906842994504
57518	1	stim108_inanimate_clothing_hat_4.png	108	inanimate	clothing	hat	4	0	1	stars	1	correct	2.26906842994504
57568	1	stim112_inanimate_clothing_jeans_4.png	112	inanimate	clothing	jeans	4	0	1	stars	1	correct	2.26906842994504
57618	1	stim165_inanimate_plants_cactus_1.png	165	inanimate	plants	cactus	1	0	1	stars	1	correct	2.26906842994504
57668	1	stim053_animate_human_faces_1.png	53	animate	human	faces	1	0	1	stars	1	correct	2.26906842994504
57718	1	stim035_animate_bird_peacock_3.png	35	animate	bird	peacock	3	0	1	stars	1	correct	2.26906842994504
57768	1	stim179_inanimate_plants_tulip_3.png	179	inanimate	plants	tulip	3	0	1	stars	1	correct	2.26906842994504
57818	1	stim144_inanimate_furniture_bed_4.png	144	inanimate	furniture	bed	4	0	1	stars	1	correct	2.26906842994504
57868	1	stim027_animate_bird_duck_3.png	27	animate	bird	duck	3	0	1	stars	1	correct	2.26906842994504
57918	1	stim186_inanimate_tools_hammer_2.png	186	inanimate	tools	hammer	2	0	1	stars	1	correct	2.26906842994504
57968	1	stim171_inanimate_plants_sunflower_3.png	171	inanimate	plants	sunflower	3	0	1	stars	1	correct	2.26906842994504
58018	1	stim004_animate_aquatic_crab_4.png	4	animate	aquatic	crab	4	0	1	stars	1	correct	2.26906842994504
58068	1	stim101_inanimate_clothing_gloves_1.png	101	inanimate	clothing	gloves	1	0	1	stars	1	correct	2.26906842994504
58118	1	stim073_animate_insect_dragonfly_1.png	73	animate	insect	dragonfly	1	0	1	stars	1	correct	2.26906842994504
58168	1	stim082_animate_mammal_cow_2.png	82	animate	mammal	cow	2	0	1	stars	1	correct	2.26906842994504
58218	1	stim164_inanimate_plants_bush_4.png	164	inanimate	plants	bush	4	0	1	stars	1	correct	2.26906842994504
58268	1	stim146_inanimate_furniture_chair_2.png	146	inanimate	furniture	chair	2	0	1	stars	1	correct	2.26906842994504
58318	1	stim005_animate_aquatic_fish_1.png	5	animate	aquatic	fish	1	0	1	stars	1	correct	2.26906842994504
58368	1	stim044_animate_human_baby_4.png	44	animate	human	baby	4	0	1	stars	1	correct	2.26906842994504
58418	1	stim106_inanimate_clothing_hat_2.png	106	inanimate	clothing	hat	2	0	1	stars	1	correct	2.26906842994504
58468	1	stim009_animate_aquatic_seahorse_1.png	9	animate	aquatic	seahorse	1	0	1	stars	1	correct	2.26906842994504
58518	1	stim014_animate_aquatic_shark_2.png	14	animate	aquatic	shark	2	0	1	stars	1	correct	2.26906842994504
58568	1	stim143_inanimate_furniture_bed_3.png	143	inanimate	furniture	bed	3	0	1	stars	1	correct	2.26906842994504
58618	1	stim162_inanimate_plants_bush_2.png	162	inanimate	plants	bush	2	0	1	stars	1	correct	2.26906842994504
58668	1	stim058_animate_human_sports_2.png	58	animate	human	sports	2	0	1	stars	1	correct	2.26906842994504
58718	1	stim156_inanimate_furniture_sofa_4.png	156	inanimate	furniture	sofa	4	0	1	stars	1	correct	2.26906842994504
58768	1	stim114_inanimate_clothing_shirt_2.png	114	inanimate	clothing	shirt	2	0	1	stars	1	correct	2.26906842994504
58818	1	stim074_animate_insect_dragonfly_2.png	74	animate	insect	dragonfly	2	0	1	stars	1	correct	2.26906842994504
58868	1	stim127_inanimate_fruits_banana_3.png	127	inanimate	fruits	banana	3	0	1	stars	1	correct	2.26906842994504
58918	1	stim016_animate_aquatic_shark_4.png	16	animate	aquatic	shark	4	0	1	stars	1	correct	2.26906842994504
58968	1	stim110_inanimate_clothing_jeans_2.png	110	inanimate	clothing	jeans	2	0	1	stars	1	correct	2.26906842994504
59018	1	stim093_animate_mammal_monkey_1.png	93	animate	mammal	monkey	1	0	1	stars	1	correct	2.26906842994504
59068	1	stim063_animate_insect_ant_3.png	63	animate	insect	ant	3	0	1	stars	1	correct	2.26906842994504
59118	1	stim023_animate_bird_chicken_3.png	23	animate	bird	chicken	3	0	1	stars	1	correct	2.26906842994504
59168	1	stim126_inanimate_fruits_banana_2.png	126	inanimate	fruits	banana	2	0	1	stars	1	correct	2.26906842994504
59218	1	stim119_inanimate_clothing_socks_3.png	119	inanimate	clothing	socks	3	0	1	stars	1	correct	2.26906842994504
59268	1	stim084_animate_mammal_cow_4.png	84	animate	mammal	cow	4	0	1	stars	1	correct	2.26906842994504
59318	1	stim183_inanimate_tools_broom_3.png	183	inanimate	tools	broom	3	0	1	stars	1	correct	2.26906842994504
59368	1	stim069_animate_insect_butterfly_1.png	69	animate	insect	butterfly	1	0	1	stars	1	correct	2.26906842994504
59418	1	stim033_animate_bird_peacock_1.png	33	animate	bird	peacock	1	0	1	stars	1	correct	2.26906842994504
59468	1	stim168_inanimate_plants_cactus_4.png	168	inanimate	plants	cactus	4	0	1	stars	1	correct	2.26906842994504
59518	1	stim192_inanimate_tools_pan_4.png	192	inanimate	tools	pan	4	0	1	stars	1	correct	2.26906842994504
59568	1	stim197_inanimate_tools_wrench_1.png	197	inanimate	tools	wrench	1	0	1	stars	1	correct	2.26906842994504
59618	1	stim040_animate_bird_penguin_4.png	40	animate	bird	penguin	4	0	1	stars	1	correct	2.26906842994504
59668	1	stim071_animate_insect_butterfly_3.png	71	animate	insect	butterfly	3	0	1	stars	1	correct	2.26906842994504
59718	1	stim193_inanimate_tools_scissors_1.png	193	inanimate	tools	scissors	1	0	1	stars	1	correct	2.26906842994504
59768	1	stim116_inanimate_clothing_shirt_4.png	116	inanimate	clothing	shirt	4	0	1	stars	1	correct	2.26906842994504
59818	1	stim051_animate_human_clown_3.png	51	animate	human	clown	3	0	1	stars	1	correct	2.26906842994504
59868	1	stim037_animate_bird_penguin_1.png	37	animate	bird	penguin	1	0	1	stars	1	correct	2.26906842994504
59918	1	stim042_animate_human_baby_2.png	42	animate	human	baby	2	0	1	stars	1	correct	2.26906842994504
59968	1	stim136_inanimate_fruits_pineapple_4.png	136	inanimate	fruits	pineapple	4	0	1	stars	1	correct	2.26906842994504
60018	1	stim111_inanimate_clothing_jeans_3.png	111	inanimate	clothing	jeans	3	0	1	stars	1	correct	2.26906842994504
60068	1	stim038_animate_bird_penguin_2.png	38	animate	bird	penguin	2	0	1	stars	1	correct	2.26906842994504
60118	1	stim011_animate_aquatic_seahorse_3.png	11	animate	aquatic	seahorse	3	0	1	stars	1	correct	2.26906842994504
60168	1	stim054_animate_human_faces_2.png	54	animate	human	faces	2	0	1	stars	1	correct	2.26906842994504
60218	1	stim189_inanimate_tools_pan_1.png	189	inanimate	tools	pan	1	0	1	stars	1	correct	2.26906842994504
60268	1	stim185_inanimate_tools_hammer_1.png	185	inanimate	tools	hammer	1	0	1	stars	1	correct	2.26906842994504
68918	1	stim160_inanimate_furniture_table_4.png	160	inanimate	furniture	table	4	0	2	stars	3	correct	1.91633715864737
68968	1	stim139_inanimate_fruits_strawberry_3.png	139	inanimate	fruits	strawberry	3	0	2	stars	3	correct	1.91633715864737
69018	1	stim165_inanimate_plants_cactus_1.png	165	inanimate	plants	cactus	1	0	2	stars	3	correct	1.91633715864737
69068	1	stim138_inanimate_fruits_strawberry_2.png	138	inanimate	fruits	strawberry	2	0	2	stars	3	correct	1.91633715864737
69118	1	stim092_animate_mammal_kangaroo_4.png	92	animate	mammal	kangaroo	4	0	2	stars	3	correct	1.91633715864737
69168	1	stim018_animate_aquatic_shrimp_2.png	18	animate	aquatic	shrimp	2	0	2	stars	3	correct	1.91633715864737
69218	1	stim182_inanimate_tools_broom_2.png	182	inanimate	tools	broom	2	0	2	stars	3	correct	1.91633715864737
69268	1	stim195_inanimate_tools_scissors_3.png	195	inanimate	tools	scissors	3	0	2	stars	3	correct	1.91633715864737
69318	1	stim180_inanimate_plants_tulip_4.png	180	inanimate	plants	tulip	4	0	2	stars	3	correct	1.91633715864737
69368	1	stim158_inanimate_furniture_table_2.png	158	inanimate	furniture	table	2	0	2	stars	3	correct	1.91633715864737
69418	1	stim058_animate_human_sports_2.png	58	animate	human	sports	2	0	2	stars	3	correct	1.91633715864737
69468	1	stim076_animate_insect_dragonfly_4.png	76	animate	insect	dragonfly	4	0	2	stars	3	correct	1.91633715864737
69518	1	stim117_inanimate_clothing_socks_1.png	117	inanimate	clothing	socks	1	0	2	stars	3	correct	1.91633715864737
69568	1	stim032_animate_bird_parrot_4.png	32	animate	bird	parrot	4	0	2	stars	3	correct	1.91633715864737
69618	1	stim171_inanimate_plants_sunflower_3.png	171	inanimate	plants	sunflower	3	0	2	stars	3	correct	1.91633715864737
69668	1	stim085_animate_mammal_giraffe_1.png	85	animate	mammal	giraffe	1	0	2	stars	3	correct	1.91633715864737
69718	1	stim023_animate_bird_chicken_3.png	23	animate	bird	chicken	3	0	2	stars	3	correct	1.91633715864737
69768	1	stim109_inanimate_clothing_jeans_1.png	109	inanimate	clothing	jeans	1	0	2	stars	3	correct	1.91633715864737
69818	1	stim176_inanimate_plants_tree_4.png	176	inanimate	plants	tree	4	0	2	stars	3	correct	1.91633715864737
69868	1	stim044_animate_human_baby_4.png	44	animate	human	baby	4	0	2	stars	3	correct	1.91633715864737
69918	1	stim031_animate_bird_parrot_3.png	31	animate	bird	parrot	3	0	2	stars	3	correct	1.91633715864737
69968	1	stim113_inanimate_clothing_shirt_1.png	113	inanimate	clothing	shirt	1	0	2	stars	3	correct	1.91633715864737
70018	1	stim124_inanimate_fruits_apple_4.png	124	inanimate	fruits	apple	4	0	2	stars	3	correct	1.91633715864737
70068	1	stim038_animate_bird_penguin_2.png	38	animate	bird	penguin	2	0	2	stars	3	correct	1.91633715864737
70118	1	stim063_animate_insect_ant_3.png	63	animate	insect	ant	3	0	2	stars	3	correct	1.91633715864737
70168	1	stim024_animate_bird_chicken_4.png	24	animate	bird	chicken	4	0	2	stars	3	correct	1.91633715864737
70218	1	stim060_animate_human_sports_4.png	60	animate	human	sports	4	0	2	stars	3	correct	1.91633715864737
70268	1	stim066_animate_insect_bug_2.png	66	animate	insect	bug	2	0	2	stars	3	correct	1.91633715864737
70318	1	stim121_inanimate_fruits_apple_1.png	121	inanimate	fruits	apple	1	0	2	stars	3	correct	1.91633715864737
70368	1	stim125_inanimate_fruits_banana_1.png	125	inanimate	fruits	banana	1	0	2	stars	3	correct	1.91633715864737
70418	1	stim042_animate_human_baby_2.png	42	animate	human	baby	2	0	2	stars	3	correct	1.91633715864737
70468	1	stim102_inanimate_clothing_gloves_2.png	102	inanimate	clothing	gloves	2	0	2	stars	3	correct	1.91633715864737
70518	1	stim086_animate_mammal_giraffe_2.png	86	animate	mammal	giraffe	2	0	2	stars	3	correct	1.91633715864737
70568	1	stim199_inanimate_tools_wrench_3.png	199	inanimate	tools	wrench	3	0	2	stars	3	correct	1.91633715864737
70618	1	stim200_inanimate_tools_wrench_4.png	200	inanimate	tools	wrench	4	0	2	stars	3	correct	1.91633715864737
70668	1	stim166_inanimate_plants_cactus_2.png	166	inanimate	plants	cactus	2	0	2	stars	3	correct	1.91633715864737
70718	1	stim135_inanimate_fruits_pineapple_3.png	135	inanimate	fruits	pineapple	3	0	2	stars	3	correct	1.91633715864737
70768	1	stim025_animate_bird_duck_1.png	25	animate	bird	duck	1	0	2	stars	3	correct	1.91633715864737
70818	1	stim006_animate_aquatic_fish_2.png	6	animate	aquatic	fish	2	0	2	stars	3	correct	1.91633715864737
70868	1	stim183_inanimate_tools_broom_3.png	183	inanimate	tools	broom	3	0	2	stars	3	correct	1.91633715864737
70918	1	stim035_animate_bird_peacock_3.png	35	animate	bird	peacock	3	0	2	stars	3	correct	1.91633715864737
70968	1	stim077_animate_insect_grasshopper_1.png	77	animate	insect	grasshopper	1	0	2	stars	3	correct	1.91633715864737
71018	1	stim071_animate_insect_butterfly_3.png	71	animate	insect	butterfly	3	0	2	stars	3	correct	1.91633715864737
71068	1	stim033_animate_bird_peacock_1.png	33	animate	bird	peacock	1	0	2	stars	3	correct	1.91633715864737
71118	1	stim068_animate_insect_bug_4.png	68	animate	insect	bug	4	0	2	stars	3	correct	1.91633715864737
71168	1	stim175_inanimate_plants_tree_3.png	175	inanimate	plants	tree	3	0	2	stars	3	correct	1.91633715864737
71218	1	stim152_inanimate_furniture_closet_4.png	152	inanimate	furniture	closet	4	0	2	stars	3	correct	1.91633715864737
71268	1	stim140_inanimate_fruits_strawberry_4.png	140	inanimate	fruits	strawberry	4	0	2	stars	3	correct	1.91633715864737
71318	1	stim101_inanimate_clothing_gloves_1.png	101	inanimate	clothing	gloves	1	0	2	stars	3	correct	1.91633715864737
71368	1	stim067_animate_insect_bug_3.png	67	animate	insect	bug	3	0	2	stars	3	correct	1.91633715864737
71418	1	stim001_animate_aquatic_crab_1.png	1	animate	aquatic	crab	1	0	2	stars	3	correct	1.91633715864737
71468	1	stim215_targets_shapes_star_3.png	215	targets	shapes	star	3	1	2	stars	3	correct	1.91633715864737
71518	1	stim190_inanimate_tools_pan_2.png	190	inanimate	tools	pan	2	0	2	stars	3	correct	1.91633715864737
71568	1	stim154_inanimate_furniture_sofa_2.png	154	inanimate	furniture	sofa	2	0	2	stars	3	correct	1.91633715864737
71618	1	stim051_animate_human_clown_3.png	51	animate	human	clown	3	0	2	stars	3	correct	1.91633715864737
71668	1	stim106_inanimate_clothing_hat_2.png	106	inanimate	clothing	hat	2	0	2	stars	3	correct	1.91633715864737
71718	1	stim169_inanimate_plants_sunflower_1.png	169	inanimate	plants	sunflower	1	0	2	stars	3	correct	1.91633715864737
71768	1	stim056_animate_human_faces_4.png	56	animate	human	faces	4	0	2	stars	3	correct	1.91633715864737
71818	1	stim134_inanimate_fruits_pineapple_2.png	134	inanimate	fruits	pineapple	2	0	2	stars	3	correct	1.91633715864737
71868	1	stim156_inanimate_furniture_sofa_4.png	156	inanimate	furniture	sofa	4	0	2	stars	3	correct	1.91633715864737
71918	1	stim151_inanimate_furniture_closet_3.png	151	inanimate	furniture	closet	3	0	2	stars	3	correct	1.91633715864737
71969	1	stim065_animate_insect_bug_1.png	65	animate	insect	bug	1	0	2	stars	3	correct	1.91633715864737
72019	1	stim062_animate_insect_ant_2.png	62	animate	insect	ant	2	0	2	stars	3	correct	1.91633715864737
72069	1	stim019_animate_aquatic_shrimp_3.png	19	animate	aquatic	shrimp	3	0	2	stars	3	correct	1.91633715864737
72119	1	stim043_animate_human_baby_3.png	43	animate	human	baby	3	0	2	stars	3	correct	1.91633715864737
72168	1	stim055_animate_human_faces_3.png	55	animate	human	faces	3	0	2	stars	3	correct	1.91633715864737
72219	1	stim027_animate_bird_duck_3.png	27	animate	bird	duck	3	0	2	stars	3	correct	1.91633715864737
72268	1	stim126_inanimate_fruits_banana_2.png	126	inanimate	fruits	banana	2	0	2	stars	3	correct	1.91633715864737
72319	1	stim111_inanimate_clothing_jeans_3.png	111	inanimate	clothing	jeans	3	0	2	stars	3	correct	1.91633715864737
72369	1	stim192_inanimate_tools_pan_4.png	192	inanimate	tools	pan	4	0	2	stars	3	correct	1.91633715864737
72419	1	stim163_inanimate_plants_bush_3.png	163	inanimate	plants	bush	3	0	2	stars	3	correct	1.91633715864737
72469	1	stim100_animate_mammal_rhino_4.png	100	animate	mammal	rhino	4	0	2	stars	3	correct	1.91633715864737
72519	1	stim185_inanimate_tools_hammer_1.png	185	inanimate	tools	hammer	1	0	2	stars	3	correct	1.91633715864737
72569	1	stim084_animate_mammal_cow_4.png	84	animate	mammal	cow	4	0	2	stars	3	correct	1.91633715864737
72619	1	stim005_animate_aquatic_fish_1.png	5	animate	aquatic	fish	1	0	2	stars	3	correct	1.91633715864737
72669	1	stim108_inanimate_clothing_hat_4.png	108	inanimate	clothing	hat	4	0	2	stars	3	correct	1.91633715864737
72719	1	stim104_inanimate_clothing_gloves_4.png	104	inanimate	clothing	gloves	4	0	2	stars	3	correct	1.91633715864737
72768	1	stim054_animate_human_faces_2.png	54	animate	human	faces	2	0	2	stars	3	correct	1.91633715864737
72819	1	stim087_animate_mammal_giraffe_3.png	87	animate	mammal	giraffe	3	0	2	stars	3	correct	1.91633715864737
72869	1	stim008_animate_aquatic_fish_4.png	8	animate	aquatic	fish	4	0	2	stars	3	correct	1.91633715864737
72919	1	stim079_animate_insect_grasshopper_3.png	79	animate	insect	grasshopper	3	0	2	stars	3	correct	1.91633715864737
72969	1	stim004_animate_aquatic_crab_4.png	4	animate	aquatic	crab	4	0	2	stars	3	correct	1.91633715864737
73019	1	stim137_inanimate_fruits_strawberry_1.png	137	inanimate	fruits	strawberry	1	0	2	stars	3	correct	1.91633715864737
73069	1	stim064_animate_insect_ant_4.png	64	animate	insect	ant	4	0	2	stars	3	correct	1.91633715864737
73119	1	stim116_inanimate_clothing_shirt_4.png	116	inanimate	clothing	shirt	4	0	2	stars	3	correct	1.91633715864737
73168	1	stim017_animate_aquatic_shrimp_1.png	17	animate	aquatic	shrimp	1	0	2	stars	3	correct	1.91633715864737
73219	1	stim095_animate_mammal_monkey_3.png	95	animate	mammal	monkey	3	0	2	stars	3	correct	1.91633715864737
73269	1	stim174_inanimate_plants_tree_2.png	174	inanimate	plants	tree	2	0	2	stars	3	correct	1.91633715864737
73319	1	stim157_inanimate_furniture_table_1.png	157	inanimate	furniture	table	1	0	2	stars	3	correct	1.91633715864737
73369	1	stim020_animate_aquatic_shrimp_4.png	20	animate	aquatic	shrimp	4	0	2	stars	3	correct	1.91633715864737
73419	1	stim093_animate_mammal_monkey_1.png	93	animate	mammal	monkey	1	0	2	stars	3	correct	1.91633715864737
73469	1	stim145_inanimate_furniture_chair_1.png	145	inanimate	furniture	chair	1	0	2	stars	3	correct	1.91633715864737
73519	1	stim136_inanimate_fruits_pineapple_4.png	136	inanimate	fruits	pineapple	4	0	2	stars	3	correct	1.91633715864737
73569	1	stim142_inanimate_furniture_bed_2.png	142	inanimate	furniture	bed	2	0	2	stars	3	correct	1.91633715864737
73619	1	stim103_inanimate_clothing_gloves_3.png	103	inanimate	clothing	gloves	3	0	2	stars	3	correct	1.91633715864737
73669	1	stim209_targets_shapes_star_1.png	209	targets	shapes	star	1	1	2	stars	3	correct	1.91633715864737
73719	1	stim105_inanimate_clothing_hat_1.png	105	inanimate	clothing	hat	1	0	2	stars	3	correct	1.91633715864737
73769	1	stim173_inanimate_plants_tree_1.png	173	inanimate	plants	tree	1	0	2	stars	3	correct	1.91633715864737
73819	1	stim074_animate_insect_dragonfly_2.png	74	animate	insect	dragonfly	2	0	2	stars	3	correct	1.91633715864737
73869	1	stim090_animate_mammal_kangaroo_2.png	90	animate	mammal	kangaroo	2	0	2	stars	3	correct	1.91633715864737
73919	1	stim075_animate_insect_dragonfly_3.png	75	animate	insect	dragonfly	3	0	2	stars	3	correct	1.91633715864737
73969	1	stim172_inanimate_plants_sunflower_4.png	172	inanimate	plants	sunflower	4	0	2	stars	3	correct	1.91633715864737
74019	1	stim028_animate_bird_duck_4.png	28	animate	bird	duck	4	0	2	stars	3	correct	1.91633715864737
74069	1	stim153_inanimate_furniture_sofa_1.png	153	inanimate	furniture	sofa	1	0	2	stars	3	correct	1.91633715864737
74119	1	stim110_inanimate_clothing_jeans_2.png	110	inanimate	clothing	jeans	2	0	2	stars	3	correct	1.91633715864737
74169	1	stim009_animate_aquatic_seahorse_1.png	9	animate	aquatic	seahorse	1	0	2	stars	3	correct	1.91633715864737
74219	1	stim147_inanimate_furniture_chair_3.png	147	inanimate	furniture	chair	3	0	2	stars	3	correct	1.91633715864737
74269	1	stim039_animate_bird_penguin_3.png	39	animate	bird	penguin	3	0	2	stars	3	correct	1.91633715864737
74319	1	stim070_animate_insect_butterfly_2.png	70	animate	insect	butterfly	2	0	2	stars	3	correct	1.91633715864737
74369	1	stim184_inanimate_tools_broom_4.png	184	inanimate	tools	broom	4	0	2	stars	3	correct	1.91633715864737
74419	1	stim143_inanimate_furniture_bed_3.png	143	inanimate	furniture	bed	3	0	2	stars	3	correct	1.91633715864737
74469	1	stim181_inanimate_tools_broom_1.png	181	inanimate	tools	broom	1	0	2	stars	3	correct	1.91633715864737
74519	1	stim073_animate_insect_dragonfly_1.png	73	animate	insect	dragonfly	1	0	2	stars	3	correct	1.91633715864737
74569	1	stim193_inanimate_tools_scissors_1.png	193	inanimate	tools	scissors	1	0	2	stars	3	correct	1.91633715864737
74619	1	stim179_inanimate_plants_tulip_3.png	179	inanimate	plants	tulip	3	0	2	stars	3	correct	1.91633715864737
74669	1	stim115_inanimate_clothing_shirt_3.png	115	inanimate	clothing	shirt	3	0	2	stars	3	correct	1.91633715864737
74719	1	stim099_animate_mammal_rhino_3.png	99	animate	mammal	rhino	3	0	2	stars	3	correct	1.91633715864737
74769	1	stim016_animate_aquatic_shark_4.png	16	animate	aquatic	shark	4	0	2	stars	3	correct	1.91633715864737
74819	1	stim186_inanimate_tools_hammer_2.png	186	inanimate	tools	hammer	2	0	2	stars	3	correct	1.91633715864737
74869	1	stim119_inanimate_clothing_socks_3.png	119	inanimate	clothing	socks	3	0	2	stars	3	correct	1.91633715864737
74919	1	stim088_animate_mammal_giraffe_4.png	88	animate	mammal	giraffe	4	0	2	stars	3	correct	1.91633715864737
74969	1	stim112_inanimate_clothing_jeans_4.png	112	inanimate	clothing	jeans	4	0	2	stars	3	correct	1.91633715864737
75019	1	stim012_animate_aquatic_seahorse_4.png	12	animate	aquatic	seahorse	4	0	2	stars	3	correct	1.91633715864737
75069	1	stim046_animate_human_child_2.png	46	animate	human	child	2	0	2	stars	3	correct	1.91633715864737
75119	1	stim036_animate_bird_peacock_4.png	36	animate	bird	peacock	4	0	2	stars	3	correct	1.91633715864737
75169	1	stim003_animate_aquatic_crab_3.png	3	animate	aquatic	crab	3	0	2	stars	3	correct	1.91633715864737
75219	1	stim094_animate_mammal_monkey_2.png	94	animate	mammal	monkey	2	0	2	stars	3	correct	1.91633715864737
75269	1	stim189_inanimate_tools_pan_1.png	189	inanimate	tools	pan	1	0	2	stars	3	correct	1.91633715864737
75319	1	stim167_inanimate_plants_cactus_3.png	167	inanimate	plants	cactus	3	0	2	stars	3	correct	1.91633715864737
75369	1	stim011_animate_aquatic_seahorse_3.png	11	animate	aquatic	seahorse	3	0	2	stars	3	correct	1.91633715864737
75419	1	stim107_inanimate_clothing_hat_3.png	107	inanimate	clothing	hat	3	0	2	stars	3	correct	1.91633715864737
75469	1	stim150_inanimate_furniture_closet_2.png	150	inanimate	furniture	closet	2	0	2	stars	3	correct	1.91633715864737
75519	1	stim118_inanimate_clothing_socks_2.png	118	inanimate	clothing	socks	2	0	2	stars	3	correct	1.91633715864737
75569	1	stim096_animate_mammal_monkey_4.png	96	animate	mammal	monkey	4	0	2	stars	3	correct	1.91633715864737
75619	1	stim129_inanimate_fruits_grape_1.png	129	inanimate	fruits	grape	1	0	2	stars	3	correct	1.91633715864737
75669	1	stim002_animate_aquatic_crab_2.png	2	animate	aquatic	crab	2	0	2	stars	3	correct	1.91633715864737
75719	1	stim040_animate_bird_penguin_4.png	40	animate	bird	penguin	4	0	2	stars	3	correct	1.91633715864737
75769	1	stim069_animate_insect_butterfly_1.png	69	animate	insect	butterfly	1	0	2	stars	3	correct	1.91633715864737
75819	1	stim048_animate_human_child_4.png	48	animate	human	child	4	0	2	stars	3	correct	1.91633715864737
75869	1	stim010_animate_aquatic_seahorse_2.png	10	animate	aquatic	seahorse	2	0	2	stars	3	correct	1.91633715864737
75919	1	stim123_inanimate_fruits_apple_3.png	123	inanimate	fruits	apple	3	0	2	stars	3	correct	1.91633715864737
75969	1	stim162_inanimate_plants_bush_2.png	162	inanimate	plants	bush	2	0	2	stars	3	correct	1.91633715864737
76019	1	stim083_animate_mammal_cow_3.png	83	animate	mammal	cow	3	0	2	stars	3	correct	1.91633715864737
76069	1	stim197_inanimate_tools_wrench_1.png	197	inanimate	tools	wrench	1	0	2	stars	3	correct	1.91633715864737
76119	1	stim148_inanimate_furniture_chair_4.png	148	inanimate	furniture	chair	4	0	2	stars	3	correct	1.91633715864737
76169	1	stim141_inanimate_furniture_bed_1.png	141	inanimate	furniture	bed	1	0	2	stars	3	correct	1.91633715864737
76219	1	stim061_animate_insect_ant_1.png	61	animate	insect	ant	1	0	2	stars	3	correct	1.91633715864737
76269	1	stim120_inanimate_clothing_socks_4.png	120	inanimate	clothing	socks	4	0	2	stars	3	correct	1.91633715864737
76319	1	stim021_animate_bird_chicken_1.png	21	animate	bird	chicken	1	0	2	stars	3	correct	1.91633715864737
76369	1	stim211_targets_shapes_star_3.png	211	targets	shapes	star	3	1	2	stars	3	correct	1.91633715864737
76419	1	stim026_animate_bird_duck_2.png	26	animate	bird	duck	2	0	2	stars	3	correct	1.91633715864737
76469	1	stim132_inanimate_fruits_grape_4.png	132	inanimate	fruits	grape	4	0	2	stars	3	correct	1.91633715864737
76519	1	stim127_inanimate_fruits_banana_3.png	127	inanimate	fruits	banana	3	0	2	stars	3	correct	1.91633715864737
76569	1	stim097_animate_mammal_rhino_1.png	97	animate	mammal	rhino	1	0	2	stars	3	correct	1.91633715864737
76619	1	stim014_animate_aquatic_shark_2.png	14	animate	aquatic	shark	2	0	2	stars	3	correct	1.91633715864737
76669	1	stim128_inanimate_fruits_banana_4.png	128	inanimate	fruits	banana	4	0	2	stars	3	correct	1.91633715864737
76719	1	stim072_animate_insect_butterfly_4.png	72	animate	insect	butterfly	4	0	2	stars	3	correct	1.91633715864737
76769	1	stim041_animate_human_baby_1.png	41	animate	human	baby	1	0	2	stars	3	correct	1.91633715864737
76819	1	stim080_animate_insect_grasshopper_4.png	80	animate	insect	grasshopper	4	0	2	stars	3	correct	1.91633715864737
76869	1	stim187_inanimate_tools_hammer_3.png	187	inanimate	tools	hammer	3	0	2	stars	3	correct	1.91633715864737
76919	1	stim177_inanimate_plants_tulip_1.png	177	inanimate	plants	tulip	1	0	2	stars	3	correct	1.91633715864737
76969	1	stim188_inanimate_tools_hammer_4.png	188	inanimate	tools	hammer	4	0	2	stars	3	correct	1.91633715864737
77019	1	stim164_inanimate_plants_bush_4.png	164	inanimate	plants	bush	4	0	2	stars	3	correct	1.91633715864737
77069	1	stim015_animate_aquatic_shark_3.png	15	animate	aquatic	shark	3	0	2	stars	3	correct	1.91633715864737
77119	1	stim089_animate_mammal_kangaroo_1.png	89	animate	mammal	kangaroo	1	0	2	stars	3	correct	1.91633715864737
77169	1	stim178_inanimate_plants_tulip_2.png	178	inanimate	plants	tulip	2	0	2	stars	3	correct	1.91633715864737
77219	1	stim122_inanimate_fruits_apple_2.png	122	inanimate	fruits	apple	2	0	2	stars	3	correct	1.91633715864737
77269	1	stim130_inanimate_fruits_grape_2.png	130	inanimate	fruits	grape	2	0	2	stars	3	correct	1.91633715864737
77319	1	stim146_inanimate_furniture_chair_2.png	146	inanimate	furniture	chair	2	0	2	stars	3	correct	1.91633715864737
77369	1	stim050_animate_human_clown_2.png	50	animate	human	clown	2	0	2	stars	3	correct	1.91633715864737
77419	1	stim078_animate_insect_grasshopper_2.png	78	animate	insect	grasshopper	2	0	2	stars	3	correct	1.91633715864737
77469	1	stim034_animate_bird_peacock_2.png	34	animate	bird	peacock	2	0	2	stars	3	correct	1.91633715864737
77519	1	stim059_animate_human_sports_3.png	59	animate	human	sports	3	0	2	stars	3	correct	1.91633715864737
77569	1	stim170_inanimate_plants_sunflower_2.png	170	inanimate	plants	sunflower	2	0	2	stars	3	correct	1.91633715864737
77619	1	stim194_inanimate_tools_scissors_2.png	194	inanimate	tools	scissors	2	0	2	stars	3	correct	1.91633715864737
77669	1	stim029_animate_bird_parrot_1.png	29	animate	bird	parrot	1	0	2	stars	3	correct	1.91633715864737
77719	1	stim098_animate_mammal_rhino_2.png	98	animate	mammal	rhino	2	0	2	stars	3	correct	1.91633715864737
77769	1	stim149_inanimate_furniture_closet_1.png	149	inanimate	furniture	closet	1	0	2	stars	3	correct	1.91633715864737
77819	1	stim053_animate_human_faces_1.png	53	animate	human	faces	1	0	2	stars	3	correct	1.91633715864737
77869	1	stim196_inanimate_tools_scissors_4.png	196	inanimate	tools	scissors	4	0	2	stars	3	correct	1.91633715864737
77919	1	stim013_animate_aquatic_shark_1.png	13	animate	aquatic	shark	1	0	2	stars	3	correct	1.91633715864737
77969	1	stim030_animate_bird_parrot_2.png	30	animate	bird	parrot	2	0	2	stars	3	correct	1.91633715864737
78019	1	stim022_animate_bird_chicken_2.png	22	animate	bird	chicken	2	0	2	stars	3	correct	1.91633715864737
78069	1	stim198_inanimate_tools_wrench_2.png	198	inanimate	tools	wrench	2	0	2	stars	3	correct	1.91633715864737
78119	1	stim052_animate_human_clown_4.png	52	animate	human	clown	4	0	2	stars	3	correct	1.91633715864737
78169	1	stim168_inanimate_plants_cactus_4.png	168	inanimate	plants	cactus	4	0	2	stars	3	correct	1.91633715864737
78219	1	stim159_inanimate_furniture_table_3.png	159	inanimate	furniture	table	3	0	2	stars	3	correct	1.91633715864737
78269	1	stim047_animate_human_child_3.png	47	animate	human	child	3	0	2	stars	3	correct	1.91633715864737
78319	1	stim045_animate_human_child_1.png	45	animate	human	child	1	0	2	stars	3	correct	1.91633715864737
78369	1	stim144_inanimate_furniture_bed_4.png	144	inanimate	furniture	bed	4	0	2	stars	3	correct	1.91633715864737
78419	1	stim082_animate_mammal_cow_2.png	82	animate	mammal	cow	2	0	2	stars	3	correct	1.91633715864737
78469	1	stim091_animate_mammal_kangaroo_3.png	91	animate	mammal	kangaroo	3	0	2	stars	3	correct	1.91633715864737
78519	1	stim081_animate_mammal_cow_1.png	81	animate	mammal	cow	1	0	2	stars	3	correct	1.91633715864737
78569	1	stim049_animate_human_clown_1.png	49	animate	human	clown	1	0	2	stars	3	correct	1.91633715864737
78619	1	stim007_animate_aquatic_fish_3.png	7	animate	aquatic	fish	3	0	2	stars	3	correct	1.91633715864737
78669	1	stim133_inanimate_fruits_pineapple_1.png	133	inanimate	fruits	pineapple	1	0	2	stars	3	correct	1.91633715864737
78719	1	stim191_inanimate_tools_pan_3.png	191	inanimate	tools	pan	3	0	2	stars	3	correct	1.91633715864737
78769	1	stim161_inanimate_plants_bush_1.png	161	inanimate	plants	bush	1	0	2	stars	3	correct	1.91633715864737
78819	1	stim057_animate_human_sports_1.png	57	animate	human	sports	1	0	2	stars	3	correct	1.91633715864737
78869	1	stim114_inanimate_clothing_shirt_2.png	114	inanimate	clothing	shirt	2	0	2	stars	3	correct	1.91633715864737
78919	1	stim155_inanimate_furniture_sofa_3.png	155	inanimate	furniture	sofa	3	0	2	stars	3	correct	1.91633715864737
78969	1	stim131_inanimate_fruits_grape_3.png	131	inanimate	fruits	grape	3	0	2	stars	3	correct	1.91633715864737
79019	1	stim037_animate_bird_penguin_1.png	37	animate	bird	penguin	1	0	2	stars	3	correct	1.91633715864737
83219	1	stim041_animate_human_baby_1.png	41	animate	human	baby	1	0	3	boats	1	correct	0.966083231498487
83269	1	stim194_inanimate_tools_scissors_2.png	194	inanimate	tools	scissors	2	0	3	boats	1	correct	0.966083231498487
83319	1	stim116_inanimate_clothing_shirt_4.png	116	inanimate	clothing	shirt	4	0	3	boats	1	correct	0.966083231498487
83369	1	stim006_animate_aquatic_fish_2.png	6	animate	aquatic	fish	2	0	3	boats	1	correct	0.966083231498487
83419	1	stim187_inanimate_tools_hammer_3.png	187	inanimate	tools	hammer	3	0	3	boats	1	correct	0.966083231498487
83469	1	stim054_animate_human_faces_2.png	54	animate	human	faces	2	0	3	boats	1	correct	0.966083231498487
83519	1	stim047_animate_human_child_3.png	47	animate	human	child	3	0	3	boats	1	correct	0.966083231498487
83569	1	stim045_animate_human_child_1.png	45	animate	human	child	1	0	3	boats	1	correct	0.966083231498487
83619	1	stim100_animate_mammal_rhino_4.png	100	animate	mammal	rhino	4	0	3	boats	1	correct	0.966083231498487
83669	1	stim107_inanimate_clothing_hat_3.png	107	inanimate	clothing	hat	3	0	3	boats	1	correct	0.966083231498487
83719	1	stim066_animate_insect_bug_2.png	66	animate	insect	bug	2	0	3	boats	1	correct	0.966083231498487
83769	1	stim122_inanimate_fruits_apple_2.png	122	inanimate	fruits	apple	2	0	3	boats	1	correct	0.966083231498487
83819	1	stim200_inanimate_tools_wrench_4.png	200	inanimate	tools	wrench	4	0	3	boats	1	correct	0.966083231498487
83869	1	stim095_animate_mammal_monkey_3.png	95	animate	mammal	monkey	3	0	3	boats	1	correct	0.966083231498487
83919	1	stim031_animate_bird_parrot_3.png	31	animate	bird	parrot	3	0	3	boats	1	correct	0.966083231498487
83969	1	stim077_animate_insect_grasshopper_1.png	77	animate	insect	grasshopper	1	0	3	boats	1	correct	0.966083231498487
84019	1	stim145_inanimate_furniture_chair_1.png	145	inanimate	furniture	chair	1	0	3	boats	1	correct	0.966083231498487
84069	1	stim177_inanimate_plants_tulip_1.png	177	inanimate	plants	tulip	1	0	3	boats	1	correct	0.966083231498487
84119	1	stim109_inanimate_clothing_jeans_1.png	109	inanimate	clothing	jeans	1	0	3	boats	1	correct	0.966083231498487
84169	1	stim070_animate_insect_butterfly_2.png	70	animate	insect	butterfly	2	0	3	boats	1	correct	0.966083231498487
84219	1	stim003_animate_aquatic_crab_3.png	3	animate	aquatic	crab	3	0	3	boats	1	correct	0.966083231498487
84269	1	stim024_animate_bird_chicken_4.png	24	animate	bird	chicken	4	0	3	boats	1	correct	0.966083231498487
84319	1	stim051_animate_human_clown_3.png	51	animate	human	clown	3	0	3	boats	1	correct	0.966083231498487
84369	1	stim115_inanimate_clothing_shirt_3.png	115	inanimate	clothing	shirt	3	0	3	boats	1	correct	0.966083231498487
84419	1	stim160_inanimate_furniture_table_4.png	160	inanimate	furniture	table	4	0	3	boats	1	correct	0.966083231498487
84469	1	stim079_animate_insect_grasshopper_3.png	79	animate	insect	grasshopper	3	0	3	boats	1	correct	0.966083231498487
84519	1	stim170_inanimate_plants_sunflower_2.png	170	inanimate	plants	sunflower	2	0	3	boats	1	correct	0.966083231498487
84569	1	stim182_inanimate_tools_broom_2.png	182	inanimate	tools	broom	2	0	3	boats	1	correct	0.966083231498487
84619	1	stim105_inanimate_clothing_hat_1.png	105	inanimate	clothing	hat	1	0	3	boats	1	correct	0.966083231498487
84669	1	stim099_animate_mammal_rhino_3.png	99	animate	mammal	rhino	3	0	3	boats	1	correct	0.966083231498487
84719	1	stim103_inanimate_clothing_gloves_3.png	103	inanimate	clothing	gloves	3	0	3	boats	1	correct	0.966083231498487
84769	1	stim184_inanimate_tools_broom_4.png	184	inanimate	tools	broom	4	0	3	boats	1	correct	0.966083231498487
84819	1	stim123_inanimate_fruits_apple_3.png	123	inanimate	fruits	apple	3	0	3	boats	1	correct	0.966083231498487
84869	1	stim134_inanimate_fruits_pineapple_2.png	134	inanimate	fruits	pineapple	2	0	3	boats	1	correct	0.966083231498487
84919	1	stim110_inanimate_clothing_jeans_2.png	110	inanimate	clothing	jeans	2	0	3	boats	1	correct	0.966083231498487
84969	1	stim183_inanimate_tools_broom_3.png	183	inanimate	tools	broom	3	0	3	boats	1	correct	0.966083231498487
85019	1	stim191_inanimate_tools_pan_3.png	191	inanimate	tools	pan	3	0	3	boats	1	correct	0.966083231498487
85069	1	stim072_animate_insect_butterfly_4.png	72	animate	insect	butterfly	4	0	3	boats	1	correct	0.966083231498487
85119	1	stim163_inanimate_plants_bush_3.png	163	inanimate	plants	bush	3	0	3	boats	1	correct	0.966083231498487
85169	1	stim035_animate_bird_peacock_3.png	35	animate	bird	peacock	3	0	3	boats	1	correct	0.966083231498487
85219	1	stim004_animate_aquatic_crab_4.png	4	animate	aquatic	crab	4	0	3	boats	1	correct	0.966083231498487
85269	1	stim186_inanimate_tools_hammer_2.png	186	inanimate	tools	hammer	2	0	3	boats	1	correct	0.966083231498487
85319	1	stim190_inanimate_tools_pan_2.png	190	inanimate	tools	pan	2	0	3	boats	1	correct	0.966083231498487
85369	1	stim069_animate_insect_butterfly_1.png	69	animate	insect	butterfly	1	0	3	boats	1	correct	0.966083231498487
85419	1	stim056_animate_human_faces_4.png	56	animate	human	faces	4	0	3	boats	1	correct	0.966083231498487
85469	1	stim067_animate_insect_bug_3.png	67	animate	insect	bug	3	0	3	boats	1	correct	0.966083231498487
85519	1	stim088_animate_mammal_giraffe_4.png	88	animate	mammal	giraffe	4	0	3	boats	1	correct	0.966083231498487
85569	1	stim080_animate_insect_grasshopper_4.png	80	animate	insect	grasshopper	4	0	3	boats	1	correct	0.966083231498487
85619	1	stim169_inanimate_plants_sunflower_1.png	169	inanimate	plants	sunflower	1	0	3	boats	1	correct	0.966083231498487
85669	1	stim181_inanimate_tools_broom_1.png	181	inanimate	tools	broom	1	0	3	boats	1	correct	0.966083231498487
85719	1	stim198_inanimate_tools_wrench_2.png	198	inanimate	tools	wrench	2	0	3	boats	1	correct	0.966083231498487
85769	1	stim078_animate_insect_grasshopper_2.png	78	animate	insect	grasshopper	2	0	3	boats	1	correct	0.966083231498487
85819	1	stim195_inanimate_tools_scissors_3.png	195	inanimate	tools	scissors	3	0	3	boats	1	correct	0.966083231498487
85869	1	stim138_inanimate_fruits_strawberry_2.png	138	inanimate	fruits	strawberry	2	0	3	boats	1	correct	0.966083231498487
85919	1	stim002_animate_aquatic_crab_2.png	2	animate	aquatic	crab	2	0	3	boats	1	correct	0.966083231498487
85969	1	stim001_animate_aquatic_crab_1.png	1	animate	aquatic	crab	1	0	3	boats	1	correct	0.966083231498487
86019	1	stim106_inanimate_clothing_hat_2.png	106	inanimate	clothing	hat	2	0	3	boats	1	correct	0.966083231498487
86069	1	stim189_inanimate_tools_pan_1.png	189	inanimate	tools	pan	1	0	3	boats	1	correct	0.966083231498487
86119	1	stim161_inanimate_plants_bush_1.png	161	inanimate	plants	bush	1	0	3	boats	1	correct	0.966083231498487
86169	1	stim022_animate_bird_chicken_2.png	22	animate	bird	chicken	2	0	3	boats	1	correct	0.966083231498487
86219	1	stim005_animate_aquatic_fish_1.png	5	animate	aquatic	fish	1	0	3	boats	1	correct	0.966083231498487
86269	1	stim156_inanimate_furniture_sofa_4.png	156	inanimate	furniture	sofa	4	0	3	boats	1	correct	0.966083231498487
86319	1	stim136_inanimate_fruits_pineapple_4.png	136	inanimate	fruits	pineapple	4	0	3	boats	1	correct	0.966083231498487
86369	1	stim037_animate_bird_penguin_1.png	37	animate	bird	penguin	1	0	3	boats	1	correct	0.966083231498487
86419	1	stim013_animate_aquatic_shark_1.png	13	animate	aquatic	shark	1	0	3	boats	1	correct	0.966083231498487
86469	1	stim064_animate_insect_ant_4.png	64	animate	insect	ant	4	0	3	boats	1	correct	0.966083231498487
86519	1	stim112_inanimate_clothing_jeans_4.png	112	inanimate	clothing	jeans	4	0	3	boats	1	correct	0.966083231498487
86569	1	stim097_animate_mammal_rhino_1.png	97	animate	mammal	rhino	1	0	3	boats	1	correct	0.966083231498487
86619	1	stim085_animate_mammal_giraffe_1.png	85	animate	mammal	giraffe	1	0	3	boats	1	correct	0.966083231498487
86669	1	stim127_inanimate_fruits_banana_3.png	127	inanimate	fruits	banana	3	0	3	boats	1	correct	0.966083231498487
86719	1	stim046_animate_human_child_2.png	46	animate	human	child	2	0	3	boats	1	correct	0.966083231498487
86769	1	stim040_animate_bird_penguin_4.png	40	animate	bird	penguin	4	0	3	boats	1	correct	0.966083231498487
86819	1	stim196_inanimate_tools_scissors_4.png	196	inanimate	tools	scissors	4	0	3	boats	1	correct	0.966083231498487
86869	1	stim018_animate_aquatic_shrimp_2.png	18	animate	aquatic	shrimp	2	0	3	boats	1	correct	0.966083231498487
86919	1	stim111_inanimate_clothing_jeans_3.png	111	inanimate	clothing	jeans	3	0	3	boats	1	correct	0.966083231498487
86969	1	stim128_inanimate_fruits_banana_4.png	128	inanimate	fruits	banana	4	0	3	boats	1	correct	0.966083231498487
87019	1	stim048_animate_human_child_4.png	48	animate	human	child	4	0	3	boats	1	correct	0.966083231498487
87069	1	stim053_animate_human_faces_1.png	53	animate	human	faces	1	0	3	boats	1	correct	0.966083231498487
87119	1	stim062_animate_insect_ant_2.png	62	animate	insect	ant	2	0	3	boats	1	correct	0.966083231498487
87169	1	stim192_inanimate_tools_pan_4.png	192	inanimate	tools	pan	4	0	3	boats	1	correct	0.966083231498487
87219	1	stim118_inanimate_clothing_socks_2.png	118	inanimate	clothing	socks	2	0	3	boats	1	correct	0.966083231498487
87269	1	stim155_inanimate_furniture_sofa_3.png	155	inanimate	furniture	sofa	3	0	3	boats	1	correct	0.966083231498487
87319	1	stim086_animate_mammal_giraffe_2.png	86	animate	mammal	giraffe	2	0	3	boats	1	correct	0.966083231498487
87369	1	stim061_animate_insect_ant_1.png	61	animate	insect	ant	1	0	3	boats	1	correct	0.966083231498487
87419	1	stim083_animate_mammal_cow_3.png	83	animate	mammal	cow	3	0	3	boats	1	correct	0.966083231498487
87469	1	stim157_inanimate_furniture_table_1.png	157	inanimate	furniture	table	1	0	3	boats	1	correct	0.966083231498487
87519	1	stim092_animate_mammal_kangaroo_4.png	92	animate	mammal	kangaroo	4	0	3	boats	1	correct	0.966083231498487
87569	1	stim017_animate_aquatic_shrimp_1.png	17	animate	aquatic	shrimp	1	0	3	boats	1	correct	0.966083231498487
87619	1	stim185_inanimate_tools_hammer_1.png	185	inanimate	tools	hammer	1	0	3	boats	1	correct	0.966083231498487
87669	1	stim021_animate_bird_chicken_1.png	21	animate	bird	chicken	1	0	3	boats	1	correct	0.966083231498487
87719	1	stim101_inanimate_clothing_gloves_1.png	101	inanimate	clothing	gloves	1	0	3	boats	1	correct	0.966083231498487
87769	1	stim121_inanimate_fruits_apple_1.png	121	inanimate	fruits	apple	1	0	3	boats	1	correct	0.966083231498487
87819	1	stim029_animate_bird_parrot_1.png	29	animate	bird	parrot	1	0	3	boats	1	correct	0.966083231498487
87869	1	stim207_targets_object_boats_3.png	207	targets	object	boats	3	1	3	boats	1	correct	0.966083231498487
87919	1	stim093_animate_mammal_monkey_1.png	93	animate	mammal	monkey	1	0	3	boats	1	correct	0.966083231498487
87969	1	stim026_animate_bird_duck_2.png	26	animate	bird	duck	2	0	3	boats	1	correct	0.966083231498487
88019	1	stim159_inanimate_furniture_table_3.png	159	inanimate	furniture	table	3	0	3	boats	1	correct	0.966083231498487
88069	1	stim139_inanimate_fruits_strawberry_3.png	139	inanimate	fruits	strawberry	3	0	3	boats	1	correct	0.966083231498487
88119	1	stim096_animate_mammal_monkey_4.png	96	animate	mammal	monkey	4	0	3	boats	1	correct	0.966083231498487
88169	1	stim074_animate_insect_dragonfly_2.png	74	animate	insect	dragonfly	2	0	3	boats	1	correct	0.966083231498487
88219	1	stim150_inanimate_furniture_closet_2.png	150	inanimate	furniture	closet	2	0	3	boats	1	correct	0.966083231498487
88269	1	stim015_animate_aquatic_shark_3.png	15	animate	aquatic	shark	3	0	3	boats	1	correct	0.966083231498487
88319	1	stim091_animate_mammal_kangaroo_3.png	91	animate	mammal	kangaroo	3	0	3	boats	1	correct	0.966083231498487
88369	1	stim153_inanimate_furniture_sofa_1.png	153	inanimate	furniture	sofa	1	0	3	boats	1	correct	0.966083231498487
88419	1	stim132_inanimate_fruits_grape_4.png	132	inanimate	fruits	grape	4	0	3	boats	1	correct	0.966083231498487
88469	1	stim147_inanimate_furniture_chair_3.png	147	inanimate	furniture	chair	3	0	3	boats	1	correct	0.966083231498487
88519	1	stim102_inanimate_clothing_gloves_2.png	102	inanimate	clothing	gloves	2	0	3	boats	1	correct	0.966083231498487
88569	1	stim052_animate_human_clown_4.png	52	animate	human	clown	4	0	3	boats	1	correct	0.966083231498487
88619	1	stim019_animate_aquatic_shrimp_3.png	19	animate	aquatic	shrimp	3	0	3	boats	1	correct	0.966083231498487
88669	1	stim012_animate_aquatic_seahorse_4.png	12	animate	aquatic	seahorse	4	0	3	boats	1	correct	0.966083231498487
88719	1	stim137_inanimate_fruits_strawberry_1.png	137	inanimate	fruits	strawberry	1	0	3	boats	1	correct	0.966083231498487
88769	1	stim142_inanimate_furniture_bed_2.png	142	inanimate	furniture	bed	2	0	3	boats	1	correct	0.966083231498487
88819	1	stim152_inanimate_furniture_closet_4.png	152	inanimate	furniture	closet	4	0	3	boats	1	correct	0.966083231498487
88869	1	stim143_inanimate_furniture_bed_3.png	143	inanimate	furniture	bed	3	0	3	boats	1	correct	0.966083231498487
88919	1	stim114_inanimate_clothing_shirt_2.png	114	inanimate	clothing	shirt	2	0	3	boats	1	correct	0.966083231498487
88969	1	stim094_animate_mammal_monkey_2.png	94	animate	mammal	monkey	2	0	3	boats	1	correct	0.966083231498487
89019	1	stim058_animate_human_sports_2.png	58	animate	human	sports	2	0	3	boats	1	correct	0.966083231498487
89069	1	stim146_inanimate_furniture_chair_2.png	146	inanimate	furniture	chair	2	0	3	boats	1	correct	0.966083231498487
89119	1	stim141_inanimate_furniture_bed_1.png	141	inanimate	furniture	bed	1	0	3	boats	1	correct	0.966083231498487
89169	1	stim130_inanimate_fruits_grape_2.png	130	inanimate	fruits	grape	2	0	3	boats	1	correct	0.966083231498487
89219	1	stim172_inanimate_plants_sunflower_4.png	172	inanimate	plants	sunflower	4	0	3	boats	1	correct	0.966083231498487
89269	1	stim050_animate_human_clown_2.png	50	animate	human	clown	2	0	3	boats	1	correct	0.966083231498487
89319	1	stim135_inanimate_fruits_pineapple_3.png	135	inanimate	fruits	pineapple	3	0	3	boats	1	correct	0.966083231498487
89369	1	stim036_animate_bird_peacock_4.png	36	animate	bird	peacock	4	0	3	boats	1	correct	0.966083231498487
89419	1	stim055_animate_human_faces_3.png	55	animate	human	faces	3	0	3	boats	1	correct	0.966083231498487
89469	1	stim113_inanimate_clothing_shirt_1.png	113	inanimate	clothing	shirt	1	0	3	boats	1	correct	0.966083231498487
89519	1	stim126_inanimate_fruits_banana_2.png	126	inanimate	fruits	banana	2	0	3	boats	1	correct	0.966083231498487
89569	1	stim173_inanimate_plants_tree_1.png	173	inanimate	plants	tree	1	0	3	boats	1	correct	0.966083231498487
89619	1	stim120_inanimate_clothing_socks_4.png	120	inanimate	clothing	socks	4	0	3	boats	1	correct	0.966083231498487
89669	1	stim025_animate_bird_duck_1.png	25	animate	bird	duck	1	0	3	boats	1	correct	0.966083231498487
89719	1	stim180_inanimate_plants_tulip_4.png	180	inanimate	plants	tulip	4	0	3	boats	1	correct	0.966083231498487
89769	1	stim075_animate_insect_dragonfly_3.png	75	animate	insect	dragonfly	3	0	3	boats	1	correct	0.966083231498487
89819	1	stim197_inanimate_tools_wrench_1.png	197	inanimate	tools	wrench	1	0	3	boats	1	correct	0.966083231498487
89869	1	stim144_inanimate_furniture_bed_4.png	144	inanimate	furniture	bed	4	0	3	boats	1	correct	0.966083231498487
89919	1	stim039_animate_bird_penguin_3.png	39	animate	bird	penguin	3	0	3	boats	1	correct	0.966083231498487
89969	1	stim033_animate_bird_peacock_1.png	33	animate	bird	peacock	1	0	3	boats	1	correct	0.966083231498487
90019	1	stim104_inanimate_clothing_gloves_4.png	104	inanimate	clothing	gloves	4	0	3	boats	1	correct	0.966083231498487
90069	1	stim199_inanimate_tools_wrench_3.png	199	inanimate	tools	wrench	3	0	3	boats	1	correct	0.966083231498487
90119	1	stim027_animate_bird_duck_3.png	27	animate	bird	duck	3	0	3	boats	1	correct	0.966083231498487
90169	1	stim151_inanimate_furniture_closet_3.png	151	inanimate	furniture	closet	3	0	3	boats	1	correct	0.966083231498487
90219	1	stim162_inanimate_plants_bush_2.png	162	inanimate	plants	bush	2	0	3	boats	1	correct	0.966083231498487
90269	1	stim140_inanimate_fruits_strawberry_4.png	140	inanimate	fruits	strawberry	4	0	3	boats	1	correct	0.966083231498487
90319	1	stim008_animate_aquatic_fish_4.png	8	animate	aquatic	fish	4	0	3	boats	1	correct	0.966083231498487
90369	1	stim165_inanimate_plants_cactus_1.png	165	inanimate	plants	cactus	1	0	3	boats	1	correct	0.966083231498487
90419	1	stim108_inanimate_clothing_hat_4.png	108	inanimate	clothing	hat	4	0	3	boats	1	correct	0.966083231498487
90469	1	stim076_animate_insect_dragonfly_4.png	76	animate	insect	dragonfly	4	0	3	boats	1	correct	0.966083231498487
90519	1	stim179_inanimate_plants_tulip_3.png	179	inanimate	plants	tulip	3	0	3	boats	1	correct	0.966083231498487
90569	1	stim125_inanimate_fruits_banana_1.png	125	inanimate	fruits	banana	1	0	3	boats	1	correct	0.966083231498487
90619	1	stim174_inanimate_plants_tree_2.png	174	inanimate	plants	tree	2	0	3	boats	1	correct	0.966083231498487
90669	1	stim073_animate_insect_dragonfly_1.png	73	animate	insect	dragonfly	1	0	3	boats	1	correct	0.966083231498487
90719	1	stim023_animate_bird_chicken_3.png	23	animate	bird	chicken	3	0	3	boats	1	correct	0.966083231498487
90769	1	stim117_inanimate_clothing_socks_1.png	117	inanimate	clothing	socks	1	0	3	boats	1	correct	0.966083231498487
90819	1	stim010_animate_aquatic_seahorse_2.png	10	animate	aquatic	seahorse	2	0	3	boats	1	correct	0.966083231498487
90869	1	stim090_animate_mammal_kangaroo_2.png	90	animate	mammal	kangaroo	2	0	3	boats	1	correct	0.966083231498487
90919	1	stim188_inanimate_tools_hammer_4.png	188	inanimate	tools	hammer	4	0	3	boats	1	correct	0.966083231498487
90969	1	stim149_inanimate_furniture_closet_1.png	149	inanimate	furniture	closet	1	0	3	boats	1	correct	0.966083231498487
91019	1	stim032_animate_bird_parrot_4.png	32	animate	bird	parrot	4	0	3	boats	1	correct	0.966083231498487
91069	1	stim089_animate_mammal_kangaroo_1.png	89	animate	mammal	kangaroo	1	0	3	boats	1	correct	0.966083231498487
91119	1	stim133_inanimate_fruits_pineapple_1.png	133	inanimate	fruits	pineapple	1	0	3	boats	1	correct	0.966083231498487
91169	1	stim059_animate_human_sports_3.png	59	animate	human	sports	3	0	3	boats	1	correct	0.966083231498487
91219	1	stim016_animate_aquatic_shark_4.png	16	animate	aquatic	shark	4	0	3	boats	1	correct	0.966083231498487
91269	1	stim178_inanimate_plants_tulip_2.png	178	inanimate	plants	tulip	2	0	3	boats	1	correct	0.966083231498487
91319	1	stim081_animate_mammal_cow_1.png	81	animate	mammal	cow	1	0	3	boats	1	correct	0.966083231498487
91369	1	stim131_inanimate_fruits_grape_3.png	131	inanimate	fruits	grape	3	0	3	boats	1	correct	0.966083231498487
91419	1	stim148_inanimate_furniture_chair_4.png	148	inanimate	furniture	chair	4	0	3	boats	1	correct	0.966083231498487
91469	1	stim168_inanimate_plants_cactus_4.png	168	inanimate	plants	cactus	4	0	3	boats	1	correct	0.966083231498487
91519	1	stim166_inanimate_plants_cactus_2.png	166	inanimate	plants	cactus	2	0	3	boats	1	correct	0.966083231498487
91569	1	stim049_animate_human_clown_1.png	49	animate	human	clown	1	0	3	boats	1	correct	0.966083231498487
91619	1	stim175_inanimate_plants_tree_3.png	175	inanimate	plants	tree	3	0	3	boats	1	correct	0.966083231498487
91669	1	stim020_animate_aquatic_shrimp_4.png	20	animate	aquatic	shrimp	4	0	3	boats	1	correct	0.966083231498487
91719	1	stim158_inanimate_furniture_table_2.png	158	inanimate	furniture	table	2	0	3	boats	1	correct	0.966083231498487
91769	1	stim057_animate_human_sports_1.png	57	animate	human	sports	1	0	3	boats	1	correct	0.966083231498487
91819	1	stim084_animate_mammal_cow_4.png	84	animate	mammal	cow	4	0	3	boats	1	correct	0.966083231498487
91869	1	stim068_animate_insect_bug_4.png	68	animate	insect	bug	4	0	3	boats	1	correct	0.966083231498487
91919	1	stim154_inanimate_furniture_sofa_2.png	154	inanimate	furniture	sofa	2	0	3	boats	1	correct	0.966083231498487
91969	1	stim038_animate_bird_penguin_2.png	38	animate	bird	penguin	2	0	3	boats	1	correct	0.966083231498487
92019	1	stim030_animate_bird_parrot_2.png	30	animate	bird	parrot	2	0	3	boats	1	correct	0.966083231498487
92069	1	stim119_inanimate_clothing_socks_3.png	119	inanimate	clothing	socks	3	0	3	boats	1	correct	0.966083231498487
92119	1	stim011_animate_aquatic_seahorse_3.png	11	animate	aquatic	seahorse	3	0	3	boats	1	correct	0.966083231498487
92169	1	stim164_inanimate_plants_bush_4.png	164	inanimate	plants	bush	4	0	3	boats	1	correct	0.966083231498487
92219	1	stim063_animate_insect_ant_3.png	63	animate	insect	ant	3	0	3	boats	1	correct	0.966083231498487
92269	1	stim082_animate_mammal_cow_2.png	82	animate	mammal	cow	2	0	3	boats	1	correct	0.966083231498487
92319	1	stim007_animate_aquatic_fish_3.png	7	animate	aquatic	fish	3	0	3	boats	1	correct	0.966083231498487
92369	1	stim193_inanimate_tools_scissors_1.png	193	inanimate	tools	scissors	1	0	3	boats	1	correct	0.966083231498487
92419	1	stim043_animate_human_baby_3.png	43	animate	human	baby	3	0	3	boats	1	correct	0.966083231498487
92469	1	stim044_animate_human_baby_4.png	44	animate	human	baby	4	0	3	boats	1	correct	0.966083231498487
92519	1	stim124_inanimate_fruits_apple_4.png	124	inanimate	fruits	apple	4	0	3	boats	1	correct	0.966083231498487
92569	1	stim060_animate_human_sports_4.png	60	animate	human	sports	4	0	3	boats	1	correct	0.966083231498487
92619	1	stim014_animate_aquatic_shark_2.png	14	animate	aquatic	shark	2	0	3	boats	1	correct	0.966083231498487
92669	1	stim034_animate_bird_peacock_2.png	34	animate	bird	peacock	2	0	3	boats	1	correct	0.966083231498487
92719	1	stim071_animate_insect_butterfly_3.png	71	animate	insect	butterfly	3	0	3	boats	1	correct	0.966083231498487
92769	1	stim171_inanimate_plants_sunflower_3.png	171	inanimate	plants	sunflower	3	0	3	boats	1	correct	0.966083231498487
92819	1	stim042_animate_human_baby_2.png	42	animate	human	baby	2	0	3	boats	1	correct	0.966083231498487
92869	1	stim028_animate_bird_duck_4.png	28	animate	bird	duck	4	0	3	boats	1	correct	0.966083231498487
92919	1	stim176_inanimate_plants_tree_4.png	176	inanimate	plants	tree	4	0	3	boats	1	correct	0.966083231498487
92969	1	stim087_animate_mammal_giraffe_3.png	87	animate	mammal	giraffe	3	0	3	boats	1	correct	0.966083231498487
93019	1	stim009_animate_aquatic_seahorse_1.png	9	animate	aquatic	seahorse	1	0	3	boats	1	correct	0.966083231498487
93069	1	stim129_inanimate_fruits_grape_1.png	129	inanimate	fruits	grape	1	0	3	boats	1	correct	0.966083231498487
93119	1	stim065_animate_insect_bug_1.png	65	animate	insect	bug	1	0	3	boats	1	correct	0.966083231498487
93169	1	stim098_animate_mammal_rhino_2.png	98	animate	mammal	rhino	2	0	3	boats	1	correct	0.966083231498487
93219	1	stim167_inanimate_plants_cactus_3.png	167	inanimate	plants	cactus	3	0	3	boats	1	correct	0.966083231498487
96252	1	stim173_inanimate_plants_tree_1.png	173	inanimate	plants	tree	1	0	4	boats	2	incorrect	1.72159197577275
96302	1	stim141_inanimate_furniture_bed_1.png	141	inanimate	furniture	bed	1	0	4	boats	2	incorrect	1.72159197577275
96352	1	stim003_animate_aquatic_crab_3.png	3	animate	aquatic	crab	3	0	4	boats	2	incorrect	1.72159197577275
96402	1	stim088_animate_mammal_giraffe_4.png	88	animate	mammal	giraffe	4	0	4	boats	2	incorrect	1.72159197577275
96452	1	stim089_animate_mammal_kangaroo_1.png	89	animate	mammal	kangaroo	1	0	4	boats	2	incorrect	1.72159197577275
96502	1	stim025_animate_bird_duck_1.png	25	animate	bird	duck	1	0	4	boats	2	incorrect	1.72159197577275
96552	1	stim111_inanimate_clothing_jeans_3.png	111	inanimate	clothing	jeans	3	0	4	boats	2	incorrect	1.72159197577275
96602	1	stim034_animate_bird_peacock_2.png	34	animate	bird	peacock	2	0	4	boats	2	incorrect	1.72159197577275
96652	1	stim095_animate_mammal_monkey_3.png	95	animate	mammal	monkey	3	0	4	boats	2	incorrect	1.72159197577275
96702	1	stim110_inanimate_clothing_jeans_2.png	110	inanimate	clothing	jeans	2	0	4	boats	2	incorrect	1.72159197577275
96752	1	stim148_inanimate_furniture_chair_4.png	148	inanimate	furniture	chair	4	0	4	boats	2	incorrect	1.72159197577275
96802	1	stim030_animate_bird_parrot_2.png	30	animate	bird	parrot	2	0	4	boats	2	incorrect	1.72159197577275
96852	1	stim020_animate_aquatic_shrimp_4.png	20	animate	aquatic	shrimp	4	0	4	boats	2	incorrect	1.72159197577275
96902	1	stim045_animate_human_child_1.png	45	animate	human	child	1	0	4	boats	2	incorrect	1.72159197577275
96952	1	stim070_animate_insect_butterfly_2.png	70	animate	insect	butterfly	2	0	4	boats	2	incorrect	1.72159197577275
97002	1	stim154_inanimate_furniture_sofa_2.png	154	inanimate	furniture	sofa	2	0	4	boats	2	incorrect	1.72159197577275
97052	1	stim016_animate_aquatic_shark_4.png	16	animate	aquatic	shark	4	0	4	boats	2	incorrect	1.72159197577275
97102	1	stim059_animate_human_sports_3.png	59	animate	human	sports	3	0	4	boats	2	incorrect	1.72159197577275
97152	1	stim021_animate_bird_chicken_1.png	21	animate	bird	chicken	1	0	4	boats	2	incorrect	1.72159197577275
97202	1	stim135_inanimate_fruits_pineapple_3.png	135	inanimate	fruits	pineapple	3	0	4	boats	2	incorrect	1.72159197577275
97252	1	stim197_inanimate_tools_wrench_1.png	197	inanimate	tools	wrench	1	0	4	boats	2	incorrect	1.72159197577275
97302	1	stim085_animate_mammal_giraffe_1.png	85	animate	mammal	giraffe	1	0	4	boats	2	incorrect	1.72159197577275
97352	1	stim079_animate_insect_grasshopper_3.png	79	animate	insect	grasshopper	3	0	4	boats	2	incorrect	1.72159197577275
97402	1	stim137_inanimate_fruits_strawberry_1.png	137	inanimate	fruits	strawberry	1	0	4	boats	2	incorrect	1.72159197577275
97452	1	stim046_animate_human_child_2.png	46	animate	human	child	2	0	4	boats	2	incorrect	1.72159197577275
97502	1	stim069_animate_insect_butterfly_1.png	69	animate	insect	butterfly	1	0	4	boats	2	incorrect	1.72159197577275
97552	1	stim182_inanimate_tools_broom_2.png	182	inanimate	tools	broom	2	0	4	boats	2	incorrect	1.72159197577275
97602	1	stim062_animate_insect_ant_2.png	62	animate	insect	ant	2	0	4	boats	2	incorrect	1.72159197577275
97652	1	stim123_inanimate_fruits_apple_3.png	123	inanimate	fruits	apple	3	0	4	boats	2	incorrect	1.72159197577275
97702	1	stim043_animate_human_baby_3.png	43	animate	human	baby	3	0	4	boats	2	incorrect	1.72159197577275
97752	1	stim169_inanimate_plants_sunflower_1.png	169	inanimate	plants	sunflower	1	0	4	boats	2	incorrect	1.72159197577275
97802	1	stim155_inanimate_furniture_sofa_3.png	155	inanimate	furniture	sofa	3	0	4	boats	2	incorrect	1.72159197577275
97852	1	stim042_animate_human_baby_2.png	42	animate	human	baby	2	0	4	boats	2	incorrect	1.72159197577275
97902	1	stim175_inanimate_plants_tree_3.png	175	inanimate	plants	tree	3	0	4	boats	2	incorrect	1.72159197577275
97952	1	stim053_animate_human_faces_1.png	53	animate	human	faces	1	0	4	boats	2	incorrect	1.72159197577275
98002	1	stim196_inanimate_tools_scissors_4.png	196	inanimate	tools	scissors	4	0	4	boats	2	incorrect	1.72159197577275
98052	1	stim119_inanimate_clothing_socks_3.png	119	inanimate	clothing	socks	3	0	4	boats	2	incorrect	1.72159197577275
98102	1	stim189_inanimate_tools_pan_1.png	189	inanimate	tools	pan	1	0	4	boats	2	incorrect	1.72159197577275
98152	1	stim032_animate_bird_parrot_4.png	32	animate	bird	parrot	4	0	4	boats	2	incorrect	1.72159197577275
98202	1	stim083_animate_mammal_cow_3.png	83	animate	mammal	cow	3	0	4	boats	2	incorrect	1.72159197577275
98252	1	stim143_inanimate_furniture_bed_3.png	143	inanimate	furniture	bed	3	0	4	boats	2	incorrect	1.72159197577275
98302	1	stim176_inanimate_plants_tree_4.png	176	inanimate	plants	tree	4	0	4	boats	2	incorrect	1.72159197577275
98352	1	stim011_animate_aquatic_seahorse_3.png	11	animate	aquatic	seahorse	3	0	4	boats	2	incorrect	1.72159197577275
98402	1	stim067_animate_insect_bug_3.png	67	animate	insect	bug	3	0	4	boats	2	incorrect	1.72159197577275
98452	1	stim086_animate_mammal_giraffe_2.png	86	animate	mammal	giraffe	2	0	4	boats	2	incorrect	1.72159197577275
98502	1	stim140_inanimate_fruits_strawberry_4.png	140	inanimate	fruits	strawberry	4	0	4	boats	2	incorrect	1.72159197577275
98552	1	stim134_inanimate_fruits_pineapple_2.png	134	inanimate	fruits	pineapple	2	0	4	boats	2	incorrect	1.72159197577275
98602	1	stim073_animate_insect_dragonfly_1.png	73	animate	insect	dragonfly	1	0	4	boats	2	incorrect	1.72159197577275
98652	1	stim049_animate_human_clown_1.png	49	animate	human	clown	1	0	4	boats	2	incorrect	1.72159197577275
98702	1	stim142_inanimate_furniture_bed_2.png	142	inanimate	furniture	bed	2	0	4	boats	2	incorrect	1.72159197577275
98752	1	stim174_inanimate_plants_tree_2.png	174	inanimate	plants	tree	2	0	4	boats	2	incorrect	1.72159197577275
98802	1	stim185_inanimate_tools_hammer_1.png	185	inanimate	tools	hammer	1	0	4	boats	2	incorrect	1.72159197577275
98852	1	stim039_animate_bird_penguin_3.png	39	animate	bird	penguin	3	0	4	boats	2	incorrect	1.72159197577275
98902	1	stim167_inanimate_plants_cactus_3.png	167	inanimate	plants	cactus	3	0	4	boats	2	incorrect	1.72159197577275
98952	1	stim183_inanimate_tools_broom_3.png	183	inanimate	tools	broom	3	0	4	boats	2	incorrect	1.72159197577275
99002	1	stim056_animate_human_faces_4.png	56	animate	human	faces	4	0	4	boats	2	incorrect	1.72159197577275
99052	1	stim047_animate_human_child_3.png	47	animate	human	child	3	0	4	boats	2	incorrect	1.72159197577275
99102	1	stim180_inanimate_plants_tulip_4.png	180	inanimate	plants	tulip	4	0	4	boats	2	incorrect	1.72159197577275
99152	1	stim156_inanimate_furniture_sofa_4.png	156	inanimate	furniture	sofa	4	0	4	boats	2	incorrect	1.72159197577275
99202	1	stim160_inanimate_furniture_table_4.png	160	inanimate	furniture	table	4	0	4	boats	2	incorrect	1.72159197577275
99252	1	stim147_inanimate_furniture_chair_3.png	147	inanimate	furniture	chair	3	0	4	boats	2	incorrect	1.72159197577275
99302	1	stim164_inanimate_plants_bush_4.png	164	inanimate	plants	bush	4	0	4	boats	2	incorrect	1.72159197577275
99352	1	stim028_animate_bird_duck_4.png	28	animate	bird	duck	4	0	4	boats	2	incorrect	1.72159197577275
99403	1	stim118_inanimate_clothing_socks_2.png	118	inanimate	clothing	socks	2	0	4	boats	2	incorrect	1.72159197577275
99452	1	stim084_animate_mammal_cow_4.png	84	animate	mammal	cow	4	0	4	boats	2	incorrect	1.72159197577275
99502	1	stim068_animate_insect_bug_4.png	68	animate	insect	bug	4	0	4	boats	2	incorrect	1.72159197577275
99552	1	stim001_animate_aquatic_crab_1.png	1	animate	aquatic	crab	1	0	4	boats	2	incorrect	1.72159197577275
99602	1	stim158_inanimate_furniture_table_2.png	158	inanimate	furniture	table	2	0	4	boats	2	incorrect	1.72159197577275
99652	1	stim124_inanimate_fruits_apple_4.png	124	inanimate	fruits	apple	4	0	4	boats	2	incorrect	1.72159197577275
99702	1	stim100_animate_mammal_rhino_4.png	100	animate	mammal	rhino	4	0	4	boats	2	incorrect	1.72159197577275
99752	1	stim109_inanimate_clothing_jeans_1.png	109	inanimate	clothing	jeans	1	0	4	boats	2	incorrect	1.72159197577275
99802	1	stim159_inanimate_furniture_table_3.png	159	inanimate	furniture	table	3	0	4	boats	2	incorrect	1.72159197577275
99852	1	stim105_inanimate_clothing_hat_1.png	105	inanimate	clothing	hat	1	0	4	boats	2	incorrect	1.72159197577275
99902	1	stim019_animate_aquatic_shrimp_3.png	19	animate	aquatic	shrimp	3	0	4	boats	2	incorrect	1.72159197577275
99952	1	stim126_inanimate_fruits_banana_2.png	126	inanimate	fruits	banana	2	0	4	boats	2	incorrect	1.72159197577275
100002	1	stim102_inanimate_clothing_gloves_2.png	102	inanimate	clothing	gloves	2	0	4	boats	2	incorrect	1.72159197577275
100052	1	stim036_animate_bird_peacock_4.png	36	animate	bird	peacock	4	0	4	boats	2	incorrect	1.72159197577275
100102	1	stim090_animate_mammal_kangaroo_2.png	90	animate	mammal	kangaroo	2	0	4	boats	2	incorrect	1.72159197577275
100152	1	stim200_inanimate_tools_wrench_4.png	200	inanimate	tools	wrench	4	0	4	boats	2	incorrect	1.72159197577275
100202	1	stim150_inanimate_furniture_closet_2.png	150	inanimate	furniture	closet	2	0	4	boats	2	incorrect	1.72159197577275
100252	1	stim107_inanimate_clothing_hat_3.png	107	inanimate	clothing	hat	3	0	4	boats	2	incorrect	1.72159197577275
100302	1	stim199_inanimate_tools_wrench_3.png	199	inanimate	tools	wrench	3	0	4	boats	2	incorrect	1.72159197577275
100352	1	stim092_animate_mammal_kangaroo_4.png	92	animate	mammal	kangaroo	4	0	4	boats	2	incorrect	1.72159197577275
100402	1	stim114_inanimate_clothing_shirt_2.png	114	inanimate	clothing	shirt	2	0	4	boats	2	incorrect	1.72159197577275
100452	1	stim113_inanimate_clothing_shirt_1.png	113	inanimate	clothing	shirt	1	0	4	boats	2	incorrect	1.72159197577275
100502	1	stim178_inanimate_plants_tulip_2.png	178	inanimate	plants	tulip	2	0	4	boats	2	incorrect	1.72159197577275
100552	1	stim054_animate_human_faces_2.png	54	animate	human	faces	2	0	4	boats	2	incorrect	1.72159197577275
100602	1	stim139_inanimate_fruits_strawberry_3.png	139	inanimate	fruits	strawberry	3	0	4	boats	2	incorrect	1.72159197577275
100652	1	stim127_inanimate_fruits_banana_3.png	127	inanimate	fruits	banana	3	0	4	boats	2	incorrect	1.72159197577275
100702	1	stim024_animate_bird_chicken_4.png	24	animate	bird	chicken	4	0	4	boats	2	incorrect	1.72159197577275
100752	1	stim081_animate_mammal_cow_1.png	81	animate	mammal	cow	1	0	4	boats	2	incorrect	1.72159197577275
100802	1	stim008_animate_aquatic_fish_4.png	8	animate	aquatic	fish	4	0	4	boats	2	incorrect	1.72159197577275
100852	1	stim018_animate_aquatic_shrimp_2.png	18	animate	aquatic	shrimp	2	0	4	boats	2	incorrect	1.72159197577275
100902	1	stim162_inanimate_plants_bush_2.png	162	inanimate	plants	bush	2	0	4	boats	2	incorrect	1.72159197577275
100952	1	stim190_inanimate_tools_pan_2.png	190	inanimate	tools	pan	2	0	4	boats	2	incorrect	1.72159197577275
101003	1	stim129_inanimate_fruits_grape_1.png	129	inanimate	fruits	grape	1	0	4	boats	2	incorrect	1.72159197577275
101053	1	stim195_inanimate_tools_scissors_3.png	195	inanimate	tools	scissors	3	0	4	boats	2	incorrect	1.72159197577275
101103	1	stim177_inanimate_plants_tulip_1.png	177	inanimate	plants	tulip	1	0	4	boats	2	incorrect	1.72159197577275
101153	1	stim097_animate_mammal_rhino_1.png	97	animate	mammal	rhino	1	0	4	boats	2	incorrect	1.72159197577275
101203	1	stim104_inanimate_clothing_gloves_4.png	104	inanimate	clothing	gloves	4	0	4	boats	2	incorrect	1.72159197577275
101253	1	stim149_inanimate_furniture_closet_1.png	149	inanimate	furniture	closet	1	0	4	boats	2	incorrect	1.72159197577275
101302	1	stim181_inanimate_tools_broom_1.png	181	inanimate	tools	broom	1	0	4	boats	2	incorrect	1.72159197577275
101353	1	stim184_inanimate_tools_broom_4.png	184	inanimate	tools	broom	4	0	4	boats	2	incorrect	1.72159197577275
101402	1	stim136_inanimate_fruits_pineapple_4.png	136	inanimate	fruits	pineapple	4	0	4	boats	2	incorrect	1.72159197577275
101453	1	stim117_inanimate_clothing_socks_1.png	117	inanimate	clothing	socks	1	0	4	boats	2	incorrect	1.72159197577275
101503	1	stim082_animate_mammal_cow_2.png	82	animate	mammal	cow	2	0	4	boats	2	incorrect	1.72159197577275
101552	1	stim208_targets_object_boats_4.png	208	targets	object	boats	4	1	4	boats	2	incorrect	1.72159197577275
101603	1	stim121_inanimate_fruits_apple_1.png	121	inanimate	fruits	apple	1	0	4	boats	2	incorrect	1.72159197577275
101653	1	stim170_inanimate_plants_sunflower_2.png	170	inanimate	plants	sunflower	2	0	4	boats	2	incorrect	1.72159197577275
101703	1	stim094_animate_mammal_monkey_2.png	94	animate	mammal	monkey	2	0	4	boats	2	incorrect	1.72159197577275
101753	1	stim076_animate_insect_dragonfly_4.png	76	animate	insect	dragonfly	4	0	4	boats	2	incorrect	1.72159197577275
101803	1	stim023_animate_bird_chicken_3.png	23	animate	bird	chicken	3	0	4	boats	2	incorrect	1.72159197577275
101853	1	stim125_inanimate_fruits_banana_1.png	125	inanimate	fruits	banana	1	0	4	boats	2	incorrect	1.72159197577275
101903	1	stim044_animate_human_baby_4.png	44	animate	human	baby	4	0	4	boats	2	incorrect	1.72159197577275
101953	1	stim002_animate_aquatic_crab_2.png	2	animate	aquatic	crab	2	0	4	boats	2	incorrect	1.72159197577275
102003	1	stim087_animate_mammal_giraffe_3.png	87	animate	mammal	giraffe	3	0	4	boats	2	incorrect	1.72159197577275
102053	1	stim078_animate_insect_grasshopper_2.png	78	animate	insect	grasshopper	2	0	4	boats	2	incorrect	1.72159197577275
102103	1	stim055_animate_human_faces_3.png	55	animate	human	faces	3	0	4	boats	2	incorrect	1.72159197577275
102153	1	stim091_animate_mammal_kangaroo_3.png	91	animate	mammal	kangaroo	3	0	4	boats	2	incorrect	1.72159197577275
102202	1	stim198_inanimate_tools_wrench_2.png	198	inanimate	tools	wrench	2	0	4	boats	2	incorrect	1.72159197577275
102253	1	stim080_animate_insect_grasshopper_4.png	80	animate	insect	grasshopper	4	0	4	boats	2	incorrect	1.72159197577275
102302	1	stim009_animate_aquatic_seahorse_1.png	9	animate	aquatic	seahorse	1	0	4	boats	2	incorrect	1.72159197577275
102353	1	stim191_inanimate_tools_pan_3.png	191	inanimate	tools	pan	3	0	4	boats	2	incorrect	1.72159197577275
102403	1	stim120_inanimate_clothing_socks_4.png	120	inanimate	clothing	socks	4	0	4	boats	2	incorrect	1.72159197577275
102452	1	stim051_animate_human_clown_3.png	51	animate	human	clown	3	0	4	boats	2	incorrect	1.72159197577275
102503	1	stim122_inanimate_fruits_apple_2.png	122	inanimate	fruits	apple	2	0	4	boats	2	incorrect	1.72159197577275
102553	1	stim048_animate_human_child_4.png	48	animate	human	child	4	0	4	boats	2	incorrect	1.72159197577275
102603	1	stim152_inanimate_furniture_closet_4.png	152	inanimate	furniture	closet	4	0	4	boats	2	incorrect	1.72159197577275
102653	1	stim157_inanimate_furniture_table_1.png	157	inanimate	furniture	table	1	0	4	boats	2	incorrect	1.72159197577275
102703	1	stim101_inanimate_clothing_gloves_1.png	101	inanimate	clothing	gloves	1	0	4	boats	2	incorrect	1.72159197577275
102753	1	stim058_animate_human_sports_2.png	58	animate	human	sports	2	0	4	boats	2	incorrect	1.72159197577275
102803	1	stim052_animate_human_clown_4.png	52	animate	human	clown	4	0	4	boats	2	incorrect	1.72159197577275
102853	1	stim103_inanimate_clothing_gloves_3.png	103	inanimate	clothing	gloves	3	0	4	boats	2	incorrect	1.72159197577275
102903	1	stim037_animate_bird_penguin_1.png	37	animate	bird	penguin	1	0	4	boats	2	incorrect	1.72159197577275
102953	1	stim031_animate_bird_parrot_3.png	31	animate	bird	parrot	3	0	4	boats	2	incorrect	1.72159197577275
103003	1	stim138_inanimate_fruits_strawberry_2.png	138	inanimate	fruits	strawberry	2	0	4	boats	2	incorrect	1.72159197577275
103053	1	stim163_inanimate_plants_bush_3.png	163	inanimate	plants	bush	3	0	4	boats	2	incorrect	1.72159197577275
103103	1	stim188_inanimate_tools_hammer_4.png	188	inanimate	tools	hammer	4	0	4	boats	2	incorrect	1.72159197577275
103153	1	stim099_animate_mammal_rhino_3.png	99	animate	mammal	rhino	3	0	4	boats	2	incorrect	1.72159197577275
103203	1	stim063_animate_insect_ant_3.png	63	animate	insect	ant	3	0	4	boats	2	incorrect	1.72159197577275
103253	1	stim027_animate_bird_duck_3.png	27	animate	bird	duck	3	0	4	boats	2	incorrect	1.72159197577275
103303	1	stim187_inanimate_tools_hammer_3.png	187	inanimate	tools	hammer	3	0	4	boats	2	incorrect	1.72159197577275
103353	1	stim035_animate_bird_peacock_3.png	35	animate	bird	peacock	3	0	4	boats	2	incorrect	1.72159197577275
103403	1	stim194_inanimate_tools_scissors_2.png	194	inanimate	tools	scissors	2	0	4	boats	2	incorrect	1.72159197577275
103453	1	stim033_animate_bird_peacock_1.png	33	animate	bird	peacock	1	0	4	boats	2	incorrect	1.72159197577275
103503	1	stim133_inanimate_fruits_pineapple_1.png	133	inanimate	fruits	pineapple	1	0	4	boats	2	incorrect	1.72159197577275
103553	1	stim168_inanimate_plants_cactus_4.png	168	inanimate	plants	cactus	4	0	4	boats	2	incorrect	1.72159197577275
103603	1	stim116_inanimate_clothing_shirt_4.png	116	inanimate	clothing	shirt	4	0	4	boats	2	incorrect	1.72159197577275
103653	1	stim098_animate_mammal_rhino_2.png	98	animate	mammal	rhino	2	0	4	boats	2	incorrect	1.72159197577275
103703	1	stim007_animate_aquatic_fish_3.png	7	animate	aquatic	fish	3	0	4	boats	2	incorrect	1.72159197577275
103753	1	stim132_inanimate_fruits_grape_4.png	132	inanimate	fruits	grape	4	0	4	boats	2	incorrect	1.72159197577275
103803	1	stim004_animate_aquatic_crab_4.png	4	animate	aquatic	crab	4	0	4	boats	2	incorrect	1.72159197577275
103853	1	stim013_animate_aquatic_shark_1.png	13	animate	aquatic	shark	1	0	4	boats	2	incorrect	1.72159197577275
103903	1	stim106_inanimate_clothing_hat_2.png	106	inanimate	clothing	hat	2	0	4	boats	2	incorrect	1.72159197577275
103953	1	stim005_animate_aquatic_fish_1.png	5	animate	aquatic	fish	1	0	4	boats	2	incorrect	1.72159197577275
104003	1	stim128_inanimate_fruits_banana_4.png	128	inanimate	fruits	banana	4	0	4	boats	2	incorrect	1.72159197577275
104053	1	stim022_animate_bird_chicken_2.png	22	animate	bird	chicken	2	0	4	boats	2	incorrect	1.72159197577275
104103	1	stim179_inanimate_plants_tulip_3.png	179	inanimate	plants	tulip	3	0	4	boats	2	incorrect	1.72159197577275
104153	1	stim130_inanimate_fruits_grape_2.png	130	inanimate	fruits	grape	2	0	4	boats	2	incorrect	1.72159197577275
104203	1	stim050_animate_human_clown_2.png	50	animate	human	clown	2	0	4	boats	2	incorrect	1.72159197577275
104253	1	stim171_inanimate_plants_sunflower_3.png	171	inanimate	plants	sunflower	3	0	4	boats	2	incorrect	1.72159197577275
104303	1	stim161_inanimate_plants_bush_1.png	161	inanimate	plants	bush	1	0	4	boats	2	incorrect	1.72159197577275
104353	1	stim057_animate_human_sports_1.png	57	animate	human	sports	1	0	4	boats	2	incorrect	1.72159197577275
104403	1	stim115_inanimate_clothing_shirt_3.png	115	inanimate	clothing	shirt	3	0	4	boats	2	incorrect	1.72159197577275
104453	1	stim108_inanimate_clothing_hat_4.png	108	inanimate	clothing	hat	4	0	4	boats	2	incorrect	1.72159197577275
104503	1	stim006_animate_aquatic_fish_2.png	6	animate	aquatic	fish	2	0	4	boats	2	incorrect	1.72159197577275
104553	1	stim186_inanimate_tools_hammer_2.png	186	inanimate	tools	hammer	2	0	4	boats	2	incorrect	1.72159197577275
104603	1	stim041_animate_human_baby_1.png	41	animate	human	baby	1	0	4	boats	2	incorrect	1.72159197577275
104653	1	stim192_inanimate_tools_pan_4.png	192	inanimate	tools	pan	4	0	4	boats	2	incorrect	1.72159197577275
104703	1	stim145_inanimate_furniture_chair_1.png	145	inanimate	furniture	chair	1	0	4	boats	2	incorrect	1.72159197577275
104753	1	stim144_inanimate_furniture_bed_4.png	144	inanimate	furniture	bed	4	0	4	boats	2	incorrect	1.72159197577275
104803	1	stim151_inanimate_furniture_closet_3.png	151	inanimate	furniture	closet	3	0	4	boats	2	incorrect	1.72159197577275
104853	1	stim075_animate_insect_dragonfly_3.png	75	animate	insect	dragonfly	3	0	4	boats	2	incorrect	1.72159197577275
104903	1	stim014_animate_aquatic_shark_2.png	14	animate	aquatic	shark	2	0	4	boats	2	incorrect	1.72159197577275
104953	1	stim038_animate_bird_penguin_2.png	38	animate	bird	penguin	2	0	4	boats	2	incorrect	1.72159197577275
105003	1	stim096_animate_mammal_monkey_4.png	96	animate	mammal	monkey	4	0	4	boats	2	incorrect	1.72159197577275
105053	1	stim066_animate_insect_bug_2.png	66	animate	insect	bug	2	0	4	boats	2	incorrect	1.72159197577275
105103	1	stim112_inanimate_clothing_jeans_4.png	112	inanimate	clothing	jeans	4	0	4	boats	2	incorrect	1.72159197577275
105153	1	stim029_animate_bird_parrot_1.png	29	animate	bird	parrot	1	0	4	boats	2	incorrect	1.72159197577275
105203	1	stim165_inanimate_plants_cactus_1.png	165	inanimate	plants	cactus	1	0	4	boats	2	incorrect	1.72159197577275
105253	1	stim153_inanimate_furniture_sofa_1.png	153	inanimate	furniture	sofa	1	0	4	boats	2	incorrect	1.72159197577275
105303	1	stim071_animate_insect_butterfly_3.png	71	animate	insect	butterfly	3	0	4	boats	2	incorrect	1.72159197577275
105353	1	stim015_animate_aquatic_shark_3.png	15	animate	aquatic	shark	3	0	4	boats	2	incorrect	1.72159197577275
105403	1	stim061_animate_insect_ant_1.png	61	animate	insect	ant	1	0	4	boats	2	incorrect	1.72159197577275
105453	1	stim017_animate_aquatic_shrimp_1.png	17	animate	aquatic	shrimp	1	0	4	boats	2	incorrect	1.72159197577275
105503	1	stim146_inanimate_furniture_chair_2.png	146	inanimate	furniture	chair	2	0	4	boats	2	incorrect	1.72159197577275
105553	1	stim040_animate_bird_penguin_4.png	40	animate	bird	penguin	4	0	4	boats	2	incorrect	1.72159197577275
105603	1	stim172_inanimate_plants_sunflower_4.png	172	inanimate	plants	sunflower	4	0	4	boats	2	incorrect	1.72159197577275
105653	1	stim072_animate_insect_butterfly_4.png	72	animate	insect	butterfly	4	0	4	boats	2	incorrect	1.72159197577275
105703	1	stim026_animate_bird_duck_2.png	26	animate	bird	duck	2	0	4	boats	2	incorrect	1.72159197577275
105753	1	stim077_animate_insect_grasshopper_1.png	77	animate	insect	grasshopper	1	0	4	boats	2	incorrect	1.72159197577275
105803	1	stim012_animate_aquatic_seahorse_4.png	12	animate	aquatic	seahorse	4	0	4	boats	2	incorrect	1.72159197577275
105853	1	stim193_inanimate_tools_scissors_1.png	193	inanimate	tools	scissors	1	0	4	boats	2	incorrect	1.72159197577275
105903	1	stim060_animate_human_sports_4.png	60	animate	human	sports	4	0	4	boats	2	incorrect	1.72159197577275
105953	1	stim010_animate_aquatic_seahorse_2.png	10	animate	aquatic	seahorse	2	0	4	boats	2	incorrect	1.72159197577275
106003	1	stim093_animate_mammal_monkey_1.png	93	animate	mammal	monkey	1	0	4	boats	2	incorrect	1.72159197577275
106053	1	stim065_animate_insect_bug_1.png	65	animate	insect	bug	1	0	4	boats	2	incorrect	1.72159197577275
106103	1	stim131_inanimate_fruits_grape_3.png	131	inanimate	fruits	grape	3	0	4	boats	2	incorrect	1.72159197577275
106153	1	stim166_inanimate_plants_cactus_2.png	166	inanimate	plants	cactus	2	0	4	boats	2	incorrect	1.72159197577275
106203	1	stim064_animate_insect_ant_4.png	64	animate	insect	ant	4	0	4	boats	2	incorrect	1.72159197577275
106253	1	stim074_animate_insect_dragonfly_2.png	74	animate	insect	dragonfly	2	0	4	boats	2	incorrect	1.72159197577275
113186	1	stim063_animate_insect_ant_3.png	63	animate	insect	ant	3	0	5	boats	3	correct	0.740646874182858
113236	1	stim126_inanimate_fruits_banana_2.png	126	inanimate	fruits	banana	2	0	5	boats	3	correct	0.740646874182858
113286	1	stim059_animate_human_sports_3.png	59	animate	human	sports	3	0	5	boats	3	correct	0.740646874182858
113336	1	stim061_animate_insect_ant_1.png	61	animate	insect	ant	1	0	5	boats	3	correct	0.740646874182858
113386	1	stim051_animate_human_clown_3.png	51	animate	human	clown	3	0	5	boats	3	correct	0.740646874182858
113436	1	stim089_animate_mammal_kangaroo_1.png	89	animate	mammal	kangaroo	1	0	5	boats	3	correct	0.740646874182858
113486	1	stim182_inanimate_tools_broom_2.png	182	inanimate	tools	broom	2	0	5	boats	3	correct	0.740646874182858
113536	1	stim140_inanimate_fruits_strawberry_4.png	140	inanimate	fruits	strawberry	4	0	5	boats	3	correct	0.740646874182858
113586	1	stim099_animate_mammal_rhino_3.png	99	animate	mammal	rhino	3	0	5	boats	3	correct	0.740646874182858
113636	1	stim193_inanimate_tools_scissors_1.png	193	inanimate	tools	scissors	1	0	5	boats	3	correct	0.740646874182858
113686	1	stim072_animate_insect_butterfly_4.png	72	animate	insect	butterfly	4	0	5	boats	3	correct	0.740646874182858
113736	1	stim183_inanimate_tools_broom_3.png	183	inanimate	tools	broom	3	0	5	boats	3	correct	0.740646874182858
113786	1	stim055_animate_human_faces_3.png	55	animate	human	faces	3	0	5	boats	3	correct	0.740646874182858
113836	1	stim069_animate_insect_butterfly_1.png	69	animate	insect	butterfly	1	0	5	boats	3	correct	0.740646874182858
113886	1	stim098_animate_mammal_rhino_2.png	98	animate	mammal	rhino	2	0	5	boats	3	correct	0.740646874182858
113936	1	stim046_animate_human_child_2.png	46	animate	human	child	2	0	5	boats	3	correct	0.740646874182858
113986	1	stim173_inanimate_plants_tree_1.png	173	inanimate	plants	tree	1	0	5	boats	3	correct	0.740646874182858
114036	1	stim007_animate_aquatic_fish_3.png	7	animate	aquatic	fish	3	0	5	boats	3	correct	0.740646874182858
114086	1	stim146_inanimate_furniture_chair_2.png	146	inanimate	furniture	chair	2	0	5	boats	3	correct	0.740646874182858
114136	1	stim134_inanimate_fruits_pineapple_2.png	134	inanimate	fruits	pineapple	2	0	5	boats	3	correct	0.740646874182858
114186	1	stim038_animate_bird_penguin_2.png	38	animate	bird	penguin	2	0	5	boats	3	correct	0.740646874182858
114236	1	stim025_animate_bird_duck_1.png	25	animate	bird	duck	1	0	5	boats	3	correct	0.740646874182858
114286	1	stim170_inanimate_plants_sunflower_2.png	170	inanimate	plants	sunflower	2	0	5	boats	3	correct	0.740646874182858
114336	1	stim155_inanimate_furniture_sofa_3.png	155	inanimate	furniture	sofa	3	0	5	boats	3	correct	0.740646874182858
114386	1	stim133_inanimate_fruits_pineapple_1.png	133	inanimate	fruits	pineapple	1	0	5	boats	3	correct	0.740646874182858
114436	1	stim181_inanimate_tools_broom_1.png	181	inanimate	tools	broom	1	0	5	boats	3	correct	0.740646874182858
114486	1	stim177_inanimate_plants_tulip_1.png	177	inanimate	plants	tulip	1	0	5	boats	3	correct	0.740646874182858
114536	1	stim160_inanimate_furniture_table_4.png	160	inanimate	furniture	table	4	0	5	boats	3	correct	0.740646874182858
114586	1	stim094_animate_mammal_monkey_2.png	94	animate	mammal	monkey	2	0	5	boats	3	correct	0.740646874182858
114636	1	stim175_inanimate_plants_tree_3.png	175	inanimate	plants	tree	3	0	5	boats	3	correct	0.740646874182858
114686	1	stim005_animate_aquatic_fish_1.png	5	animate	aquatic	fish	1	0	5	boats	3	correct	0.740646874182858
114736	1	stim109_inanimate_clothing_jeans_1.png	109	inanimate	clothing	jeans	1	0	5	boats	3	correct	0.740646874182858
114786	1	stim019_animate_aquatic_shrimp_3.png	19	animate	aquatic	shrimp	3	0	5	boats	3	correct	0.740646874182858
114836	1	stim143_inanimate_furniture_bed_3.png	143	inanimate	furniture	bed	3	0	5	boats	3	correct	0.740646874182858
114886	1	stim073_animate_insect_dragonfly_1.png	73	animate	insect	dragonfly	1	0	5	boats	3	correct	0.740646874182858
114936	1	stim116_inanimate_clothing_shirt_4.png	116	inanimate	clothing	shirt	4	0	5	boats	3	correct	0.740646874182858
114986	1	stim149_inanimate_furniture_closet_1.png	149	inanimate	furniture	closet	1	0	5	boats	3	correct	0.740646874182858
115036	1	stim119_inanimate_clothing_socks_3.png	119	inanimate	clothing	socks	3	0	5	boats	3	correct	0.740646874182858
115086	1	stim083_animate_mammal_cow_3.png	83	animate	mammal	cow	3	0	5	boats	3	correct	0.740646874182858
115136	1	stim013_animate_aquatic_shark_1.png	13	animate	aquatic	shark	1	0	5	boats	3	correct	0.740646874182858
115186	1	stim147_inanimate_furniture_chair_3.png	147	inanimate	furniture	chair	3	0	5	boats	3	correct	0.740646874182858
115236	1	stim178_inanimate_plants_tulip_2.png	178	inanimate	plants	tulip	2	0	5	boats	3	correct	0.740646874182858
115286	1	stim180_inanimate_plants_tulip_4.png	180	inanimate	plants	tulip	4	0	5	boats	3	correct	0.740646874182858
115336	1	stim166_inanimate_plants_cactus_2.png	166	inanimate	plants	cactus	2	0	5	boats	3	correct	0.740646874182858
115386	1	stim105_inanimate_clothing_hat_1.png	105	inanimate	clothing	hat	1	0	5	boats	3	correct	0.740646874182858
115436	1	stim041_animate_human_baby_1.png	41	animate	human	baby	1	0	5	boats	3	correct	0.740646874182858
115486	1	stim174_inanimate_plants_tree_2.png	174	inanimate	plants	tree	2	0	5	boats	3	correct	0.740646874182858
115536	1	stim093_animate_mammal_monkey_1.png	93	animate	mammal	monkey	1	0	5	boats	3	correct	0.740646874182858
115586	1	stim018_animate_aquatic_shrimp_2.png	18	animate	aquatic	shrimp	2	0	5	boats	3	correct	0.740646874182858
115636	1	stim027_animate_bird_duck_3.png	27	animate	bird	duck	3	0	5	boats	3	correct	0.740646874182858
115686	1	stim077_animate_insect_grasshopper_1.png	77	animate	insect	grasshopper	1	0	5	boats	3	correct	0.740646874182858
115736	1	stim017_animate_aquatic_shrimp_1.png	17	animate	aquatic	shrimp	1	0	5	boats	3	correct	0.740646874182858
115786	1	stim118_inanimate_clothing_socks_2.png	118	inanimate	clothing	socks	2	0	5	boats	3	correct	0.740646874182858
115836	1	stim202_targets_object_boats_2.png	202	targets	object	boats	2	1	5	boats	3	correct	0.740646874182858
115886	1	stim104_inanimate_clothing_gloves_4.png	104	inanimate	clothing	gloves	4	0	5	boats	3	correct	0.740646874182858
115936	1	stim039_animate_bird_penguin_3.png	39	animate	bird	penguin	3	0	5	boats	3	correct	0.740646874182858
115986	1	stim011_animate_aquatic_seahorse_3.png	11	animate	aquatic	seahorse	3	0	5	boats	3	correct	0.740646874182858
116036	1	stim103_inanimate_clothing_gloves_3.png	103	inanimate	clothing	gloves	3	0	5	boats	3	correct	0.740646874182858
116086	1	stim102_inanimate_clothing_gloves_2.png	102	inanimate	clothing	gloves	2	0	5	boats	3	correct	0.740646874182858
116136	1	stim060_animate_human_sports_4.png	60	animate	human	sports	4	0	5	boats	3	correct	0.740646874182858
116186	1	stim110_inanimate_clothing_jeans_2.png	110	inanimate	clothing	jeans	2	0	5	boats	3	correct	0.740646874182858
116236	1	stim029_animate_bird_parrot_1.png	29	animate	bird	parrot	1	0	5	boats	3	correct	0.740646874182858
116286	1	stim076_animate_insect_dragonfly_4.png	76	animate	insect	dragonfly	4	0	5	boats	3	correct	0.740646874182858
116336	1	stim031_animate_bird_parrot_3.png	31	animate	bird	parrot	3	0	5	boats	3	correct	0.740646874182858
116386	1	stim086_animate_mammal_giraffe_2.png	86	animate	mammal	giraffe	2	0	5	boats	3	correct	0.740646874182858
116436	1	stim164_inanimate_plants_bush_4.png	164	inanimate	plants	bush	4	0	5	boats	3	correct	0.740646874182858
116486	1	stim195_inanimate_tools_scissors_3.png	195	inanimate	tools	scissors	3	0	5	boats	3	correct	0.740646874182858
116536	1	stim024_animate_bird_chicken_4.png	24	animate	bird	chicken	4	0	5	boats	3	correct	0.740646874182858
116586	1	stim071_animate_insect_butterfly_3.png	71	animate	insect	butterfly	3	0	5	boats	3	correct	0.740646874182858
116636	1	stim057_animate_human_sports_1.png	57	animate	human	sports	1	0	5	boats	3	correct	0.740646874182858
116686	1	stim152_inanimate_furniture_closet_4.png	152	inanimate	furniture	closet	4	0	5	boats	3	correct	0.740646874182858
116736	1	stim199_inanimate_tools_wrench_3.png	199	inanimate	tools	wrench	3	0	5	boats	3	correct	0.740646874182858
116786	1	stim145_inanimate_furniture_chair_1.png	145	inanimate	furniture	chair	1	0	5	boats	3	correct	0.740646874182858
116836	1	stim084_animate_mammal_cow_4.png	84	animate	mammal	cow	4	0	5	boats	3	correct	0.740646874182858
116886	1	stim058_animate_human_sports_2.png	58	animate	human	sports	2	0	5	boats	3	correct	0.740646874182858
116936	1	stim040_animate_bird_penguin_4.png	40	animate	bird	penguin	4	0	5	boats	3	correct	0.740646874182858
116986	1	stim054_animate_human_faces_2.png	54	animate	human	faces	2	0	5	boats	3	correct	0.740646874182858
117036	1	stim081_animate_mammal_cow_1.png	81	animate	mammal	cow	1	0	5	boats	3	correct	0.740646874182858
117086	1	stim074_animate_insect_dragonfly_2.png	74	animate	insect	dragonfly	2	0	5	boats	3	correct	0.740646874182858
117136	1	stim154_inanimate_furniture_sofa_2.png	154	inanimate	furniture	sofa	2	0	5	boats	3	correct	0.740646874182858
117186	1	stim056_animate_human_faces_4.png	56	animate	human	faces	4	0	5	boats	3	correct	0.740646874182858
117236	1	stim088_animate_mammal_giraffe_4.png	88	animate	mammal	giraffe	4	0	5	boats	3	correct	0.740646874182858
117286	1	stim191_inanimate_tools_pan_3.png	191	inanimate	tools	pan	3	0	5	boats	3	correct	0.740646874182858
117336	1	stim033_animate_bird_peacock_1.png	33	animate	bird	peacock	1	0	5	boats	3	correct	0.740646874182858
117386	1	stim196_inanimate_tools_scissors_4.png	196	inanimate	tools	scissors	4	0	5	boats	3	correct	0.740646874182858
117436	1	stim192_inanimate_tools_pan_4.png	192	inanimate	tools	pan	4	0	5	boats	3	correct	0.740646874182858
117486	1	stim028_animate_bird_duck_4.png	28	animate	bird	duck	4	0	5	boats	3	correct	0.740646874182858
117536	1	stim114_inanimate_clothing_shirt_2.png	114	inanimate	clothing	shirt	2	0	5	boats	3	correct	0.740646874182858
117586	1	stim035_animate_bird_peacock_3.png	35	animate	bird	peacock	3	0	5	boats	3	correct	0.740646874182858
117636	1	stim006_animate_aquatic_fish_2.png	6	animate	aquatic	fish	2	0	5	boats	3	correct	0.740646874182858
117686	1	stim108_inanimate_clothing_hat_4.png	108	inanimate	clothing	hat	4	0	5	boats	3	correct	0.740646874182858
