onset	duration	stimulusname	stimulusnumber	levelA	levelB	levelC	withinexemplarnumber	istarget	trialnumber	condition	response	correct	rt
142600	1	stim011_animate_aquatic_seahorse_3.png	11	animate	aquatic	seahorse	3	0	1	boats	4	correct	2.91213705972768
142800	1	stim167_inanimate_plants_cactus_3.png	167	inanimate	plants	cactus	3	0	1	boats	4	correct	2.91213705972768
143000	1	stim119_inanimate_clothing_socks_3.png	119	inanimate	clothing	socks	3	0	1	boats	4	correct	2.91213705972768
143200	1	stim048_animate_human_child_4.png	48	animate	human	child	4	0	1	boats	4	correct	2.91213705972768
143400	1	stim144_inanimate_furniture_bed_4.png	144	inanimate	furniture	bed	4	0	1	boats	4	correct	2.91213705972768
143600	1	stim029_animate_bird_parrot_1.png	29	animate	bird	parrot	1	0	1	boats	4	correct	2.91213705972768
143800	1	stim159_inanimate_furniture_table_3.png	159	inanimate	furniture	table	3	0	1	boats	4	correct	2.91213705972768
144000	1	stim149_inanimate_furniture_closet_1.png	149	inanimate	furniture	closet	1	0	1	boats	4	correct	2.91213705972768
144200	1	stim028_animate_bird_duck_4.png	28	animate	bird	duck	4	0	1	boats	4	correct	2.91213705972768
144400	1	stim189_inanimate_tools_pan_1.png	189	inanimate	tools	pan	1	0	1	boats	4	correct	2.91213705972768
144600	1	stim078_animate_insect_grasshopper_2.png	78	animate	insect	grasshopper	2	0	1	boats	4	correct	2.91213705972768
144800	1	stim092_animate_mammal_kangaroo_4.png	92	animate	mammal	kangaroo	4	0	1	boats	4	correct	2.91213705972768
145000	1	stim056_animate_human_faces_4.png	56	animate	human	faces	4	0	1	boats	4	correct	2.91213705972768
145200	1	stim151_inanimate_furniture_closet_3.png	151	inanimate	furniture	closet	3	0	1	boats	4	correct	2.91213705972768
145400	1	stim058_animate_human_sports_2.png	58	animate	human	sports	2	0	1	boats	4	correct	2.91213705972768
145600	1	stim192_inanimate_tools_pan_4.png	192	inanimate	tools	pan	4	0	1	boats	4	correct	2.91213705972768
145800	1	stim052_animate_human_clown_4.png	52	animate	human	clown	4	0	1	boats	4	correct	2.91213705972768
146000	1	stim166_inanimate_plants_cactus_2.png	166	inanimate	plants	cactus	2	0	1	boats	4	correct	2.91213705972768
146200	1	stim049_animate_human_clown_1.png	49	animate	human	clown	1	0	1	boats	4	correct	2.91213705972768
146400	1	stim130_inanimate_fruits_grape_2.png	130	inanimate	fruits	grape	2	0	1	boats	4	correct	2.91213705972768
146600	1	stim191_inanimate_tools_pan_3.png	191	inanimate	tools	pan	3	0	1	boats	4	correct	2.91213705972768
146800	1	stim061_animate_insect_ant_1.png	61	animate	insect	ant	1	0	1	boats	4	correct	2.91213705972768
147000	1	stim007_animate_aquatic_fish_3.png	7	animate	aquatic	fish	3	0	1	boats	4	correct	2.91213705972768
147200	1	stim016_animate_aquatic_shark_4.png	16	animate	aquatic	shark	4	0	1	boats	4	correct	2.91213705972768
147400	1	stim009_animate_aquatic_seahorse_1.png	9	animate	aquatic	seahorse	1	0	1	boats	4	correct	2.91213705972768
147600	1	stim003_animate_aquatic_crab_3.png	3	animate	aquatic	crab	3	0	1	boats	4	correct	2.91213705972768
147800	1	stim082_animate_mammal_cow_2.png	82	animate	mammal	cow	2	0	1	boats	4	correct	2.91213705972768
148000	1	stim143_inanimate_furniture_bed_3.png	143	inanimate	furniture	bed	3	0	1	boats	4	correct	2.91213705972768
148200	1	stim095_animate_mammal_monkey_3.png	95	animate	mammal	monkey	3	0	1	boats	4	correct	2.91213705972768
148400	1	stim044_animate_human_baby_4.png	44	animate	human	baby	4	0	1	boats	4	correct	2.91213705972768
148600	1	stim019_animate_aquatic_shrimp_3.png	19	animate	aquatic	shrimp	3	0	1	boats	4	correct	2.91213705972768
148800	1	stim170_inanimate_plants_sunflower_2.png	170	inanimate	plants	sunflower	2	0	1	boats	4	correct	2.91213705972768
149000	1	stim098_animate_mammal_rhino_2.png	98	animate	mammal	rhino	2	0	1	boats	4	correct	2.91213705972768
149200	1	stim163_inanimate_plants_bush_3.png	163	inanimate	plants	bush	3	0	1	boats	4	correct	2.91213705972768
149400	1	stim057_animate_human_sports_1.png	57	animate	human	sports	1	0	1	boats	4	correct	2.91213705972768
149600	1	stim165_inanimate_plants_cactus_1.png	165	inanimate	plants	cactus	1	0	1	boats	4	correct	2.91213705972768
149800	1	stim026_animate_bird_duck_2.png	26	animate	bird	duck	2	0	1	boats	4	correct	2.91213705972768
150000	1	stim001_animate_aquatic_crab_1.png	1	animate	aquatic	crab	1	0	1	boats	4	correct	2.91213705972768
150200	1	stim110_inanimate_clothing_jeans_2.png	110	inanimate	clothing	jeans	2	0	1	boats	4	correct	2.91213705972768
150400	1	stim086_animate_mammal_giraffe_2.png	86	animate	mammal	giraffe	2	0	1	boats	4	correct	2.91213705972768
150600	1	stim162_inanimate_plants_bush_2.png	162	inanimate	plants	bush	2	0	1	boats	4	correct	2.91213705972768
150800	1	stim081_animate_mammal_cow_1.png	81	animate	mammal	cow	1	0	1	boats	4	correct	2.91213705972768
151000	1	stim204_targets_object_boats_4.png	204	targets	object	boats	4	1	1	boats	4	correct	2.91213705972768
151200	1	stim136_inanimate_fruits_pineapple_4.png	136	inanimate	fruits	pineapple	4	0	1	boats	4	correct	2.91213705972768
151400	1	stim179_inanimate_plants_tulip_3.png	179	inanimate	plants	tulip	3	0	1	boats	4	correct	2.91213705972768
151600	1	stim066_animate_insect_bug_2.png	66	animate	insect	bug	2	0	1	boats	4	correct	2.91213705972768
151800	1	stim043_animate_human_baby_3.png	43	animate	human	baby	3	0	1	boats	4	correct	2.91213705972768
152000	1	stim121_inanimate_fruits_apple_1.png	121	inanimate	fruits	apple	1	0	1	boats	4	correct	2.91213705972768
152200	1	stim020_animate_aquatic_shrimp_4.png	20	animate	aquatic	shrimp	4	0	1	boats	4	correct	2.91213705972768
152400	1	stim190_inanimate_tools_pan_2.png	190	inanimate	tools	pan	2	0	1	boats	4	correct	2.91213705972768
152600	1	stim141_inanimate_furniture_bed_1.png	141	inanimate	furniture	bed	1	0	1	boats	4	correct	2.91213705972768
152800	1	stim193_inanimate_tools_scissors_1.png	193	inanimate	tools	scissors	1	0	1	boats	4	correct	2.91213705972768
153000	1	stim120_inanimate_clothing_socks_4.png	120	inanimate	clothing	socks	4	0	1	boats	4	correct	2.91213705972768
153200	1	stim031_animate_bird_parrot_3.png	31	animate	bird	parrot	3	0	1	boats	4	correct	2.91213705972768
153400	1	stim186_inanimate_tools_hammer_2.png	186	inanimate	tools	hammer	2	0	1	boats	4	correct	2.91213705972768
153600	1	stim128_inanimate_fruits_banana_4.png	128	inanimate	fruits	banana	4	0	1	boats	4	correct	2.91213705972768
153800	1	stim022_animate_bird_chicken_2.png	22	animate	bird	chicken	2	0	1	boats	4	correct	2.91213705972768
154000	1	stim075_animate_insect_dragonfly_3.png	75	animate	insect	dragonfly	3	0	1	boats	4	correct	2.91213705972768
154200	1	stim069_animate_insect_butterfly_1.png	69	animate	insect	butterfly	1	0	1	boats	4	correct	2.91213705972768
154400	1	stim054_animate_human_faces_2.png	54	animate	human	faces	2	0	1	boats	4	correct	2.91213705972768
154600	1	stim152_inanimate_furniture_closet_4.png	152	inanimate	furniture	closet	4	0	1	boats	4	correct	2.91213705972768
154800	1	stim145_inanimate_furniture_chair_1.png	145	inanimate	furniture	chair	1	0	1	boats	4	correct	2.91213705972768
155000	1	stim080_animate_insect_grasshopper_4.png	80	animate	insect	grasshopper	4	0	1	boats	4	correct	2.91213705972768
155200	1	stim199_inanimate_tools_wrench_3.png	199	inanimate	tools	wrench	3	0	1	boats	4	correct	2.91213705972768
155400	1	stim023_animate_bird_chicken_3.png	23	animate	bird	chicken	3	0	1	boats	4	correct	2.91213705972768
155600	1	stim122_inanimate_fruits_apple_2.png	122	inanimate	fruits	apple	2	0	1	boats	4	correct	2.91213705972768
155800	1	stim053_animate_human_faces_1.png	53	animate	human	faces	1	0	1	boats	4	correct	2.91213705972768
156000	1	stim089_animate_mammal_kangaroo_1.png	89	animate	mammal	kangaroo	1	0	1	boats	4	correct	2.91213705972768
156200	1	stim093_animate_mammal_monkey_1.png	93	animate	mammal	monkey	1	0	1	boats	4	correct	2.91213705972768
156400	1	stim068_animate_insect_bug_4.png	68	animate	insect	bug	4	0	1	boats	4	correct	2.91213705972768
156600	1	stim160_inanimate_furniture_table_4.png	160	inanimate	furniture	table	4	0	1	boats	4	correct	2.91213705972768
156800	1	stim123_inanimate_fruits_apple_3.png	123	inanimate	fruits	apple	3	0	1	boats	4	correct	2.91213705972768
157000	1	stim196_inanimate_tools_scissors_4.png	196	inanimate	tools	scissors	4	0	1	boats	4	correct	2.91213705972768
157200	1	stim109_inanimate_clothing_jeans_1.png	109	inanimate	clothing	jeans	1	0	1	boats	4	correct	2.91213705972768
157400	1	stim091_animate_mammal_kangaroo_3.png	91	animate	mammal	kangaroo	3	0	1	boats	4	correct	2.91213705972768
157600	1	stim051_animate_human_clown_3.png	51	animate	human	clown	3	0	1	boats	4	correct	2.91213705972768
157800	1	stim205_targets_object_boats_1.png	205	targets	object	boats	1	1	1	boats	4	correct	2.91213705972768
158000	1	stim180_inanimate_plants_tulip_4.png	180	inanimate	plants	tulip	4	0	1	boats	4	correct	2.91213705972768
158200	1	stim045_animate_human_child_1.png	45	animate	human	child	1	0	1	boats	4	correct	2.91213705972768
158400	1	stim168_inanimate_plants_cactus_4.png	168	inanimate	plants	cactus	4	0	1	boats	4	correct	2.91213705972768
158600	1	stim021_animate_bird_chicken_1.png	21	animate	bird	chicken	1	0	1	boats	4	correct	2.91213705972768
158800	1	stim032_animate_bird_parrot_4.png	32	animate	bird	parrot	4	0	1	boats	4	correct	2.91213705972768
159000	1	stim077_animate_insect_grasshopper_1.png	77	animate	insect	grasshopper	1	0	1	boats	4	correct	2.91213705972768
159200	1	stim084_animate_mammal_cow_4.png	84	animate	mammal	cow	4	0	1	boats	4	correct	2.91213705972768
159400	1	stim059_animate_human_sports_3.png	59	animate	human	sports	3	0	1	boats	4	correct	2.91213705972768
159600	1	stim015_animate_aquatic_shark_3.png	15	animate	aquatic	shark	3	0	1	boats	4	correct	2.91213705972768
159800	1	stim169_inanimate_plants_sunflower_1.png	169	inanimate	plants	sunflower	1	0	1	boats	4	correct	2.91213705972768
160000	1	stim033_animate_bird_peacock_1.png	33	animate	bird	peacock	1	0	1	boats	4	correct	2.91213705972768
160200	1	stim006_animate_aquatic_fish_2.png	6	animate	aquatic	fish	2	0	1	boats	4	correct	2.91213705972768
160400	1	stim013_animate_aquatic_shark_1.png	13	animate	aquatic	shark	1	0	1	boats	4	correct	2.91213705972768
160600	1	stim101_inanimate_clothing_gloves_1.png	101	inanimate	clothing	gloves	1	0	1	boats	4	correct	2.91213705972768
160800	1	stim161_inanimate_plants_bush_1.png	161	inanimate	plants	bush	1	0	1	boats	4	correct	2.91213705972768
161000	1	stim124_inanimate_fruits_apple_4.png	124	inanimate	fruits	apple	4	0	1	boats	4	correct	2.91213705972768
161200	1	stim071_animate_insect_butterfly_3.png	71	animate	insect	butterfly	3	0	1	boats	4	correct	2.91213705972768
161400	1	stim177_inanimate_plants_tulip_1.png	177	inanimate	plants	tulip	1	0	1	boats	4	correct	2.91213705972768
161600	1	stim188_inanimate_tools_hammer_4.png	188	inanimate	tools	hammer	4	0	1	boats	4	correct	2.91213705972768
161800	1	stim182_inanimate_tools_broom_2.png	182	inanimate	tools	broom	2	0	1	boats	4	correct	2.91213705972768
162000	1	stim065_animate_insect_bug_1.png	65	animate	insect	bug	1	0	1	boats	4	correct	2.91213705972768
162200	1	stim105_inanimate_clothing_hat_1.png	105	inanimate	clothing	hat	1	0	1	boats	4	correct	2.91213705972768
162400	1	stim063_animate_insect_ant_3.png	63	animate	insect	ant	3	0	1	boats	4	correct	2.91213705972768
162600	1	stim079_animate_insect_grasshopper_3.png	79	animate	insect	grasshopper	3	0	1	boats	4	correct	2.91213705972768
162800	1	stim134_inanimate_fruits_pineapple_2.png	134	inanimate	fruits	pineapple	2	0	1	boats	4	correct	2.91213705972768
163000	1	stim025_animate_bird_duck_1.png	25	animate	bird	duck	1	0	1	boats	4	correct	2.91213705972768
163200	1	stim156_inanimate_furniture_sofa_4.png	156	inanimate	furniture	sofa	4	0	1	boats	4	correct	2.91213705972768
163400	1	stim107_inanimate_clothing_hat_3.png	107	inanimate	clothing	hat	3	0	1	boats	4	correct	2.91213705972768
163600	1	stim070_animate_insect_butterfly_2.png	70	animate	insect	butterfly	2	0	1	boats	4	correct	2.91213705972768
163800	1	stim055_animate_human_faces_3.png	55	animate	human	faces	3	0	1	boats	4	correct	2.91213705972768
164000	1	stim036_animate_bird_peacock_4.png	36	animate	bird	peacock	4	0	1	boats	4	correct	2.91213705972768
164200	1	stim114_inanimate_clothing_shirt_2.png	114	inanimate	clothing	shirt	2	0	1	boats	4	correct	2.91213705972768
164400	1	stim094_animate_mammal_monkey_2.png	94	animate	mammal	monkey	2	0	1	boats	4	correct	2.91213705972768
164600	1	stim208_targets_object_boats_4.png	208	targets	object	boats	4	1	1	boats	4	correct	2.91213705972768
164800	1	stim194_inanimate_tools_scissors_2.png	194	inanimate	tools	scissors	2	0	1	boats	4	correct	2.91213705972768
165000	1	stim164_inanimate_plants_bush_4.png	164	inanimate	plants	bush	4	0	1	boats	4	correct	2.91213705972768
165200	1	stim100_animate_mammal_rhino_4.png	100	animate	mammal	rhino	4	0	1	boats	4	correct	2.91213705972768
165400	1	stim176_inanimate_plants_tree_4.png	176	inanimate	plants	tree	4	0	1	boats	4	correct	2.91213705972768
165600	1	stim118_inanimate_clothing_socks_2.png	118	inanimate	clothing	socks	2	0	1	boats	4	correct	2.91213705972768
165800	1	stim040_animate_bird_penguin_4.png	40	animate	bird	penguin	4	0	1	boats	4	correct	2.91213705972768
166000	1	stim004_animate_aquatic_crab_4.png	4	animate	aquatic	crab	4	0	1	boats	4	correct	2.91213705972768
166200	1	stim073_animate_insect_dragonfly_1.png	73	animate	insect	dragonfly	1	0	1	boats	4	correct	2.91213705972768
166400	1	stim155_inanimate_furniture_sofa_3.png	155	inanimate	furniture	sofa	3	0	1	boats	4	correct	2.91213705972768
166600	1	stim074_animate_insect_dragonfly_2.png	74	animate	insect	dragonfly	2	0	1	boats	4	correct	2.91213705972768
166800	1	stim096_animate_mammal_monkey_4.png	96	animate	mammal	monkey	4	0	1	boats	4	correct	2.91213705972768
167000	1	stim088_animate_mammal_giraffe_4.png	88	animate	mammal	giraffe	4	0	1	boats	4	correct	2.91213705972768
167200	1	stim137_inanimate_fruits_strawberry_1.png	137	inanimate	fruits	strawberry	1	0	1	boats	4	correct	2.91213705972768
167400	1	stim018_animate_aquatic_shrimp_2.png	18	animate	aquatic	shrimp	2	0	1	boats	4	correct	2.91213705972768
167600	1	stim034_animate_bird_peacock_2.png	34	animate	bird	peacock	2	0	1	boats	4	correct	2.91213705972768
167800	1	stim005_animate_aquatic_fish_1.png	5	animate	aquatic	fish	1	0	1	boats	4	correct	2.91213705972768
168000	1	stim047_animate_human_child_3.png	47	animate	human	child	3	0	1	boats	4	correct	2.91213705972768
168200	1	stim171_inanimate_plants_sunflower_3.png	171	inanimate	plants	sunflower	3	0	1	boats	4	correct	2.91213705972768
168400	1	stim140_inanimate_fruits_strawberry_4.png	140	inanimate	fruits	strawberry	4	0	1	boats	4	correct	2.91213705972768
168600	1	stim014_animate_aquatic_shark_2.png	14	animate	aquatic	shark	2	0	1	boats	4	correct	2.91213705972768
168800	1	stim175_inanimate_plants_tree_3.png	175	inanimate	plants	tree	3	0	1	boats	4	correct	2.91213705972768
169000	1	stim132_inanimate_fruits_grape_4.png	132	inanimate	fruits	grape	4	0	1	boats	4	correct	2.91213705972768
169200	1	stim146_inanimate_furniture_chair_2.png	146	inanimate	furniture	chair	2	0	1	boats	4	correct	2.91213705972768
169400	1	stim042_animate_human_baby_2.png	42	animate	human	baby	2	0	1	boats	4	correct	2.91213705972768
169600	1	stim150_inanimate_furniture_closet_2.png	150	inanimate	furniture	closet	2	0	1	boats	4	correct	2.91213705972768
169800	1	stim129_inanimate_fruits_grape_1.png	129	inanimate	fruits	grape	1	0	1	boats	4	correct	2.91213705972768
170000	1	stim154_inanimate_furniture_sofa_2.png	154	inanimate	furniture	sofa	2	0	1	boats	4	correct	2.91213705972768
170200	1	stim131_inanimate_fruits_grape_3.png	131	inanimate	fruits	grape	3	0	1	boats	4	correct	2.91213705972768
170400	1	stim133_inanimate_fruits_pineapple_1.png	133	inanimate	fruits	pineapple	1	0	1	boats	4	correct	2.91213705972768
170600	1	stim067_animate_insect_bug_3.png	67	animate	insect	bug	3	0	1	boats	4	correct	2.91213705972768
170800	1	stim115_inanimate_clothing_shirt_3.png	115	inanimate	clothing	shirt	3	0	1	boats	4	correct	2.91213705972768
171000	1	stim103_inanimate_clothing_gloves_3.png	103	inanimate	clothing	gloves	3	0	1	boats	4	correct	2.91213705972768
171200	1	stim062_animate_insect_ant_2.png	62	animate	insect	ant	2	0	1	boats	4	correct	2.91213705972768
171400	1	stim201_targets_object_boats_1.png	201	targets	object	boats	1	1	1	boats	4	correct	2.91213705972768
171600	1	stim008_animate_aquatic_fish_4.png	8	animate	aquatic	fish	4	0	1	boats	4	correct	2.91213705972768
171800	1	stim158_inanimate_furniture_table_2.png	158	inanimate	furniture	table	2	0	1	boats	4	correct	2.91213705972768
172000	1	stim012_animate_aquatic_seahorse_4.png	12	animate	aquatic	seahorse	4	0	1	boats	4	correct	2.91213705972768
172200	1	stim138_inanimate_fruits_strawberry_2.png	138	inanimate	fruits	strawberry	2	0	1	boats	4	correct	2.91213705972768
172400	1	stim038_animate_bird_penguin_2.png	38	animate	bird	penguin	2	0	1	boats	4	correct	2.91213705972768
172600	1	stim097_animate_mammal_rhino_1.png	97	animate	mammal	rhino	1	0	1	boats	4	correct	2.91213705972768
172800	1	stim010_animate_aquatic_seahorse_2.png	10	animate	aquatic	seahorse	2	0	1	boats	4	correct	2.91213705972768
173000	1	stim072_animate_insect_butterfly_4.png	72	animate	insect	butterfly	4	0	1	boats	4	correct	2.91213705972768
173200	1	stim064_animate_insect_ant_4.png	64	animate	insect	ant	4	0	1	boats	4	correct	2.91213705972768
173400	1	stim060_animate_human_sports_4.png	60	animate	human	sports	4	0	1	boats	4	correct	2.91213705972768
173600	1	stim041_animate_human_baby_1.png	41	animate	human	baby	1	0	1	boats	4	correct	2.91213705972768
173800	1	stim153_inanimate_furniture_sofa_1.png	153	inanimate	furniture	sofa	1	0	1	boats	4	correct	2.91213705972768
174000	1	stim117_inanimate_clothing_socks_1.png	117	inanimate	clothing	socks	1	0	1	boats	4	correct	2.91213705972768
174200	1	stim185_inanimate_tools_hammer_1.png	185	inanimate	tools	hammer	1	0	1	boats	4	correct	2.91213705972768
174400	1	stim035_animate_bird_peacock_3.png	35	animate	bird	peacock	3	0	1	boats	4	correct	2.91213705972768
174600	1	stim184_inanimate_tools_broom_4.png	184	inanimate	tools	broom	4	0	1	boats	4	correct	2.91213705972768
174800	1	stim197_inanimate_tools_wrench_1.png	197	inanimate	tools	wrench	1	0	1	boats	4	correct	2.91213705972768
175000	1	stim099_animate_mammal_rhino_3.png	99	animate	mammal	rhino	3	0	1	boats	4	correct	2.91213705972768
175200	1	stim195_inanimate_tools_scissors_3.png	195	inanimate	tools	scissors	3	0	1	boats	4	correct	2.91213705972768
175400	1	stim142_inanimate_furniture_bed_2.png	142	inanimate	furniture	bed	2	0	1	boats	4	correct	2.91213705972768
175600	1	stim108_inanimate_clothing_hat_4.png	108	inanimate	clothing	hat	4	0	1	boats	4	correct	2.91213705972768
175800	1	stim187_inanimate_tools_hammer_3.png	187	inanimate	tools	hammer	3	0	1	boats	4	correct	2.91213705972768
176000	1	stim111_inanimate_clothing_jeans_3.png	111	inanimate	clothing	jeans	3	0	1	boats	4	correct	2.91213705972768
176200	1	stim174_inanimate_plants_tree_2.png	174	inanimate	plants	tree	2	0	1	boats	4	correct	2.91213705972768
176400	1	stim183_inanimate_tools_broom_3.png	183	inanimate	tools	broom	3	0	1	boats	4	correct	2.91213705972768
176600	1	stim087_animate_mammal_giraffe_3.png	87	animate	mammal	giraffe	3	0	1	boats	4	correct	2.91213705972768
176800	1	stim024_animate_bird_chicken_4.png	24	animate	bird	chicken	4	0	1	boats	4	correct	2.91213705972768
177000	1	stim135_inanimate_fruits_pineapple_3.png	135	inanimate	fruits	pineapple	3	0	1	boats	4	correct	2.91213705972768
177200	1	stim172_inanimate_plants_sunflower_4.png	172	inanimate	plants	sunflower	4	0	1	boats	4	correct	2.91213705972768
177400	1	stim112_inanimate_clothing_jeans_4.png	112	inanimate	clothing	jeans	4	0	1	boats	4	correct	2.91213705972768
177600	1	stim181_inanimate_tools_broom_1.png	181	inanimate	tools	broom	1	0	1	boats	4	correct	2.91213705972768
177800	1	stim037_animate_bird_penguin_1.png	37	animate	bird	penguin	1	0	1	boats	4	correct	2.91213705972768
178000	1	stim002_animate_aquatic_crab_2.png	2	animate	aquatic	crab	2	0	1	boats	4	correct	2.91213705972768
178200	1	stim113_inanimate_clothing_shirt_1.png	113	inanimate	clothing	shirt	1	0	1	boats	4	correct	2.91213705972768
178400	1	stim157_inanimate_furniture_table_1.png	157	inanimate	furniture	table	1	0	1	boats	4	correct	2.91213705972768
178600	1	stim198_inanimate_tools_wrench_2.png	198	inanimate	tools	wrench	2	0	1	boats	4	correct	2.91213705972768
178800	1	stim030_animate_bird_parrot_2.png	30	animate	bird	parrot	2	0	1	boats	4	correct	2.91213705972768
179000	1	stim102_inanimate_clothing_gloves_2.png	102	inanimate	clothing	gloves	2	0	1	boats	4	correct	2.91213705972768
179200	1	stim147_inanimate_furniture_chair_3.png	147	inanimate	furniture	chair	3	0	1	boats	4	correct	2.91213705972768
179400	1	stim050_animate_human_clown_2.png	50	animate	human	clown	2	0	1	boats	4	correct	2.91213705972768
179600	1	stim178_inanimate_plants_tulip_2.png	178	inanimate	plants	tulip	2	0	1	boats	4	correct	2.91213705972768
179800	1	stim173_inanimate_plants_tree_1.png	173	inanimate	plants	tree	1	0	1	boats	4	correct	2.91213705972768
180000	1	stim148_inanimate_furniture_chair_4.png	148	inanimate	furniture	chair	4	0	1	boats	4	correct	2.91213705972768
180200	1	stim127_inanimate_fruits_banana_3.png	127	inanimate	fruits	banana	3	0	1	boats	4	correct	2.91213705972768
180400	1	stim090_animate_mammal_kangaroo_2.png	90	animate	mammal	kangaroo	2	0	1	boats	4	correct	2.91213705972768
180600	1	stim139_inanimate_fruits_strawberry_3.png	139	inanimate	fruits	strawberry	3	0	1	boats	4	correct	2.91213705972768
180800	1	stim116_inanimate_clothing_shirt_4.png	116	inanimate	clothing	shirt	4	0	1	boats	4	correct	2.91213705972768
181000	1	stim083_animate_mammal_cow_3.png	83	animate	mammal	cow	3	0	1	boats	4	correct	2.91213705972768
181200	1	stim039_animate_bird_penguin_3.png	39	animate	bird	penguin	3	0	1	boats	4	correct	2.91213705972768
181400	1	stim085_animate_mammal_giraffe_1.png	85	animate	mammal	giraffe	1	0	1	boats	4	correct	2.91213705972768
181600	1	stim104_inanimate_clothing_gloves_4.png	104	inanimate	clothing	gloves	4	0	1	boats	4	correct	2.91213705972768
181800	1	stim017_animate_aquatic_shrimp_1.png	17	animate	aquatic	shrimp	1	0	1	boats	4	correct	2.91213705972768
182001	1	stim046_animate_human_child_2.png	46	animate	human	child	2	0	1	boats	4	correct	2.91213705972768
182201	1	stim126_inanimate_fruits_banana_2.png	126	inanimate	fruits	banana	2	0	1	boats	4	correct	2.91213705972768
182401	1	stim106_inanimate_clothing_hat_2.png	106	inanimate	clothing	hat	2	0	1	boats	4	correct	2.91213705972768
182601	1	stim027_animate_bird_duck_3.png	27	animate	bird	duck	3	0	1	boats	4	correct	2.91213705972768
182801	1	stim200_inanimate_tools_wrench_4.png	200	inanimate	tools	wrench	4	0	1	boats	4	correct	2.91213705972768
183001	1	stim125_inanimate_fruits_banana_1.png	125	inanimate	fruits	banana	1	0	1	boats	4	correct	2.91213705972768
183201	1	stim076_animate_insect_dragonfly_4.png	76	animate	insect	dragonfly	4	0	1	boats	4	correct	2.91213705972768
194084	1	stim111_inanimate_clothing_jeans_3.png	111	inanimate	clothing	jeans	3	0	2	boats	1	incorrect	2.15731902664993
194284	1	stim180_inanimate_plants_tulip_4.png	180	inanimate	plants	tulip	4	0	2	boats	1	incorrect	2.15731902664993
194484	1	stim030_animate_bird_parrot_2.png	30	animate	bird	parrot	2	0	2	boats	1	incorrect	2.15731902664993
194684	1	stim181_inanimate_tools_broom_1.png	181	inanimate	tools	broom	1	0	2	boats	1	incorrect	2.15731902664993
194884	1	stim016_animate_aquatic_shark_4.png	16	animate	aquatic	shark	4	0	2	boats	1	incorrect	2.15731902664993
195084	1	stim099_animate_mammal_rhino_3.png	99	animate	mammal	rhino	3	0	2	boats	1	incorrect	2.15731902664993
195284	1	stim116_inanimate_clothing_shirt_4.png	116	inanimate	clothing	shirt	4	0	2	boats	1	incorrect	2.15731902664993
195484	1	stim036_animate_bird_peacock_4.png	36	animate	bird	peacock	4	0	2	boats	1	incorrect	2.15731902664993
195684	1	stim175_inanimate_plants_tree_3.png	175	inanimate	plants	tree	3	0	2	boats	1	incorrect	2.15731902664993
195884	1	stim069_animate_insect_butterfly_1.png	69	animate	insect	butterfly	1	0	2	boats	1	incorrect	2.15731902664993
196084	1	stim185_inanimate_tools_hammer_1.png	185	inanimate	tools	hammer	1	0	2	boats	1	incorrect	2.15731902664993
196284	1	stim130_inanimate_fruits_grape_2.png	130	inanimate	fruits	grape	2	0	2	boats	1	incorrect	2.15731902664993
196484	1	stim044_animate_human_baby_4.png	44	animate	human	baby	4	0	2	boats	1	incorrect	2.15731902664993
196684	1	stim065_animate_insect_bug_1.png	65	animate	insect	bug	1	0	2	boats	1	incorrect	2.15731902664993
196884	1	stim085_animate_mammal_giraffe_1.png	85	animate	mammal	giraffe	1	0	2	boats	1	incorrect	2.15731902664993
197084	1	stim092_animate_mammal_kangaroo_4.png	92	animate	mammal	kangaroo	4	0	2	boats	1	incorrect	2.15731902664993
197284	1	stim049_animate_human_clown_1.png	49	animate	human	clown	1	0	2	boats	1	incorrect	2.15731902664993
197484	1	stim119_inanimate_clothing_socks_3.png	119	inanimate	clothing	socks	3	0	2	boats	1	incorrect	2.15731902664993
197684	1	stim112_inanimate_clothing_jeans_4.png	112	inanimate	clothing	jeans	4	0	2	boats	1	incorrect	2.15731902664993
197884	1	stim153_inanimate_furniture_sofa_1.png	153	inanimate	furniture	sofa	1	0	2	boats	1	incorrect	2.15731902664993
198084	1	stim194_inanimate_tools_scissors_2.png	194	inanimate	tools	scissors	2	0	2	boats	1	incorrect	2.15731902664993
198284	1	stim020_animate_aquatic_shrimp_4.png	20	animate	aquatic	shrimp	4	0	2	boats	1	incorrect	2.15731902664993
198484	1	stim001_animate_aquatic_crab_1.png	1	animate	aquatic	crab	1	0	2	boats	1	incorrect	2.15731902664993
198684	1	stim131_inanimate_fruits_grape_3.png	131	inanimate	fruits	grape	3	0	2	boats	1	incorrect	2.15731902664993
198884	1	stim117_inanimate_clothing_socks_1.png	117	inanimate	clothing	socks	1	0	2	boats	1	incorrect	2.15731902664993
199084	1	stim039_animate_bird_penguin_3.png	39	animate	bird	penguin	3	0	2	boats	1	incorrect	2.15731902664993
199284	1	stim015_animate_aquatic_shark_3.png	15	animate	aquatic	shark	3	0	2	boats	1	incorrect	2.15731902664993
199484	1	stim047_animate_human_child_3.png	47	animate	human	child	3	0	2	boats	1	incorrect	2.15731902664993
199684	1	stim196_inanimate_tools_scissors_4.png	196	inanimate	tools	scissors	4	0	2	boats	1	incorrect	2.15731902664993
199884	1	stim163_inanimate_plants_bush_3.png	163	inanimate	plants	bush	3	0	2	boats	1	incorrect	2.15731902664993
200084	1	stim103_inanimate_clothing_gloves_3.png	103	inanimate	clothing	gloves	3	0	2	boats	1	incorrect	2.15731902664993
200284	1	stim071_animate_insect_butterfly_3.png	71	animate	insect	butterfly	3	0	2	boats	1	incorrect	2.15731902664993
200484	1	stim068_animate_insect_bug_4.png	68	animate	insect	bug	4	0	2	boats	1	incorrect	2.15731902664993
200684	1	stim186_inanimate_tools_hammer_2.png	186	inanimate	tools	hammer	2	0	2	boats	1	incorrect	2.15731902664993
200884	1	stim108_inanimate_clothing_hat_4.png	108	inanimate	clothing	hat	4	0	2	boats	1	incorrect	2.15731902664993
201084	1	stim048_animate_human_child_4.png	48	animate	human	child	4	0	2	boats	1	incorrect	2.15731902664993
201284	1	stim167_inanimate_plants_cactus_3.png	167	inanimate	plants	cactus	3	0	2	boats	1	incorrect	2.15731902664993
201484	1	stim003_animate_aquatic_crab_3.png	3	animate	aquatic	crab	3	0	2	boats	1	incorrect	2.15731902664993
201684	1	stim118_inanimate_clothing_socks_2.png	118	inanimate	clothing	socks	2	0	2	boats	1	incorrect	2.15731902664993
201884	1	stim168_inanimate_plants_cactus_4.png	168	inanimate	plants	cactus	4	0	2	boats	1	incorrect	2.15731902664993
202084	1	stim113_inanimate_clothing_shirt_1.png	113	inanimate	clothing	shirt	1	0	2	boats	1	incorrect	2.15731902664993
202284	1	stim050_animate_human_clown_2.png	50	animate	human	clown	2	0	2	boats	1	incorrect	2.15731902664993
202484	1	stim110_inanimate_clothing_jeans_2.png	110	inanimate	clothing	jeans	2	0	2	boats	1	incorrect	2.15731902664993
202684	1	stim060_animate_human_sports_4.png	60	animate	human	sports	4	0	2	boats	1	incorrect	2.15731902664993
202884	1	stim064_animate_insect_ant_4.png	64	animate	insect	ant	4	0	2	boats	1	incorrect	2.15731902664993
203084	1	stim125_inanimate_fruits_banana_1.png	125	inanimate	fruits	banana	1	0	2	boats	1	incorrect	2.15731902664993
203284	1	stim161_inanimate_plants_bush_1.png	161	inanimate	plants	bush	1	0	2	boats	1	incorrect	2.15731902664993
203484	1	stim106_inanimate_clothing_hat_2.png	106	inanimate	clothing	hat	2	0	2	boats	1	incorrect	2.15731902664993
203684	1	stim138_inanimate_fruits_strawberry_2.png	138	inanimate	fruits	strawberry	2	0	2	boats	1	incorrect	2.15731902664993
203884	1	stim183_inanimate_tools_broom_3.png	183	inanimate	tools	broom	3	0	2	boats	1	incorrect	2.15731902664993
204084	1	stim166_inanimate_plants_cactus_2.png	166	inanimate	plants	cactus	2	0	2	boats	1	incorrect	2.15731902664993
204284	1	stim061_animate_insect_ant_1.png	61	animate	insect	ant	1	0	2	boats	1	incorrect	2.15731902664993
204484	1	stim034_animate_bird_peacock_2.png	34	animate	bird	peacock	2	0	2	boats	1	incorrect	2.15731902664993
204684	1	stim097_animate_mammal_rhino_1.png	97	animate	mammal	rhino	1	0	2	boats	1	incorrect	2.15731902664993
204884	1	stim145_inanimate_furniture_chair_1.png	145	inanimate	furniture	chair	1	0	2	boats	1	incorrect	2.15731902664993
205084	1	stim087_animate_mammal_giraffe_3.png	87	animate	mammal	giraffe	3	0	2	boats	1	incorrect	2.15731902664993
205284	1	stim178_inanimate_plants_tulip_2.png	178	inanimate	plants	tulip	2	0	2	boats	1	incorrect	2.15731902664993
205484	1	stim172_inanimate_plants_sunflower_4.png	172	inanimate	plants	sunflower	4	0	2	boats	1	incorrect	2.15731902664993
205684	1	stim160_inanimate_furniture_table_4.png	160	inanimate	furniture	table	4	0	2	boats	1	incorrect	2.15731902664993
205884	1	stim074_animate_insect_dragonfly_2.png	74	animate	insect	dragonfly	2	0	2	boats	1	incorrect	2.15731902664993
206084	1	stim090_animate_mammal_kangaroo_2.png	90	animate	mammal	kangaroo	2	0	2	boats	1	incorrect	2.15731902664993
206284	1	stim174_inanimate_plants_tree_2.png	174	inanimate	plants	tree	2	0	2	boats	1	incorrect	2.15731902664993
206484	1	stim139_inanimate_fruits_strawberry_3.png	139	inanimate	fruits	strawberry	3	0	2	boats	1	incorrect	2.15731902664993
206684	1	stim082_animate_mammal_cow_2.png	82	animate	mammal	cow	2	0	2	boats	1	incorrect	2.15731902664993
206884	1	stim021_animate_bird_chicken_1.png	21	animate	bird	chicken	1	0	2	boats	1	incorrect	2.15731902664993
207084	1	stim156_inanimate_furniture_sofa_4.png	156	inanimate	furniture	sofa	4	0	2	boats	1	incorrect	2.15731902664993
207284	1	stim007_animate_aquatic_fish_3.png	7	animate	aquatic	fish	3	0	2	boats	1	incorrect	2.15731902664993
207484	1	stim152_inanimate_furniture_closet_4.png	152	inanimate	furniture	closet	4	0	2	boats	1	incorrect	2.15731902664993
207684	1	stim037_animate_bird_penguin_1.png	37	animate	bird	penguin	1	0	2	boats	1	incorrect	2.15731902664993
207884	1	stim023_animate_bird_chicken_3.png	23	animate	bird	chicken	3	0	2	boats	1	incorrect	2.15731902664993
208084	1	stim155_inanimate_furniture_sofa_3.png	155	inanimate	furniture	sofa	3	0	2	boats	1	incorrect	2.15731902664993
208284	1	stim190_inanimate_tools_pan_2.png	190	inanimate	tools	pan	2	0	2	boats	1	incorrect	2.15731902664993
208484	1	stim157_inanimate_furniture_table_1.png	157	inanimate	furniture	table	1	0	2	boats	1	incorrect	2.15731902664993
208684	1	stim094_animate_mammal_monkey_2.png	94	animate	mammal	monkey	2	0	2	boats	1	incorrect	2.15731902664993
208884	1	stim124_inanimate_fruits_apple_4.png	124	inanimate	fruits	apple	4	0	2	boats	1	incorrect	2.15731902664993
209084	1	stim126_inanimate_fruits_banana_2.png	126	inanimate	fruits	banana	2	0	2	boats	1	incorrect	2.15731902664993
209284	1	stim073_animate_insect_dragonfly_1.png	73	animate	insect	dragonfly	1	0	2	boats	1	incorrect	2.15731902664993
209484	1	stim095_animate_mammal_monkey_3.png	95	animate	mammal	monkey	3	0	2	boats	1	incorrect	2.15731902664993
209684	1	stim078_animate_insect_grasshopper_2.png	78	animate	insect	grasshopper	2	0	2	boats	1	incorrect	2.15731902664993
209884	1	stim004_animate_aquatic_crab_4.png	4	animate	aquatic	crab	4	0	2	boats	1	incorrect	2.15731902664993
210084	1	stim191_inanimate_tools_pan_3.png	191	inanimate	tools	pan	3	0	2	boats	1	incorrect	2.15731902664993
210284	1	stim011_animate_aquatic_seahorse_3.png	11	animate	aquatic	seahorse	3	0	2	boats	1	incorrect	2.15731902664993
210484	1	stim207_targets_object_boats_3.png	207	targets	object	boats	3	1	2	boats	1	incorrect	2.15731902664993
210684	1	stim176_inanimate_plants_tree_4.png	176	inanimate	plants	tree	4	0	2	boats	1	incorrect	2.15731902664993
210884	1	stim140_inanimate_fruits_strawberry_4.png	140	inanimate	fruits	strawberry	4	0	2	boats	1	incorrect	2.15731902664993
211084	1	stim067_animate_insect_bug_3.png	67	animate	insect	bug	3	0	2	boats	1	incorrect	2.15731902664993
211285	1	stim192_inanimate_tools_pan_4.png	192	inanimate	tools	pan	4	0	2	boats	1	incorrect	2.15731902664993
211485	1	stim040_animate_bird_penguin_4.png	40	animate	bird	penguin	4	0	2	boats	1	incorrect	2.15731902664993
211684	1	stim033_animate_bird_peacock_1.png	33	animate	bird	peacock	1	0	2	boats	1	incorrect	2.15731902664993
211885	1	stim042_animate_human_baby_2.png	42	animate	human	baby	2	0	2	boats	1	incorrect	2.15731902664993
212085	1	stim100_animate_mammal_rhino_4.png	100	animate	mammal	rhino	4	0	2	boats	1	incorrect	2.15731902664993
212285	1	stim043_animate_human_baby_3.png	43	animate	human	baby	3	0	2	boats	1	incorrect	2.15731902664993
212485	1	stim123_inanimate_fruits_apple_3.png	123	inanimate	fruits	apple	3	0	2	boats	1	incorrect	2.15731902664993
212685	1	stim143_inanimate_furniture_bed_3.png	143	inanimate	furniture	bed	3	0	2	boats	1	incorrect	2.15731902664993
212885	1	stim072_animate_insect_butterfly_4.png	72	animate	insect	butterfly	4	0	2	boats	1	incorrect	2.15731902664993
213085	1	stim197_inanimate_tools_wrench_1.png	197	inanimate	tools	wrench	1	0	2	boats	1	incorrect	2.15731902664993
213285	1	stim006_animate_aquatic_fish_2.png	6	animate	aquatic	fish	2	0	2	boats	1	incorrect	2.15731902664993
213485	1	stim193_inanimate_tools_scissors_1.png	193	inanimate	tools	scissors	1	0	2	boats	1	incorrect	2.15731902664993
213685	1	stim017_animate_aquatic_shrimp_1.png	17	animate	aquatic	shrimp	1	0	2	boats	1	incorrect	2.15731902664993
213885	1	stim081_animate_mammal_cow_1.png	81	animate	mammal	cow	1	0	2	boats	1	incorrect	2.15731902664993
214085	1	stim142_inanimate_furniture_bed_2.png	142	inanimate	furniture	bed	2	0	2	boats	1	incorrect	2.15731902664993
214285	1	stim182_inanimate_tools_broom_2.png	182	inanimate	tools	broom	2	0	2	boats	1	incorrect	2.15731902664993
214485	1	stim088_animate_mammal_giraffe_4.png	88	animate	mammal	giraffe	4	0	2	boats	1	incorrect	2.15731902664993
214685	1	stim086_animate_mammal_giraffe_2.png	86	animate	mammal	giraffe	2	0	2	boats	1	incorrect	2.15731902664993
214885	1	stim059_animate_human_sports_3.png	59	animate	human	sports	3	0	2	boats	1	incorrect	2.15731902664993
215085	1	stim046_animate_human_child_2.png	46	animate	human	child	2	0	2	boats	1	incorrect	2.15731902664993
215285	1	stim147_inanimate_furniture_chair_3.png	147	inanimate	furniture	chair	3	0	2	boats	1	incorrect	2.15731902664993
215485	1	stim080_animate_insect_grasshopper_4.png	80	animate	insect	grasshopper	4	0	2	boats	1	incorrect	2.15731902664993
215685	1	stim179_inanimate_plants_tulip_3.png	179	inanimate	plants	tulip	3	0	2	boats	1	incorrect	2.15731902664993
215885	1	stim012_animate_aquatic_seahorse_4.png	12	animate	aquatic	seahorse	4	0	2	boats	1	incorrect	2.15731902664993
216085	1	stim052_animate_human_clown_4.png	52	animate	human	clown	4	0	2	boats	1	incorrect	2.15731902664993
216285	1	stim026_animate_bird_duck_2.png	26	animate	bird	duck	2	0	2	boats	1	incorrect	2.15731902664993
216485	1	stim146_inanimate_furniture_chair_2.png	146	inanimate	furniture	chair	2	0	2	boats	1	incorrect	2.15731902664993
216685	1	stim091_animate_mammal_kangaroo_3.png	91	animate	mammal	kangaroo	3	0	2	boats	1	incorrect	2.15731902664993
216885	1	stim041_animate_human_baby_1.png	41	animate	human	baby	1	0	2	boats	1	incorrect	2.15731902664993
217085	1	stim057_animate_human_sports_1.png	57	animate	human	sports	1	0	2	boats	1	incorrect	2.15731902664993
217285	1	stim141_inanimate_furniture_bed_1.png	141	inanimate	furniture	bed	1	0	2	boats	1	incorrect	2.15731902664993
217485	1	stim206_targets_object_boats_2.png	206	targets	object	boats	2	1	2	boats	1	incorrect	2.15731902664993
217685	1	stim076_animate_insect_dragonfly_4.png	76	animate	insect	dragonfly	4	0	2	boats	1	incorrect	2.15731902664993
217885	1	stim014_animate_aquatic_shark_2.png	14	animate	aquatic	shark	2	0	2	boats	1	incorrect	2.15731902664993
218085	1	stim055_animate_human_faces_3.png	55	animate	human	faces	3	0	2	boats	1	incorrect	2.15731902664993
218285	1	stim188_inanimate_tools_hammer_4.png	188	inanimate	tools	hammer	4	0	2	boats	1	incorrect	2.15731902664993
218485	1	stim038_animate_bird_penguin_2.png	38	animate	bird	penguin	2	0	2	boats	1	incorrect	2.15731902664993
218685	1	stim199_inanimate_tools_wrench_3.png	199	inanimate	tools	wrench	3	0	2	boats	1	incorrect	2.15731902664993
218885	1	stim195_inanimate_tools_scissors_3.png	195	inanimate	tools	scissors	3	0	2	boats	1	incorrect	2.15731902664993
219085	1	stim029_animate_bird_parrot_1.png	29	animate	bird	parrot	1	0	2	boats	1	incorrect	2.15731902664993
219285	1	stim101_inanimate_clothing_gloves_1.png	101	inanimate	clothing	gloves	1	0	2	boats	1	incorrect	2.15731902664993
219485	1	stim024_animate_bird_chicken_4.png	24	animate	bird	chicken	4	0	2	boats	1	incorrect	2.15731902664993
219685	1	stim187_inanimate_tools_hammer_3.png	187	inanimate	tools	hammer	3	0	2	boats	1	incorrect	2.15731902664993
219885	1	stim149_inanimate_furniture_closet_1.png	149	inanimate	furniture	closet	1	0	2	boats	1	incorrect	2.15731902664993
220085	1	stim121_inanimate_fruits_apple_1.png	121	inanimate	fruits	apple	1	0	2	boats	1	incorrect	2.15731902664993
220285	1	stim028_animate_bird_duck_4.png	28	animate	bird	duck	4	0	2	boats	1	incorrect	2.15731902664993
220485	1	stim018_animate_aquatic_shrimp_2.png	18	animate	aquatic	shrimp	2	0	2	boats	1	incorrect	2.15731902664993
220685	1	stim162_inanimate_plants_bush_2.png	162	inanimate	plants	bush	2	0	2	boats	1	incorrect	2.15731902664993
220885	1	stim063_animate_insect_ant_3.png	63	animate	insect	ant	3	0	2	boats	1	incorrect	2.15731902664993
221085	1	stim107_inanimate_clothing_hat_3.png	107	inanimate	clothing	hat	3	0	2	boats	1	incorrect	2.15731902664993
221285	1	stim010_animate_aquatic_seahorse_2.png	10	animate	aquatic	seahorse	2	0	2	boats	1	incorrect	2.15731902664993
221485	1	stim045_animate_human_child_1.png	45	animate	human	child	1	0	2	boats	1	incorrect	2.15731902664993
221685	1	stim133_inanimate_fruits_pineapple_1.png	133	inanimate	fruits	pineapple	1	0	2	boats	1	incorrect	2.15731902664993
221885	1	stim198_inanimate_tools_wrench_2.png	198	inanimate	tools	wrench	2	0	2	boats	1	incorrect	2.15731902664993
222085	1	stim189_inanimate_tools_pan_1.png	189	inanimate	tools	pan	1	0	2	boats	1	incorrect	2.15731902664993
222285	1	stim032_animate_bird_parrot_4.png	32	animate	bird	parrot	4	0	2	boats	1	incorrect	2.15731902664993
222485	1	stim122_inanimate_fruits_apple_2.png	122	inanimate	fruits	apple	2	0	2	boats	1	incorrect	2.15731902664993
222685	1	stim062_animate_insect_ant_2.png	62	animate	insect	ant	2	0	2	boats	1	incorrect	2.15731902664993
222885	1	stim013_animate_aquatic_shark_1.png	13	animate	aquatic	shark	1	0	2	boats	1	incorrect	2.15731902664993
223085	1	stim164_inanimate_plants_bush_4.png	164	inanimate	plants	bush	4	0	2	boats	1	incorrect	2.15731902664993
223285	1	stim054_animate_human_faces_2.png	54	animate	human	faces	2	0	2	boats	1	incorrect	2.15731902664993
223485	1	stim137_inanimate_fruits_strawberry_1.png	137	inanimate	fruits	strawberry	1	0	2	boats	1	incorrect	2.15731902664993
223685	1	stim134_inanimate_fruits_pineapple_2.png	134	inanimate	fruits	pineapple	2	0	2	boats	1	incorrect	2.15731902664993
223885	1	stim115_inanimate_clothing_shirt_3.png	115	inanimate	clothing	shirt	3	0	2	boats	1	incorrect	2.15731902664993
224085	1	stim127_inanimate_fruits_banana_3.png	127	inanimate	fruits	banana	3	0	2	boats	1	incorrect	2.15731902664993
224285	1	stim053_animate_human_faces_1.png	53	animate	human	faces	1	0	2	boats	1	incorrect	2.15731902664993
224485	1	stim114_inanimate_clothing_shirt_2.png	114	inanimate	clothing	shirt	2	0	2	boats	1	incorrect	2.15731902664993
224685	1	stim109_inanimate_clothing_jeans_1.png	109	inanimate	clothing	jeans	1	0	2	boats	1	incorrect	2.15731902664993
224885	1	stim002_animate_aquatic_crab_2.png	2	animate	aquatic	crab	2	0	2	boats	1	incorrect	2.15731902664993
225085	1	stim171_inanimate_plants_sunflower_3.png	171	inanimate	plants	sunflower	3	0	2	boats	1	incorrect	2.15731902664993
225285	1	stim077_animate_insect_grasshopper_1.png	77	animate	insect	grasshopper	1	0	2	boats	1	incorrect	2.15731902664993
225485	1	stim154_inanimate_furniture_sofa_2.png	154	inanimate	furniture	sofa	2	0	2	boats	1	incorrect	2.15731902664993
225685	1	stim008_animate_aquatic_fish_4.png	8	animate	aquatic	fish	4	0	2	boats	1	incorrect	2.15731902664993
225885	1	stim135_inanimate_fruits_pineapple_3.png	135	inanimate	fruits	pineapple	3	0	2	boats	1	incorrect	2.15731902664993
226085	1	stim079_animate_insect_grasshopper_3.png	79	animate	insect	grasshopper	3	0	2	boats	1	incorrect	2.15731902664993
226285	1	stim136_inanimate_fruits_pineapple_4.png	136	inanimate	fruits	pineapple	4	0	2	boats	1	incorrect	2.15731902664993
226485	1	stim083_animate_mammal_cow_3.png	83	animate	mammal	cow	3	0	2	boats	1	incorrect	2.15731902664993
226685	1	stim104_inanimate_clothing_gloves_4.png	104	inanimate	clothing	gloves	4	0	2	boats	1	incorrect	2.15731902664993
226885	1	stim120_inanimate_clothing_socks_4.png	120	inanimate	clothing	socks	4	0	2	boats	1	incorrect	2.15731902664993
227085	1	stim031_animate_bird_parrot_3.png	31	animate	bird	parrot	3	0	2	boats	1	incorrect	2.15731902664993
227285	1	stim089_animate_mammal_kangaroo_1.png	89	animate	mammal	kangaroo	1	0	2	boats	1	incorrect	2.15731902664993
227485	1	stim035_animate_bird_peacock_3.png	35	animate	bird	peacock	3	0	2	boats	1	incorrect	2.15731902664993
227685	1	stim027_animate_bird_duck_3.png	27	animate	bird	duck	3	0	2	boats	1	incorrect	2.15731902664993
227885	1	stim169_inanimate_plants_sunflower_1.png	169	inanimate	plants	sunflower	1	0	2	boats	1	incorrect	2.15731902664993
228085	1	stim129_inanimate_fruits_grape_1.png	129	inanimate	fruits	grape	1	0	2	boats	1	incorrect	2.15731902664993
228285	1	stim173_inanimate_plants_tree_1.png	173	inanimate	plants	tree	1	0	2	boats	1	incorrect	2.15731902664993
228485	1	stim148_inanimate_furniture_chair_4.png	148	inanimate	furniture	chair	4	0	2	boats	1	incorrect	2.15731902664993
228685	1	stim102_inanimate_clothing_gloves_2.png	102	inanimate	clothing	gloves	2	0	2	boats	1	incorrect	2.15731902664993
228885	1	stim009_animate_aquatic_seahorse_1.png	9	animate	aquatic	seahorse	1	0	2	boats	1	incorrect	2.15731902664993
229085	1	stim070_animate_insect_butterfly_2.png	70	animate	insect	butterfly	2	0	2	boats	1	incorrect	2.15731902664993
229285	1	stim096_animate_mammal_monkey_4.png	96	animate	mammal	monkey	4	0	2	boats	1	incorrect	2.15731902664993
229485	1	stim159_inanimate_furniture_table_3.png	159	inanimate	furniture	table	3	0	2	boats	1	incorrect	2.15731902664993
229685	1	stim025_animate_bird_duck_1.png	25	animate	bird	duck	1	0	2	boats	1	incorrect	2.15731902664993
229885	1	stim200_inanimate_tools_wrench_4.png	200	inanimate	tools	wrench	4	0	2	boats	1	incorrect	2.15731902664993
230085	1	stim170_inanimate_plants_sunflower_2.png	170	inanimate	plants	sunflower	2	0	2	boats	1	incorrect	2.15731902664993
230285	1	stim075_animate_insect_dragonfly_3.png	75	animate	insect	dragonfly	3	0	2	boats	1	incorrect	2.15731902664993
230485	1	stim177_inanimate_plants_tulip_1.png	177	inanimate	plants	tulip	1	0	2	boats	1	incorrect	2.15731902664993
230685	1	stim144_inanimate_furniture_bed_4.png	144	inanimate	furniture	bed	4	0	2	boats	1	incorrect	2.15731902664993
230885	1	stim084_animate_mammal_cow_4.png	84	animate	mammal	cow	4	0	2	boats	1	incorrect	2.15731902664993
231085	1	stim058_animate_human_sports_2.png	58	animate	human	sports	2	0	2	boats	1	incorrect	2.15731902664993
231285	1	stim056_animate_human_faces_4.png	56	animate	human	faces	4	0	2	boats	1	incorrect	2.15731902664993
231485	1	stim019_animate_aquatic_shrimp_3.png	19	animate	aquatic	shrimp	3	0	2	boats	1	incorrect	2.15731902664993
231685	1	stim005_animate_aquatic_fish_1.png	5	animate	aquatic	fish	1	0	2	boats	1	incorrect	2.15731902664993
231885	1	stim022_animate_bird_chicken_2.png	22	animate	bird	chicken	2	0	2	boats	1	incorrect	2.15731902664993
232085	1	stim150_inanimate_furniture_closet_2.png	150	inanimate	furniture	closet	2	0	2	boats	1	incorrect	2.15731902664993
232285	1	stim158_inanimate_furniture_table_2.png	158	inanimate	furniture	table	2	0	2	boats	1	incorrect	2.15731902664993
232485	1	stim105_inanimate_clothing_hat_1.png	105	inanimate	clothing	hat	1	0	2	boats	1	incorrect	2.15731902664993
232685	1	stim184_inanimate_tools_broom_4.png	184	inanimate	tools	broom	4	0	2	boats	1	incorrect	2.15731902664993
232885	1	stim165_inanimate_plants_cactus_1.png	165	inanimate	plants	cactus	1	0	2	boats	1	incorrect	2.15731902664993
233085	1	stim098_animate_mammal_rhino_2.png	98	animate	mammal	rhino	2	0	2	boats	1	incorrect	2.15731902664993
233285	1	stim066_animate_insect_bug_2.png	66	animate	insect	bug	2	0	2	boats	1	incorrect	2.15731902664993
233485	1	stim051_animate_human_clown_3.png	51	animate	human	clown	3	0	2	boats	1	incorrect	2.15731902664993
233685	1	stim151_inanimate_furniture_closet_3.png	151	inanimate	furniture	closet	3	0	2	boats	1	incorrect	2.15731902664993
233885	1	stim093_animate_mammal_monkey_1.png	93	animate	mammal	monkey	1	0	2	boats	1	incorrect	2.15731902664993
234085	1	stim128_inanimate_fruits_banana_4.png	128	inanimate	fruits	banana	4	0	2	boats	1	incorrect	2.15731902664993
234285	1	stim132_inanimate_fruits_grape_4.png	132	inanimate	fruits	grape	4	0	2	boats	1	incorrect	2.15731902664993
244369	1	stim097_animate_mammal_rhino_1.png	97	animate	mammal	rhino	1	0	3	stars	1	correct	0.705550557468086
244569	1	stim135_inanimate_fruits_pineapple_3.png	135	inanimate	fruits	pineapple	3	0	3	stars	1	correct	0.705550557468086
244769	1	stim157_inanimate_furniture_table_1.png	157	inanimate	furniture	table	1	0	3	stars	1	correct	0.705550557468086
244969	1	stim095_animate_mammal_monkey_3.png	95	animate	mammal	monkey	3	0	3	stars	1	correct	0.705550557468086
245169	1	stim096_animate_mammal_monkey_4.png	96	animate	mammal	monkey	4	0	3	stars	1	correct	0.705550557468086
245369	1	stim187_inanimate_tools_hammer_3.png	187	inanimate	tools	hammer	3	0	3	stars	1	correct	0.705550557468086
245569	1	stim136_inanimate_fruits_pineapple_4.png	136	inanimate	fruits	pineapple	4	0	3	stars	1	correct	0.705550557468086
245769	1	stim183_inanimate_tools_broom_3.png	183	inanimate	tools	broom	3	0	3	stars	1	correct	0.705550557468086
245969	1	stim144_inanimate_furniture_bed_4.png	144	inanimate	furniture	bed	4	0	3	stars	1	correct	0.705550557468086
246169	1	stim002_animate_aquatic_crab_2.png	2	animate	aquatic	crab	2	0	3	stars	1	correct	0.705550557468086
246369	1	stim120_inanimate_clothing_socks_4.png	120	inanimate	clothing	socks	4	0	3	stars	1	correct	0.705550557468086
246569	1	stim005_animate_aquatic_fish_1.png	5	animate	aquatic	fish	1	0	3	stars	1	correct	0.705550557468086
246769	1	stim143_inanimate_furniture_bed_3.png	143	inanimate	furniture	bed	3	0	3	stars	1	correct	0.705550557468086
246969	1	stim069_animate_insect_butterfly_1.png	69	animate	insect	butterfly	1	0	3	stars	1	correct	0.705550557468086
247169	1	stim149_inanimate_furniture_closet_1.png	149	inanimate	furniture	closet	1	0	3	stars	1	correct	0.705550557468086
247369	1	stim145_inanimate_furniture_chair_1.png	145	inanimate	furniture	chair	1	0	3	stars	1	correct	0.705550557468086
247569	1	stim048_animate_human_child_4.png	48	animate	human	child	4	0	3	stars	1	correct	0.705550557468086
247769	1	stim127_inanimate_fruits_banana_3.png	127	inanimate	fruits	banana	3	0	3	stars	1	correct	0.705550557468086
247969	1	stim167_inanimate_plants_cactus_3.png	167	inanimate	plants	cactus	3	0	3	stars	1	correct	0.705550557468086
248169	1	stim132_inanimate_fruits_grape_4.png	132	inanimate	fruits	grape	4	0	3	stars	1	correct	0.705550557468086
248369	1	stim009_animate_aquatic_seahorse_1.png	9	animate	aquatic	seahorse	1	0	3	stars	1	correct	0.705550557468086
248569	1	stim177_inanimate_plants_tulip_1.png	177	inanimate	plants	tulip	1	0	3	stars	1	correct	0.705550557468086
248769	1	stim165_inanimate_plants_cactus_1.png	165	inanimate	plants	cactus	1	0	3	stars	1	correct	0.705550557468086
248969	1	stim053_animate_human_faces_1.png	53	animate	human	faces	1	0	3	stars	1	correct	0.705550557468086
249169	1	stim044_animate_human_baby_4.png	44	animate	human	baby	4	0	3	stars	1	correct	0.705550557468086
249369	1	stim138_inanimate_fruits_strawberry_2.png	138	inanimate	fruits	strawberry	2	0	3	stars	1	correct	0.705550557468086
249569	1	stim194_inanimate_tools_scissors_2.png	194	inanimate	tools	scissors	2	0	3	stars	1	correct	0.705550557468086
249769	1	stim175_inanimate_plants_tree_3.png	175	inanimate	plants	tree	3	0	3	stars	1	correct	0.705550557468086
249969	1	stim024_animate_bird_chicken_4.png	24	animate	bird	chicken	4	0	3	stars	1	correct	0.705550557468086
250169	1	stim154_inanimate_furniture_sofa_2.png	154	inanimate	furniture	sofa	2	0	3	stars	1	correct	0.705550557468086
250369	1	stim074_animate_insect_dragonfly_2.png	74	animate	insect	dragonfly	2	0	3	stars	1	correct	0.705550557468086
250569	1	stim023_animate_bird_chicken_3.png	23	animate	bird	chicken	3	0	3	stars	1	correct	0.705550557468086
250769	1	stim093_animate_mammal_monkey_1.png	93	animate	mammal	monkey	1	0	3	stars	1	correct	0.705550557468086
250969	1	stim156_inanimate_furniture_sofa_4.png	156	inanimate	furniture	sofa	4	0	3	stars	1	correct	0.705550557468086
251169	1	stim176_inanimate_plants_tree_4.png	176	inanimate	plants	tree	4	0	3	stars	1	correct	0.705550557468086
251369	1	stim035_animate_bird_peacock_3.png	35	animate	bird	peacock	3	0	3	stars	1	correct	0.705550557468086
251569	1	stim029_animate_bird_parrot_1.png	29	animate	bird	parrot	1	0	3	stars	1	correct	0.705550557468086
251769	1	stim004_animate_aquatic_crab_4.png	4	animate	aquatic	crab	4	0	3	stars	1	correct	0.705550557468086
251969	1	stim021_animate_bird_chicken_1.png	21	animate	bird	chicken	1	0	3	stars	1	correct	0.705550557468086
252169	1	stim012_animate_aquatic_seahorse_4.png	12	animate	aquatic	seahorse	4	0	3	stars	1	correct	0.705550557468086
252369	1	stim011_animate_aquatic_seahorse_3.png	11	animate	aquatic	seahorse	3	0	3	stars	1	correct	0.705550557468086
252569	1	stim031_animate_bird_parrot_3.png	31	animate	bird	parrot	3	0	3	stars	1	correct	0.705550557468086
252769	1	stim075_animate_insect_dragonfly_3.png	75	animate	insect	dragonfly	3	0	3	stars	1	correct	0.705550557468086
252969	1	stim010_animate_aquatic_seahorse_2.png	10	animate	aquatic	seahorse	2	0	3	stars	1	correct	0.705550557468086
253169	1	stim084_animate_mammal_cow_4.png	84	animate	mammal	cow	4	0	3	stars	1	correct	0.705550557468086
253369	1	stim116_inanimate_clothing_shirt_4.png	116	inanimate	clothing	shirt	4	0	3	stars	1	correct	0.705550557468086
253569	1	stim076_animate_insect_dragonfly_4.png	76	animate	insect	dragonfly	4	0	3	stars	1	correct	0.705550557468086
253769	1	stim171_inanimate_plants_sunflower_3.png	171	inanimate	plants	sunflower	3	0	3	stars	1	correct	0.705550557468086
253969	1	stim032_animate_bird_parrot_4.png	32	animate	bird	parrot	4	0	3	stars	1	correct	0.705550557468086
254169	1	stim146_inanimate_furniture_chair_2.png	146	inanimate	furniture	chair	2	0	3	stars	1	correct	0.705550557468086
254369	1	stim153_inanimate_furniture_sofa_1.png	153	inanimate	furniture	sofa	1	0	3	stars	1	correct	0.705550557468086
254569	1	stim033_animate_bird_peacock_1.png	33	animate	bird	peacock	1	0	3	stars	1	correct	0.705550557468086
254769	1	stim040_animate_bird_penguin_4.png	40	animate	bird	penguin	4	0	3	stars	1	correct	0.705550557468086
254969	1	stim128_inanimate_fruits_banana_4.png	128	inanimate	fruits	banana	4	0	3	stars	1	correct	0.705550557468086
255169	1	stim057_animate_human_sports_1.png	57	animate	human	sports	1	0	3	stars	1	correct	0.705550557468086
255369	1	stim173_inanimate_plants_tree_1.png	173	inanimate	plants	tree	1	0	3	stars	1	correct	0.705550557468086
255569	1	stim066_animate_insect_bug_2.png	66	animate	insect	bug	2	0	3	stars	1	correct	0.705550557468086
255769	1	stim134_inanimate_fruits_pineapple_2.png	134	inanimate	fruits	pineapple	2	0	3	stars	1	correct	0.705550557468086
255969	1	stim188_inanimate_tools_hammer_4.png	188	inanimate	tools	hammer	4	0	3	stars	1	correct	0.705550557468086
256169	1	stim195_inanimate_tools_scissors_3.png	195	inanimate	tools	scissors	3	0	3	stars	1	correct	0.705550557468086
256369	1	stim030_animate_bird_parrot_2.png	30	animate	bird	parrot	2	0	3	stars	1	correct	0.705550557468086
256569	1	stim072_animate_insect_butterfly_4.png	72	animate	insect	butterfly	4	0	3	stars	1	correct	0.705550557468086
256769	1	stim080_animate_insect_grasshopper_4.png	80	animate	insect	grasshopper	4	0	3	stars	1	correct	0.705550557468086
256969	1	stim186_inanimate_tools_hammer_2.png	186	inanimate	tools	hammer	2	0	3	stars	1	correct	0.705550557468086
257169	1	stim161_inanimate_plants_bush_1.png	161	inanimate	plants	bush	1	0	3	stars	1	correct	0.705550557468086
257369	1	stim050_animate_human_clown_2.png	50	animate	human	clown	2	0	3	stars	1	correct	0.705550557468086
257569	1	stim104_inanimate_clothing_gloves_4.png	104	inanimate	clothing	gloves	4	0	3	stars	1	correct	0.705550557468086
257769	1	stim142_inanimate_furniture_bed_2.png	142	inanimate	furniture	bed	2	0	3	stars	1	correct	0.705550557468086
257969	1	stim092_animate_mammal_kangaroo_4.png	92	animate	mammal	kangaroo	4	0	3	stars	1	correct	0.705550557468086
258169	1	stim130_inanimate_fruits_grape_2.png	130	inanimate	fruits	grape	2	0	3	stars	1	correct	0.705550557468086
258369	1	stim022_animate_bird_chicken_2.png	22	animate	bird	chicken	2	0	3	stars	1	correct	0.705550557468086
258569	1	stim151_inanimate_furniture_closet_3.png	151	inanimate	furniture	closet	3	0	3	stars	1	correct	0.705550557468086
258769	1	stim067_animate_insect_bug_3.png	67	animate	insect	bug	3	0	3	stars	1	correct	0.705550557468086
258969	1	stim189_inanimate_tools_pan_1.png	189	inanimate	tools	pan	1	0	3	stars	1	correct	0.705550557468086
259169	1	stim085_animate_mammal_giraffe_1.png	85	animate	mammal	giraffe	1	0	3	stars	1	correct	0.705550557468086
259369	1	stim108_inanimate_clothing_hat_4.png	108	inanimate	clothing	hat	4	0	3	stars	1	correct	0.705550557468086
259569	1	stim047_animate_human_child_3.png	47	animate	human	child	3	0	3	stars	1	correct	0.705550557468086
259769	1	stim043_animate_human_baby_3.png	43	animate	human	baby	3	0	3	stars	1	correct	0.705550557468086
259969	1	stim007_animate_aquatic_fish_3.png	7	animate	aquatic	fish	3	0	3	stars	1	correct	0.705550557468086
260169	1	stim054_animate_human_faces_2.png	54	animate	human	faces	2	0	3	stars	1	correct	0.705550557468086
260369	1	stim070_animate_insect_butterfly_2.png	70	animate	insect	butterfly	2	0	3	stars	1	correct	0.705550557468086
260569	1	stim086_animate_mammal_giraffe_2.png	86	animate	mammal	giraffe	2	0	3	stars	1	correct	0.705550557468086
260769	1	stim001_animate_aquatic_crab_1.png	1	animate	aquatic	crab	1	0	3	stars	1	correct	0.705550557468086
260969	1	stim199_inanimate_tools_wrench_3.png	199	inanimate	tools	wrench	3	0	3	stars	1	correct	0.705550557468086
261169	1	stim083_animate_mammal_cow_3.png	83	animate	mammal	cow	3	0	3	stars	1	correct	0.705550557468086
261369	1	stim150_inanimate_furniture_closet_2.png	150	inanimate	furniture	closet	2	0	3	stars	1	correct	0.705550557468086
261569	1	stim094_animate_mammal_monkey_2.png	94	animate	mammal	monkey	2	0	3	stars	1	correct	0.705550557468086
261769	1	stim063_animate_insect_ant_3.png	63	animate	insect	ant	3	0	3	stars	1	correct	0.705550557468086
261969	1	stim091_animate_mammal_kangaroo_3.png	91	animate	mammal	kangaroo	3	0	3	stars	1	correct	0.705550557468086
262169	1	stim088_animate_mammal_giraffe_4.png	88	animate	mammal	giraffe	4	0	3	stars	1	correct	0.705550557468086
262369	1	stim166_inanimate_plants_cactus_2.png	166	inanimate	plants	cactus	2	0	3	stars	1	correct	0.705550557468086
262569	1	stim169_inanimate_plants_sunflower_1.png	169	inanimate	plants	sunflower	1	0	3	stars	1	correct	0.705550557468086
262769	1	stim018_animate_aquatic_shrimp_2.png	18	animate	aquatic	shrimp	2	0	3	stars	1	correct	0.705550557468086
262969	1	stim014_animate_aquatic_shark_2.png	14	animate	aquatic	shark	2	0	3	stars	1	correct	0.705550557468086
263169	1	stim212_targets_shapes_star_4.png	212	targets	shapes	star	4	1	3	stars	1	correct	0.705550557468086
263369	1	stim036_animate_bird_peacock_4.png	36	animate	bird	peacock	4	0	3	stars	1	correct	0.705550557468086
263569	1	stim162_inanimate_plants_bush_2.png	162	inanimate	plants	bush	2	0	3	stars	1	correct	0.705550557468086
263769	1	stim059_animate_human_sports_3.png	59	animate	human	sports	3	0	3	stars	1	correct	0.705550557468086
263969	1	stim049_animate_human_clown_1.png	49	animate	human	clown	1	0	3	stars	1	correct	0.705550557468086
264169	1	stim019_animate_aquatic_shrimp_3.png	19	animate	aquatic	shrimp	3	0	3	stars	1	correct	0.705550557468086
264369	1	stim089_animate_mammal_kangaroo_1.png	89	animate	mammal	kangaroo	1	0	3	stars	1	correct	0.705550557468086
264569	1	stim107_inanimate_clothing_hat_3.png	107	inanimate	clothing	hat	3	0	3	stars	1	correct	0.705550557468086
264769	1	stim172_inanimate_plants_sunflower_4.png	172	inanimate	plants	sunflower	4	0	3	stars	1	correct	0.705550557468086
264969	1	stim198_inanimate_tools_wrench_2.png	198	inanimate	tools	wrench	2	0	3	stars	1	correct	0.705550557468086
265169	1	stim192_inanimate_tools_pan_4.png	192	inanimate	tools	pan	4	0	3	stars	1	correct	0.705550557468086
265369	1	stim179_inanimate_plants_tulip_3.png	179	inanimate	plants	tulip	3	0	3	stars	1	correct	0.705550557468086
265569	1	stim026_animate_bird_duck_2.png	26	animate	bird	duck	2	0	3	stars	1	correct	0.705550557468086
265769	1	stim065_animate_insect_bug_1.png	65	animate	insect	bug	1	0	3	stars	1	correct	0.705550557468086
265969	1	stim003_animate_aquatic_crab_3.png	3	animate	aquatic	crab	3	0	3	stars	1	correct	0.705550557468086
266169	1	stim098_animate_mammal_rhino_2.png	98	animate	mammal	rhino	2	0	3	stars	1	correct	0.705550557468086
266369	1	stim051_animate_human_clown_3.png	51	animate	human	clown	3	0	3	stars	1	correct	0.705550557468086
266569	1	stim105_inanimate_clothing_hat_1.png	105	inanimate	clothing	hat	1	0	3	stars	1	correct	0.705550557468086
266769	1	stim182_inanimate_tools_broom_2.png	182	inanimate	tools	broom	2	0	3	stars	1	correct	0.705550557468086
266969	1	stim164_inanimate_plants_bush_4.png	164	inanimate	plants	bush	4	0	3	stars	1	correct	0.705550557468086
267169	1	stim008_animate_aquatic_fish_4.png	8	animate	aquatic	fish	4	0	3	stars	1	correct	0.705550557468086
267369	1	stim168_inanimate_plants_cactus_4.png	168	inanimate	plants	cactus	4	0	3	stars	1	correct	0.705550557468086
267569	1	stim015_animate_aquatic_shark_3.png	15	animate	aquatic	shark	3	0	3	stars	1	correct	0.705550557468086
267769	1	stim100_animate_mammal_rhino_4.png	100	animate	mammal	rhino	4	0	3	stars	1	correct	0.705550557468086
267969	1	stim006_animate_aquatic_fish_2.png	6	animate	aquatic	fish	2	0	3	stars	1	correct	0.705550557468086
268169	1	stim090_animate_mammal_kangaroo_2.png	90	animate	mammal	kangaroo	2	0	3	stars	1	correct	0.705550557468086
268369	1	stim159_inanimate_furniture_table_3.png	159	inanimate	furniture	table	3	0	3	stars	1	correct	0.705550557468086
268569	1	stim111_inanimate_clothing_jeans_3.png	111	inanimate	clothing	jeans	3	0	3	stars	1	correct	0.705550557468086
268769	1	stim114_inanimate_clothing_shirt_2.png	114	inanimate	clothing	shirt	2	0	3	stars	1	correct	0.705550557468086
268969	1	stim122_inanimate_fruits_apple_2.png	122	inanimate	fruits	apple	2	0	3	stars	1	correct	0.705550557468086
269169	1	stim178_inanimate_plants_tulip_2.png	178	inanimate	plants	tulip	2	0	3	stars	1	correct	0.705550557468086
269369	1	stim039_animate_bird_penguin_3.png	39	animate	bird	penguin	3	0	3	stars	1	correct	0.705550557468086
269569	1	stim160_inanimate_furniture_table_4.png	160	inanimate	furniture	table	4	0	3	stars	1	correct	0.705550557468086
269769	1	stim078_animate_insect_grasshopper_2.png	78	animate	insect	grasshopper	2	0	3	stars	1	correct	0.705550557468086
269969	1	stim141_inanimate_furniture_bed_1.png	141	inanimate	furniture	bed	1	0	3	stars	1	correct	0.705550557468086
270169	1	stim017_animate_aquatic_shrimp_1.png	17	animate	aquatic	shrimp	1	0	3	stars	1	correct	0.705550557468086
270369	1	stim034_animate_bird_peacock_2.png	34	animate	bird	peacock	2	0	3	stars	1	correct	0.705550557468086
270569	1	stim121_inanimate_fruits_apple_1.png	121	inanimate	fruits	apple	1	0	3	stars	1	correct	0.705550557468086
270769	1	stim155_inanimate_furniture_sofa_3.png	155	inanimate	furniture	sofa	3	0	3	stars	1	correct	0.705550557468086
270969	1	stim126_inanimate_fruits_banana_2.png	126	inanimate	fruits	banana	2	0	3	stars	1	correct	0.705550557468086
271169	1	stim113_inanimate_clothing_shirt_1.png	113	inanimate	clothing	shirt	1	0	3	stars	1	correct	0.705550557468086
271369	1	stim191_inanimate_tools_pan_3.png	191	inanimate	tools	pan	3	0	3	stars	1	correct	0.705550557468086
271569	1	stim042_animate_human_baby_2.png	42	animate	human	baby	2	0	3	stars	1	correct	0.705550557468086
271769	1	stim061_animate_insect_ant_1.png	61	animate	insect	ant	1	0	3	stars	1	correct	0.705550557468086
271969	1	stim139_inanimate_fruits_strawberry_3.png	139	inanimate	fruits	strawberry	3	0	3	stars	1	correct	0.705550557468086
272169	1	stim037_animate_bird_penguin_1.png	37	animate	bird	penguin	1	0	3	stars	1	correct	0.705550557468086
272369	1	stim184_inanimate_tools_broom_4.png	184	inanimate	tools	broom	4	0	3	stars	1	correct	0.705550557468086
272569	1	stim137_inanimate_fruits_strawberry_1.png	137	inanimate	fruits	strawberry	1	0	3	stars	1	correct	0.705550557468086
272769	1	stim052_animate_human_clown_4.png	52	animate	human	clown	4	0	3	stars	1	correct	0.705550557468086
272969	1	stim190_inanimate_tools_pan_2.png	190	inanimate	tools	pan	2	0	3	stars	1	correct	0.705550557468086
273169	1	stim082_animate_mammal_cow_2.png	82	animate	mammal	cow	2	0	3	stars	1	correct	0.705550557468086
273369	1	stim124_inanimate_fruits_apple_4.png	124	inanimate	fruits	apple	4	0	3	stars	1	correct	0.705550557468086
273569	1	stim115_inanimate_clothing_shirt_3.png	115	inanimate	clothing	shirt	3	0	3	stars	1	correct	0.705550557468086
273769	1	stim081_animate_mammal_cow_1.png	81	animate	mammal	cow	1	0	3	stars	1	correct	0.705550557468086
273969	1	stim079_animate_insect_grasshopper_3.png	79	animate	insect	grasshopper	3	0	3	stars	1	correct	0.705550557468086
274169	1	stim103_inanimate_clothing_gloves_3.png	103	inanimate	clothing	gloves	3	0	3	stars	1	correct	0.705550557468086
274369	1	stim025_animate_bird_duck_1.png	25	animate	bird	duck	1	0	3	stars	1	correct	0.705550557468086
274569	1	stim140_inanimate_fruits_strawberry_4.png	140	inanimate	fruits	strawberry	4	0	3	stars	1	correct	0.705550557468086
274769	1	stim131_inanimate_fruits_grape_3.png	131	inanimate	fruits	grape	3	0	3	stars	1	correct	0.705550557468086
274969	1	stim073_animate_insect_dragonfly_1.png	73	animate	insect	dragonfly	1	0	3	stars	1	correct	0.705550557468086
275169	1	stim064_animate_insect_ant_4.png	64	animate	insect	ant	4	0	3	stars	1	correct	0.705550557468086
275369	1	stim020_animate_aquatic_shrimp_4.png	20	animate	aquatic	shrimp	4	0	3	stars	1	correct	0.705550557468086
275569	1	stim027_animate_bird_duck_3.png	27	animate	bird	duck	3	0	3	stars	1	correct	0.705550557468086
275769	1	stim133_inanimate_fruits_pineapple_1.png	133	inanimate	fruits	pineapple	1	0	3	stars	1	correct	0.705550557468086
275969	1	stim196_inanimate_tools_scissors_4.png	196	inanimate	tools	scissors	4	0	3	stars	1	correct	0.705550557468086
276169	1	stim200_inanimate_tools_wrench_4.png	200	inanimate	tools	wrench	4	0	3	stars	1	correct	0.705550557468086
276369	1	stim077_animate_insect_grasshopper_1.png	77	animate	insect	grasshopper	1	0	3	stars	1	correct	0.705550557468086
276569	1	stim117_inanimate_clothing_socks_1.png	117	inanimate	clothing	socks	1	0	3	stars	1	correct	0.705550557468086
276769	1	stim193_inanimate_tools_scissors_1.png	193	inanimate	tools	scissors	1	0	3	stars	1	correct	0.705550557468086
276969	1	stim099_animate_mammal_rhino_3.png	99	animate	mammal	rhino	3	0	3	stars	1	correct	0.705550557468086
277169	1	stim181_inanimate_tools_broom_1.png	181	inanimate	tools	broom	1	0	3	stars	1	correct	0.705550557468086
277369	1	stim147_inanimate_furniture_chair_3.png	147	inanimate	furniture	chair	3	0	3	stars	1	correct	0.705550557468086
277569	1	stim062_animate_insect_ant_2.png	62	animate	insect	ant	2	0	3	stars	1	correct	0.705550557468086
277769	1	stim148_inanimate_furniture_chair_4.png	148	inanimate	furniture	chair	4	0	3	stars	1	correct	0.705550557468086
277969	1	stim046_animate_human_child_2.png	46	animate	human	child	2	0	3	stars	1	correct	0.705550557468086
278169	1	stim123_inanimate_fruits_apple_3.png	123	inanimate	fruits	apple	3	0	3	stars	1	correct	0.705550557468086
278369	1	stim109_inanimate_clothing_jeans_1.png	109	inanimate	clothing	jeans	1	0	3	stars	1	correct	0.705550557468086
278569	1	stim087_animate_mammal_giraffe_3.png	87	animate	mammal	giraffe	3	0	3	stars	1	correct	0.705550557468086
278769	1	stim028_animate_bird_duck_4.png	28	animate	bird	duck	4	0	3	stars	1	correct	0.705550557468086
278969	1	stim112_inanimate_clothing_jeans_4.png	112	inanimate	clothing	jeans	4	0	3	stars	1	correct	0.705550557468086
279169	1	stim125_inanimate_fruits_banana_1.png	125	inanimate	fruits	banana	1	0	3	stars	1	correct	0.705550557468086
279369	1	stim071_animate_insect_butterfly_3.png	71	animate	insect	butterfly	3	0	3	stars	1	correct	0.705550557468086
279569	1	stim158_inanimate_furniture_table_2.png	158	inanimate	furniture	table	2	0	3	stars	1	correct	0.705550557468086
279769	1	stim041_animate_human_baby_1.png	41	animate	human	baby	1	0	3	stars	1	correct	0.705550557468086
279969	1	stim118_inanimate_clothing_socks_2.png	118	inanimate	clothing	socks	2	0	3	stars	1	correct	0.705550557468086
280169	1	stim110_inanimate_clothing_jeans_2.png	110	inanimate	clothing	jeans	2	0	3	stars	1	correct	0.705550557468086
280369	1	stim129_inanimate_fruits_grape_1.png	129	inanimate	fruits	grape	1	0	3	stars	1	correct	0.705550557468086
280569	1	stim060_animate_human_sports_4.png	60	animate	human	sports	4	0	3	stars	1	correct	0.705550557468086
280769	1	stim163_inanimate_plants_bush_3.png	163	inanimate	plants	bush	3	0	3	stars	1	correct	0.705550557468086
280969	1	stim170_inanimate_plants_sunflower_2.png	170	inanimate	plants	sunflower	2	0	3	stars	1	correct	0.705550557468086
281169	1	stim152_inanimate_furniture_closet_4.png	152	inanimate	furniture	closet	4	0	3	stars	1	correct	0.705550557468086
281369	1	stim102_inanimate_clothing_gloves_2.png	102	inanimate	clothing	gloves	2	0	3	stars	1	correct	0.705550557468086
281569	1	stim013_animate_aquatic_shark_1.png	13	animate	aquatic	shark	1	0	3	stars	1	correct	0.705550557468086
281769	1	stim119_inanimate_clothing_socks_3.png	119	inanimate	clothing	socks	3	0	3	stars	1	correct	0.705550557468086
281969	1	stim197_inanimate_tools_wrench_1.png	197	inanimate	tools	wrench	1	0	3	stars	1	correct	0.705550557468086
282169	1	stim068_animate_insect_bug_4.png	68	animate	insect	bug	4	0	3	stars	1	correct	0.705550557468086
282370	1	stim038_animate_bird_penguin_2.png	38	animate	bird	penguin	2	0	3	stars	1	correct	0.705550557468086
282569	1	stim058_animate_human_sports_2.png	58	animate	human	sports	2	0	3	stars	1	correct	0.705550557468086
282769	1	stim185_inanimate_tools_hammer_1.png	185	inanimate	tools	hammer	1	0	3	stars	1	correct	0.705550557468086
282969	1	stim045_animate_human_child_1.png	45	animate	human	child	1	0	3	stars	1	correct	0.705550557468086
283169	1	stim016_animate_aquatic_shark_4.png	16	animate	aquatic	shark	4	0	3	stars	1	correct	0.705550557468086
283369	1	stim055_animate_human_faces_3.png	55	animate	human	faces	3	0	3	stars	1	correct	0.705550557468086
283570	1	stim106_inanimate_clothing_hat_2.png	106	inanimate	clothing	hat	2	0	3	stars	1	correct	0.705550557468086
283769	1	stim101_inanimate_clothing_gloves_1.png	101	inanimate	clothing	gloves	1	0	3	stars	1	correct	0.705550557468086
283969	1	stim174_inanimate_plants_tree_2.png	174	inanimate	plants	tree	2	0	3	stars	1	correct	0.705550557468086
284170	1	stim056_animate_human_faces_4.png	56	animate	human	faces	4	0	3	stars	1	correct	0.705550557468086
284370	1	stim180_inanimate_plants_tulip_4.png	180	inanimate	plants	tulip	4	0	3	stars	1	correct	0.705550557468086
289220	1	stim158_inanimate_furniture_table_2.png	158	inanimate	furniture	table	2	0	4	boats	1	incorrect	2.02693944028579
289420	1	stim077_animate_insect_grasshopper_1.png	77	animate	insect	grasshopper	1	0	4	boats	1	incorrect	2.02693944028579
289620	1	stim024_animate_bird_chicken_4.png	24	animate	bird	chicken	4	0	4	boats	1	incorrect	2.02693944028579
289820	1	stim197_inanimate_tools_wrench_1.png	197	inanimate	tools	wrench	1	0	4	boats	1	incorrect	2.02693944028579
290020	1	stim132_inanimate_fruits_grape_4.png	132	inanimate	fruits	grape	4	0	4	boats	1	incorrect	2.02693944028579
290220	1	stim062_animate_insect_ant_2.png	62	animate	insect	ant	2	0	4	boats	1	incorrect	2.02693944028579
290420	1	stim168_inanimate_plants_cactus_4.png	168	inanimate	plants	cactus	4	0	4	boats	1	incorrect	2.02693944028579
290620	1	stim006_animate_aquatic_fish_2.png	6	animate	aquatic	fish	2	0	4	boats	1	incorrect	2.02693944028579
290820	1	stim196_inanimate_tools_scissors_4.png	196	inanimate	tools	scissors	4	0	4	boats	1	incorrect	2.02693944028579
291020	1	stim073_animate_insect_dragonfly_1.png	73	animate	insect	dragonfly	1	0	4	boats	1	incorrect	2.02693944028579
291220	1	stim031_animate_bird_parrot_3.png	31	animate	bird	parrot	3	0	4	boats	1	incorrect	2.02693944028579
291420	1	stim030_animate_bird_parrot_2.png	30	animate	bird	parrot	2	0	4	boats	1	incorrect	2.02693944028579
291620	1	stim173_inanimate_plants_tree_1.png	173	inanimate	plants	tree	1	0	4	boats	1	incorrect	2.02693944028579
291820	1	stim088_animate_mammal_giraffe_4.png	88	animate	mammal	giraffe	4	0	4	boats	1	incorrect	2.02693944028579
292020	1	stim159_inanimate_furniture_table_3.png	159	inanimate	furniture	table	3	0	4	boats	1	incorrect	2.02693944028579
292220	1	stim149_inanimate_furniture_closet_1.png	149	inanimate	furniture	closet	1	0	4	boats	1	incorrect	2.02693944028579
292420	1	stim098_animate_mammal_rhino_2.png	98	animate	mammal	rhino	2	0	4	boats	1	incorrect	2.02693944028579
292620	1	stim100_animate_mammal_rhino_4.png	100	animate	mammal	rhino	4	0	4	boats	1	incorrect	2.02693944028579
292820	1	stim130_inanimate_fruits_grape_2.png	130	inanimate	fruits	grape	2	0	4	boats	1	incorrect	2.02693944028579
293020	1	stim076_animate_insect_dragonfly_4.png	76	animate	insect	dragonfly	4	0	4	boats	1	incorrect	2.02693944028579
293220	1	stim184_inanimate_tools_broom_4.png	184	inanimate	tools	broom	4	0	4	boats	1	incorrect	2.02693944028579
293420	1	stim069_animate_insect_butterfly_1.png	69	animate	insect	butterfly	1	0	4	boats	1	incorrect	2.02693944028579
293620	1	stim162_inanimate_plants_bush_2.png	162	inanimate	plants	bush	2	0	4	boats	1	incorrect	2.02693944028579
293820	1	stim194_inanimate_tools_scissors_2.png	194	inanimate	tools	scissors	2	0	4	boats	1	incorrect	2.02693944028579
294020	1	stim042_animate_human_baby_2.png	42	animate	human	baby	2	0	4	boats	1	incorrect	2.02693944028579
294220	1	stim087_animate_mammal_giraffe_3.png	87	animate	mammal	giraffe	3	0	4	boats	1	incorrect	2.02693944028579
294420	1	stim007_animate_aquatic_fish_3.png	7	animate	aquatic	fish	3	0	4	boats	1	incorrect	2.02693944028579
294620	1	stim064_animate_insect_ant_4.png	64	animate	insect	ant	4	0	4	boats	1	incorrect	2.02693944028579
294820	1	stim038_animate_bird_penguin_2.png	38	animate	bird	penguin	2	0	4	boats	1	incorrect	2.02693944028579
295020	1	stim043_animate_human_baby_3.png	43	animate	human	baby	3	0	4	boats	1	incorrect	2.02693944028579
295220	1	stim124_inanimate_fruits_apple_4.png	124	inanimate	fruits	apple	4	0	4	boats	1	incorrect	2.02693944028579
295420	1	stim174_inanimate_plants_tree_2.png	174	inanimate	plants	tree	2	0	4	boats	1	incorrect	2.02693944028579
295620	1	stim164_inanimate_plants_bush_4.png	164	inanimate	plants	bush	4	0	4	boats	1	incorrect	2.02693944028579
295820	1	stim050_animate_human_clown_2.png	50	animate	human	clown	2	0	4	boats	1	incorrect	2.02693944028579
296020	1	stim051_animate_human_clown_3.png	51	animate	human	clown	3	0	4	boats	1	incorrect	2.02693944028579
296220	1	stim052_animate_human_clown_4.png	52	animate	human	clown	4	0	4	boats	1	incorrect	2.02693944028579
296420	1	stim187_inanimate_tools_hammer_3.png	187	inanimate	tools	hammer	3	0	4	boats	1	incorrect	2.02693944028579
296620	1	stim200_inanimate_tools_wrench_4.png	200	inanimate	tools	wrench	4	0	4	boats	1	incorrect	2.02693944028579
296820	1	stim123_inanimate_fruits_apple_3.png	123	inanimate	fruits	apple	3	0	4	boats	1	incorrect	2.02693944028579
297020	1	stim150_inanimate_furniture_closet_2.png	150	inanimate	furniture	closet	2	0	4	boats	1	incorrect	2.02693944028579
297220	1	stim065_animate_insect_bug_1.png	65	animate	insect	bug	1	0	4	boats	1	incorrect	2.02693944028579
297420	1	stim190_inanimate_tools_pan_2.png	190	inanimate	tools	pan	2	0	4	boats	1	incorrect	2.02693944028579
297620	1	stim015_animate_aquatic_shark_3.png	15	animate	aquatic	shark	3	0	4	boats	1	incorrect	2.02693944028579
297820	1	stim037_animate_bird_penguin_1.png	37	animate	bird	penguin	1	0	4	boats	1	incorrect	2.02693944028579
298020	1	stim045_animate_human_child_1.png	45	animate	human	child	1	0	4	boats	1	incorrect	2.02693944028579
298220	1	stim155_inanimate_furniture_sofa_3.png	155	inanimate	furniture	sofa	3	0	4	boats	1	incorrect	2.02693944028579
298420	1	stim078_animate_insect_grasshopper_2.png	78	animate	insect	grasshopper	2	0	4	boats	1	incorrect	2.02693944028579
298620	1	stim072_animate_insect_butterfly_4.png	72	animate	insect	butterfly	4	0	4	boats	1	incorrect	2.02693944028579
298820	1	stim140_inanimate_fruits_strawberry_4.png	140	inanimate	fruits	strawberry	4	0	4	boats	1	incorrect	2.02693944028579
299020	1	stim003_animate_aquatic_crab_3.png	3	animate	aquatic	crab	3	0	4	boats	1	incorrect	2.02693944028579
299220	1	stim175_inanimate_plants_tree_3.png	175	inanimate	plants	tree	3	0	4	boats	1	incorrect	2.02693944028579
299420	1	stim195_inanimate_tools_scissors_3.png	195	inanimate	tools	scissors	3	0	4	boats	1	incorrect	2.02693944028579
299620	1	stim172_inanimate_plants_sunflower_4.png	172	inanimate	plants	sunflower	4	0	4	boats	1	incorrect	2.02693944028579
299820	1	stim161_inanimate_plants_bush_1.png	161	inanimate	plants	bush	1	0	4	boats	1	incorrect	2.02693944028579
300020	1	stim176_inanimate_plants_tree_4.png	176	inanimate	plants	tree	4	0	4	boats	1	incorrect	2.02693944028579
300220	1	stim160_inanimate_furniture_table_4.png	160	inanimate	furniture	table	4	0	4	boats	1	incorrect	2.02693944028579
300420	1	stim145_inanimate_furniture_chair_1.png	145	inanimate	furniture	chair	1	0	4	boats	1	incorrect	2.02693944028579
300620	1	stim059_animate_human_sports_3.png	59	animate	human	sports	3	0	4	boats	1	incorrect	2.02693944028579
300820	1	stim142_inanimate_furniture_bed_2.png	142	inanimate	furniture	bed	2	0	4	boats	1	incorrect	2.02693944028579
301020	1	stim183_inanimate_tools_broom_3.png	183	inanimate	tools	broom	3	0	4	boats	1	incorrect	2.02693944028579
301220	1	stim143_inanimate_furniture_bed_3.png	143	inanimate	furniture	bed	3	0	4	boats	1	incorrect	2.02693944028579
301420	1	stim055_animate_human_faces_3.png	55	animate	human	faces	3	0	4	boats	1	incorrect	2.02693944028579
301620	1	stim013_animate_aquatic_shark_1.png	13	animate	aquatic	shark	1	0	4	boats	1	incorrect	2.02693944028579
301820	1	stim025_animate_bird_duck_1.png	25	animate	bird	duck	1	0	4	boats	1	incorrect	2.02693944028579
302020	1	stim208_targets_object_boats_4.png	208	targets	object	boats	4	1	4	boats	1	incorrect	2.02693944028579
302220	1	stim170_inanimate_plants_sunflower_2.png	170	inanimate	plants	sunflower	2	0	4	boats	1	incorrect	2.02693944028579
302420	1	stim199_inanimate_tools_wrench_3.png	199	inanimate	tools	wrench	3	0	4	boats	1	incorrect	2.02693944028579
302620	1	stim099_animate_mammal_rhino_3.png	99	animate	mammal	rhino	3	0	4	boats	1	incorrect	2.02693944028579
302820	1	stim189_inanimate_tools_pan_1.png	189	inanimate	tools	pan	1	0	4	boats	1	incorrect	2.02693944028579
303020	1	stim148_inanimate_furniture_chair_4.png	148	inanimate	furniture	chair	4	0	4	boats	1	incorrect	2.02693944028579
303220	1	stim147_inanimate_furniture_chair_3.png	147	inanimate	furniture	chair	3	0	4	boats	1	incorrect	2.02693944028579
303420	1	stim010_animate_aquatic_seahorse_2.png	10	animate	aquatic	seahorse	2	0	4	boats	1	incorrect	2.02693944028579
303620	1	stim036_animate_bird_peacock_4.png	36	animate	bird	peacock	4	0	4	boats	1	incorrect	2.02693944028579
303820	1	stim090_animate_mammal_kangaroo_2.png	90	animate	mammal	kangaroo	2	0	4	boats	1	incorrect	2.02693944028579
304020	1	stim144_inanimate_furniture_bed_4.png	144	inanimate	furniture	bed	4	0	4	boats	1	incorrect	2.02693944028579
304220	1	stim114_inanimate_clothing_shirt_2.png	114	inanimate	clothing	shirt	2	0	4	boats	1	incorrect	2.02693944028579
304420	1	stim039_animate_bird_penguin_3.png	39	animate	bird	penguin	3	0	4	boats	1	incorrect	2.02693944028579
304620	1	stim117_inanimate_clothing_socks_1.png	117	inanimate	clothing	socks	1	0	4	boats	1	incorrect	2.02693944028579
304820	1	stim154_inanimate_furniture_sofa_2.png	154	inanimate	furniture	sofa	2	0	4	boats	1	incorrect	2.02693944028579
305020	1	stim115_inanimate_clothing_shirt_3.png	115	inanimate	clothing	shirt	3	0	4	boats	1	incorrect	2.02693944028579
305220	1	stim163_inanimate_plants_bush_3.png	163	inanimate	plants	bush	3	0	4	boats	1	incorrect	2.02693944028579
305420	1	stim166_inanimate_plants_cactus_2.png	166	inanimate	plants	cactus	2	0	4	boats	1	incorrect	2.02693944028579
305620	1	stim096_animate_mammal_monkey_4.png	96	animate	mammal	monkey	4	0	4	boats	1	incorrect	2.02693944028579
305820	1	stim027_animate_bird_duck_3.png	27	animate	bird	duck	3	0	4	boats	1	incorrect	2.02693944028579
306020	1	stim113_inanimate_clothing_shirt_1.png	113	inanimate	clothing	shirt	1	0	4	boats	1	incorrect	2.02693944028579
306220	1	stim008_animate_aquatic_fish_4.png	8	animate	aquatic	fish	4	0	4	boats	1	incorrect	2.02693944028579
306420	1	stim167_inanimate_plants_cactus_3.png	167	inanimate	plants	cactus	3	0	4	boats	1	incorrect	2.02693944028579
306620	1	stim101_inanimate_clothing_gloves_1.png	101	inanimate	clothing	gloves	1	0	4	boats	1	incorrect	2.02693944028579
306820	1	stim009_animate_aquatic_seahorse_1.png	9	animate	aquatic	seahorse	1	0	4	boats	1	incorrect	2.02693944028579
307020	1	stim165_inanimate_plants_cactus_1.png	165	inanimate	plants	cactus	1	0	4	boats	1	incorrect	2.02693944028579
307220	1	stim014_animate_aquatic_shark_2.png	14	animate	aquatic	shark	2	0	4	boats	1	incorrect	2.02693944028579
307420	1	stim188_inanimate_tools_hammer_4.png	188	inanimate	tools	hammer	4	0	4	boats	1	incorrect	2.02693944028579
307620	1	stim040_animate_bird_penguin_4.png	40	animate	bird	penguin	4	0	4	boats	1	incorrect	2.02693944028579
307820	1	stim001_animate_aquatic_crab_1.png	1	animate	aquatic	crab	1	0	4	boats	1	incorrect	2.02693944028579
308020	1	stim137_inanimate_fruits_strawberry_1.png	137	inanimate	fruits	strawberry	1	0	4	boats	1	incorrect	2.02693944028579
308220	1	stim017_animate_aquatic_shrimp_1.png	17	animate	aquatic	shrimp	1	0	4	boats	1	incorrect	2.02693944028579
308420	1	stim066_animate_insect_bug_2.png	66	animate	insect	bug	2	0	4	boats	1	incorrect	2.02693944028579
308620	1	stim048_animate_human_child_4.png	48	animate	human	child	4	0	4	boats	1	incorrect	2.02693944028579
308820	1	stim060_animate_human_sports_4.png	60	animate	human	sports	4	0	4	boats	1	incorrect	2.02693944028579
309020	1	stim091_animate_mammal_kangaroo_3.png	91	animate	mammal	kangaroo	3	0	4	boats	1	incorrect	2.02693944028579
309220	1	stim107_inanimate_clothing_hat_3.png	107	inanimate	clothing	hat	3	0	4	boats	1	incorrect	2.02693944028579
309420	1	stim032_animate_bird_parrot_4.png	32	animate	bird	parrot	4	0	4	boats	1	incorrect	2.02693944028579
309620	1	stim046_animate_human_child_2.png	46	animate	human	child	2	0	4	boats	1	incorrect	2.02693944028579
309820	1	stim131_inanimate_fruits_grape_3.png	131	inanimate	fruits	grape	3	0	4	boats	1	incorrect	2.02693944028579
310020	1	stim141_inanimate_furniture_bed_1.png	141	inanimate	furniture	bed	1	0	4	boats	1	incorrect	2.02693944028579
310220	1	stim097_animate_mammal_rhino_1.png	97	animate	mammal	rhino	1	0	4	boats	1	incorrect	2.02693944028579
310420	1	stim071_animate_insect_butterfly_3.png	71	animate	insect	butterfly	3	0	4	boats	1	incorrect	2.02693944028579
310620	1	stim126_inanimate_fruits_banana_2.png	126	inanimate	fruits	banana	2	0	4	boats	1	incorrect	2.02693944028579
310820	1	stim136_inanimate_fruits_pineapple_4.png	136	inanimate	fruits	pineapple	4	0	4	boats	1	incorrect	2.02693944028579
311020	1	stim021_animate_bird_chicken_1.png	21	animate	bird	chicken	1	0	4	boats	1	incorrect	2.02693944028579
311220	1	stim094_animate_mammal_monkey_2.png	94	animate	mammal	monkey	2	0	4	boats	1	incorrect	2.02693944028579
311420	1	stim029_animate_bird_parrot_1.png	29	animate	bird	parrot	1	0	4	boats	1	incorrect	2.02693944028579
311620	1	stim153_inanimate_furniture_sofa_1.png	153	inanimate	furniture	sofa	1	0	4	boats	1	incorrect	2.02693944028579
311820	1	stim068_animate_insect_bug_4.png	68	animate	insect	bug	4	0	4	boats	1	incorrect	2.02693944028579
312020	1	stim181_inanimate_tools_broom_1.png	181	inanimate	tools	broom	1	0	4	boats	1	incorrect	2.02693944028579
312220	1	stim129_inanimate_fruits_grape_1.png	129	inanimate	fruits	grape	1	0	4	boats	1	incorrect	2.02693944028579
312420	1	stim105_inanimate_clothing_hat_1.png	105	inanimate	clothing	hat	1	0	4	boats	1	incorrect	2.02693944028579
312620	1	stim049_animate_human_clown_1.png	49	animate	human	clown	1	0	4	boats	1	incorrect	2.02693944028579
312820	1	stim083_animate_mammal_cow_3.png	83	animate	mammal	cow	3	0	4	boats	1	incorrect	2.02693944028579
313020	1	stim203_targets_object_boats_3.png	203	targets	object	boats	3	1	4	boats	1	incorrect	2.02693944028579
313220	1	stim102_inanimate_clothing_gloves_2.png	102	inanimate	clothing	gloves	2	0	4	boats	1	incorrect	2.02693944028579
313420	1	stim028_animate_bird_duck_4.png	28	animate	bird	duck	4	0	4	boats	1	incorrect	2.02693944028579
313620	1	stim108_inanimate_clothing_hat_4.png	108	inanimate	clothing	hat	4	0	4	boats	1	incorrect	2.02693944028579
313820	1	stim002_animate_aquatic_crab_2.png	2	animate	aquatic	crab	2	0	4	boats	1	incorrect	2.02693944028579
314020	1	stim146_inanimate_furniture_chair_2.png	146	inanimate	furniture	chair	2	0	4	boats	1	incorrect	2.02693944028579
314220	1	stim063_animate_insect_ant_3.png	63	animate	insect	ant	3	0	4	boats	1	incorrect	2.02693944028579
314420	1	stim054_animate_human_faces_2.png	54	animate	human	faces	2	0	4	boats	1	incorrect	2.02693944028579
314620	1	stim058_animate_human_sports_2.png	58	animate	human	sports	2	0	4	boats	1	incorrect	2.02693944028579
314820	1	stim074_animate_insect_dragonfly_2.png	74	animate	insect	dragonfly	2	0	4	boats	1	incorrect	2.02693944028579
315020	1	stim056_animate_human_faces_4.png	56	animate	human	faces	4	0	4	boats	1	incorrect	2.02693944028579
315220	1	stim026_animate_bird_duck_2.png	26	animate	bird	duck	2	0	4	boats	1	incorrect	2.02693944028579
315420	1	stim061_animate_insect_ant_1.png	61	animate	insect	ant	1	0	4	boats	1	incorrect	2.02693944028579
315620	1	stim193_inanimate_tools_scissors_1.png	193	inanimate	tools	scissors	1	0	4	boats	1	incorrect	2.02693944028579
315820	1	stim169_inanimate_plants_sunflower_1.png	169	inanimate	plants	sunflower	1	0	4	boats	1	incorrect	2.02693944028579
316020	1	stim111_inanimate_clothing_jeans_3.png	111	inanimate	clothing	jeans	3	0	4	boats	1	incorrect	2.02693944028579
316220	1	stim128_inanimate_fruits_banana_4.png	128	inanimate	fruits	banana	4	0	4	boats	1	incorrect	2.02693944028579
316420	1	stim075_animate_insect_dragonfly_3.png	75	animate	insect	dragonfly	3	0	4	boats	1	incorrect	2.02693944028579
316620	1	stim093_animate_mammal_monkey_1.png	93	animate	mammal	monkey	1	0	4	boats	1	incorrect	2.02693944028579
316820	1	stim084_animate_mammal_cow_4.png	84	animate	mammal	cow	4	0	4	boats	1	incorrect	2.02693944028579
317020	1	stim095_animate_mammal_monkey_3.png	95	animate	mammal	monkey	3	0	4	boats	1	incorrect	2.02693944028579
317220	1	stim135_inanimate_fruits_pineapple_3.png	135	inanimate	fruits	pineapple	3	0	4	boats	1	incorrect	2.02693944028579
317420	1	stim089_animate_mammal_kangaroo_1.png	89	animate	mammal	kangaroo	1	0	4	boats	1	incorrect	2.02693944028579
317620	1	stim152_inanimate_furniture_closet_4.png	152	inanimate	furniture	closet	4	0	4	boats	1	incorrect	2.02693944028579
317820	1	stim034_animate_bird_peacock_2.png	34	animate	bird	peacock	2	0	4	boats	1	incorrect	2.02693944028579
318020	1	stim022_animate_bird_chicken_2.png	22	animate	bird	chicken	2	0	4	boats	1	incorrect	2.02693944028579
318220	1	stim151_inanimate_furniture_closet_3.png	151	inanimate	furniture	closet	3	0	4	boats	1	incorrect	2.02693944028579
318420	1	stim057_animate_human_sports_1.png	57	animate	human	sports	1	0	4	boats	1	incorrect	2.02693944028579
318620	1	stim047_animate_human_child_3.png	47	animate	human	child	3	0	4	boats	1	incorrect	2.02693944028579
318820	1	stim185_inanimate_tools_hammer_1.png	185	inanimate	tools	hammer	1	0	4	boats	1	incorrect	2.02693944028579
319020	1	stim127_inanimate_fruits_banana_3.png	127	inanimate	fruits	banana	3	0	4	boats	1	incorrect	2.02693944028579
319220	1	stim070_animate_insect_butterfly_2.png	70	animate	insect	butterfly	2	0	4	boats	1	incorrect	2.02693944028579
319420	1	stim171_inanimate_plants_sunflower_3.png	171	inanimate	plants	sunflower	3	0	4	boats	1	incorrect	2.02693944028579
319620	1	stim121_inanimate_fruits_apple_1.png	121	inanimate	fruits	apple	1	0	4	boats	1	incorrect	2.02693944028579
319820	1	stim138_inanimate_fruits_strawberry_2.png	138	inanimate	fruits	strawberry	2	0	4	boats	1	incorrect	2.02693944028579
320020	1	stim016_animate_aquatic_shark_4.png	16	animate	aquatic	shark	4	0	4	boats	1	incorrect	2.02693944028579
320220	1	stim023_animate_bird_chicken_3.png	23	animate	bird	chicken	3	0	4	boats	1	incorrect	2.02693944028579
320420	1	stim157_inanimate_furniture_table_1.png	157	inanimate	furniture	table	1	0	4	boats	1	incorrect	2.02693944028579
320620	1	stim011_animate_aquatic_seahorse_3.png	11	animate	aquatic	seahorse	3	0	4	boats	1	incorrect	2.02693944028579
320820	1	stim191_inanimate_tools_pan_3.png	191	inanimate	tools	pan	3	0	4	boats	1	incorrect	2.02693944028579
321020	1	stim067_animate_insect_bug_3.png	67	animate	insect	bug	3	0	4	boats	1	incorrect	2.02693944028579
321220	1	stim112_inanimate_clothing_jeans_4.png	112	inanimate	clothing	jeans	4	0	4	boats	1	incorrect	2.02693944028579
321420	1	stim044_animate_human_baby_4.png	44	animate	human	baby	4	0	4	boats	1	incorrect	2.02693944028579
321620	1	stim186_inanimate_tools_hammer_2.png	186	inanimate	tools	hammer	2	0	4	boats	1	incorrect	2.02693944028579
321820	1	stim085_animate_mammal_giraffe_1.png	85	animate	mammal	giraffe	1	0	4	boats	1	incorrect	2.02693944028579
322020	1	stim041_animate_human_baby_1.png	41	animate	human	baby	1	0	4	boats	1	incorrect	2.02693944028579
322220	1	stim053_animate_human_faces_1.png	53	animate	human	faces	1	0	4	boats	1	incorrect	2.02693944028579
322420	1	stim019_animate_aquatic_shrimp_3.png	19	animate	aquatic	shrimp	3	0	4	boats	1	incorrect	2.02693944028579
322620	1	stim081_animate_mammal_cow_1.png	81	animate	mammal	cow	1	0	4	boats	1	incorrect	2.02693944028579
322820	1	stim192_inanimate_tools_pan_4.png	192	inanimate	tools	pan	4	0	4	boats	1	incorrect	2.02693944028579
323020	1	stim005_animate_aquatic_fish_1.png	5	animate	aquatic	fish	1	0	4	boats	1	incorrect	2.02693944028579
323220	1	stim177_inanimate_plants_tulip_1.png	177	inanimate	plants	tulip	1	0	4	boats	1	incorrect	2.02693944028579
323420	1	stim198_inanimate_tools_wrench_2.png	198	inanimate	tools	wrench	2	0	4	boats	1	incorrect	2.02693944028579
323620	1	stim103_inanimate_clothing_gloves_3.png	103	inanimate	clothing	gloves	3	0	4	boats	1	incorrect	2.02693944028579
323820	1	stim018_animate_aquatic_shrimp_2.png	18	animate	aquatic	shrimp	2	0	4	boats	1	incorrect	2.02693944028579
324020	1	stim092_animate_mammal_kangaroo_4.png	92	animate	mammal	kangaroo	4	0	4	boats	1	incorrect	2.02693944028579
324220	1	stim106_inanimate_clothing_hat_2.png	106	inanimate	clothing	hat	2	0	4	boats	1	incorrect	2.02693944028579
324420	1	stim110_inanimate_clothing_jeans_2.png	110	inanimate	clothing	jeans	2	0	4	boats	1	incorrect	2.02693944028579
324620	1	stim116_inanimate_clothing_shirt_4.png	116	inanimate	clothing	shirt	4	0	4	boats	1	incorrect	2.02693944028579
324820	1	stim182_inanimate_tools_broom_2.png	182	inanimate	tools	broom	2	0	4	boats	1	incorrect	2.02693944028579
325020	1	stim179_inanimate_plants_tulip_3.png	179	inanimate	plants	tulip	3	0	4	boats	1	incorrect	2.02693944028579
325220	1	stim086_animate_mammal_giraffe_2.png	86	animate	mammal	giraffe	2	0	4	boats	1	incorrect	2.02693944028579
325420	1	stim133_inanimate_fruits_pineapple_1.png	133	inanimate	fruits	pineapple	1	0	4	boats	1	incorrect	2.02693944028579
325620	1	stim082_animate_mammal_cow_2.png	82	animate	mammal	cow	2	0	4	boats	1	incorrect	2.02693944028579
325820	1	stim120_inanimate_clothing_socks_4.png	120	inanimate	clothing	socks	4	0	4	boats	1	incorrect	2.02693944028579
326020	1	stim125_inanimate_fruits_banana_1.png	125	inanimate	fruits	banana	1	0	4	boats	1	incorrect	2.02693944028579
326220	1	stim122_inanimate_fruits_apple_2.png	122	inanimate	fruits	apple	2	0	4	boats	1	incorrect	2.02693944028579
326420	1	stim119_inanimate_clothing_socks_3.png	119	inanimate	clothing	socks	3	0	4	boats	1	incorrect	2.02693944028579
326620	1	stim109_inanimate_clothing_jeans_1.png	109	inanimate	clothing	jeans	1	0	4	boats	1	incorrect	2.02693944028579
326821	1	stim004_animate_aquatic_crab_4.png	4	animate	aquatic	crab	4	0	4	boats	1	incorrect	2.02693944028579
327020	1	stim080_animate_insect_grasshopper_4.png	80	animate	insect	grasshopper	4	0	4	boats	1	incorrect	2.02693944028579
327221	1	stim104_inanimate_clothing_gloves_4.png	104	inanimate	clothing	gloves	4	0	4	boats	1	incorrect	2.02693944028579
327421	1	stim020_animate_aquatic_shrimp_4.png	20	animate	aquatic	shrimp	4	0	4	boats	1	incorrect	2.02693944028579
327621	1	stim035_animate_bird_peacock_3.png	35	animate	bird	peacock	3	0	4	boats	1	incorrect	2.02693944028579
327821	1	stim156_inanimate_furniture_sofa_4.png	156	inanimate	furniture	sofa	4	0	4	boats	1	incorrect	2.02693944028579
328021	1	stim118_inanimate_clothing_socks_2.png	118	inanimate	clothing	socks	2	0	4	boats	1	incorrect	2.02693944028579
328221	1	stim180_inanimate_plants_tulip_4.png	180	inanimate	plants	tulip	4	0	4	boats	1	incorrect	2.02693944028579
328421	1	stim139_inanimate_fruits_strawberry_3.png	139	inanimate	fruits	strawberry	3	0	4	boats	1	incorrect	2.02693944028579
328621	1	stim178_inanimate_plants_tulip_2.png	178	inanimate	plants	tulip	2	0	4	boats	1	incorrect	2.02693944028579
328820	1	stim033_animate_bird_peacock_1.png	33	animate	bird	peacock	1	0	4	boats	1	incorrect	2.02693944028579
329021	1	stim012_animate_aquatic_seahorse_4.png	12	animate	aquatic	seahorse	4	0	4	boats	1	incorrect	2.02693944028579
329221	1	stim134_inanimate_fruits_pineapple_2.png	134	inanimate	fruits	pineapple	2	0	4	boats	1	incorrect	2.02693944028579
329421	1	stim079_animate_insect_grasshopper_3.png	79	animate	insect	grasshopper	3	0	4	boats	1	incorrect	2.02693944028579
336004	1	stim180_inanimate_plants_tulip_4.png	180	inanimate	plants	tulip	4	0	5	boats	2	correct	0.805892621632665
336204	1	stim068_animate_insect_bug_4.png	68	animate	insect	bug	4	0	5	boats	2	correct	0.805892621632665
336404	1	stim030_animate_bird_parrot_2.png	30	animate	bird	parrot	2	0	5	boats	2	correct	0.805892621632665
336604	1	stim087_animate_mammal_giraffe_3.png	87	animate	mammal	giraffe	3	0	5	boats	2	correct	0.805892621632665
336804	1	stim006_animate_aquatic_fish_2.png	6	animate	aquatic	fish	2	0	5	boats	2	correct	0.805892621632665
337004	1	stim153_inanimate_furniture_sofa_1.png	153	inanimate	furniture	sofa	1	0	5	boats	2	correct	0.805892621632665
337204	1	stim103_inanimate_clothing_gloves_3.png	103	inanimate	clothing	gloves	3	0	5	boats	2	correct	0.805892621632665
337404	1	stim135_inanimate_fruits_pineapple_3.png	135	inanimate	fruits	pineapple	3	0	5	boats	2	correct	0.805892621632665
337604	1	stim004_animate_aquatic_crab_4.png	4	animate	aquatic	crab	4	0	5	boats	2	correct	0.805892621632665
337804	1	stim143_inanimate_furniture_bed_3.png	143	inanimate	furniture	bed	3	0	5	boats	2	correct	0.805892621632665
338004	1	stim080_animate_insect_grasshopper_4.png	80	animate	insect	grasshopper	4	0	5	boats	2	correct	0.805892621632665
338204	1	stim057_animate_human_sports_1.png	57	animate	human	sports	1	0	5	boats	2	correct	0.805892621632665
338404	1	stim132_inanimate_fruits_grape_4.png	132	inanimate	fruits	grape	4	0	5	boats	2	correct	0.805892621632665
338604	1	stim194_inanimate_tools_scissors_2.png	194	inanimate	tools	scissors	2	0	5	boats	2	correct	0.805892621632665
338804	1	stim104_inanimate_clothing_gloves_4.png	104	inanimate	clothing	gloves	4	0	5	boats	2	correct	0.805892621632665
339004	1	stim167_inanimate_plants_cactus_3.png	167	inanimate	plants	cactus	3	0	5	boats	2	correct	0.805892621632665
339204	1	stim186_inanimate_tools_hammer_2.png	186	inanimate	tools	hammer	2	0	5	boats	2	correct	0.805892621632665
339404	1	stim066_animate_insect_bug_2.png	66	animate	insect	bug	2	0	5	boats	2	correct	0.805892621632665
339604	1	stim017_animate_aquatic_shrimp_1.png	17	animate	aquatic	shrimp	1	0	5	boats	2	correct	0.805892621632665
339804	1	stim102_inanimate_clothing_gloves_2.png	102	inanimate	clothing	gloves	2	0	5	boats	2	correct	0.805892621632665
340004	1	stim109_inanimate_clothing_jeans_1.png	109	inanimate	clothing	jeans	1	0	5	boats	2	correct	0.805892621632665
340204	1	stim095_animate_mammal_monkey_3.png	95	animate	mammal	monkey	3	0	5	boats	2	correct	0.805892621632665
340404	1	stim096_animate_mammal_monkey_4.png	96	animate	mammal	monkey	4	0	5	boats	2	correct	0.805892621632665
340604	1	stim022_animate_bird_chicken_2.png	22	animate	bird	chicken	2	0	5	boats	2	correct	0.805892621632665
340804	1	stim093_animate_mammal_monkey_1.png	93	animate	mammal	monkey	1	0	5	boats	2	correct	0.805892621632665
341004	1	stim065_animate_insect_bug_1.png	65	animate	insect	bug	1	0	5	boats	2	correct	0.805892621632665
341204	1	stim062_animate_insect_ant_2.png	62	animate	insect	ant	2	0	5	boats	2	correct	0.805892621632665
341404	1	stim046_animate_human_child_2.png	46	animate	human	child	2	0	5	boats	2	correct	0.805892621632665
341604	1	stim001_animate_aquatic_crab_1.png	1	animate	aquatic	crab	1	0	5	boats	2	correct	0.805892621632665
341804	1	stim018_animate_aquatic_shrimp_2.png	18	animate	aquatic	shrimp	2	0	5	boats	2	correct	0.805892621632665
342004	1	stim081_animate_mammal_cow_1.png	81	animate	mammal	cow	1	0	5	boats	2	correct	0.805892621632665
342204	1	stim016_animate_aquatic_shark_4.png	16	animate	aquatic	shark	4	0	5	boats	2	correct	0.805892621632665
342404	1	stim141_inanimate_furniture_bed_1.png	141	inanimate	furniture	bed	1	0	5	boats	2	correct	0.805892621632665
342604	1	stim005_animate_aquatic_fish_1.png	5	animate	aquatic	fish	1	0	5	boats	2	correct	0.805892621632665
342804	1	stim166_inanimate_plants_cactus_2.png	166	inanimate	plants	cactus	2	0	5	boats	2	correct	0.805892621632665
343004	1	stim053_animate_human_faces_1.png	53	animate	human	faces	1	0	5	boats	2	correct	0.805892621632665
343204	1	stim002_animate_aquatic_crab_2.png	2	animate	aquatic	crab	2	0	5	boats	2	correct	0.805892621632665
343404	1	stim163_inanimate_plants_bush_3.png	163	inanimate	plants	bush	3	0	5	boats	2	correct	0.805892621632665
343604	1	stim164_inanimate_plants_bush_4.png	164	inanimate	plants	bush	4	0	5	boats	2	correct	0.805892621632665
343804	1	stim040_animate_bird_penguin_4.png	40	animate	bird	penguin	4	0	5	boats	2	correct	0.805892621632665
344004	1	stim019_animate_aquatic_shrimp_3.png	19	animate	aquatic	shrimp	3	0	5	boats	2	correct	0.805892621632665
344204	1	stim198_inanimate_tools_wrench_2.png	198	inanimate	tools	wrench	2	0	5	boats	2	correct	0.805892621632665
344404	1	stim026_animate_bird_duck_2.png	26	animate	bird	duck	2	0	5	boats	2	correct	0.805892621632665
344604	1	stim008_animate_aquatic_fish_4.png	8	animate	aquatic	fish	4	0	5	boats	2	correct	0.805892621632665
344804	1	stim172_inanimate_plants_sunflower_4.png	172	inanimate	plants	sunflower	4	0	5	boats	2	correct	0.805892621632665
345004	1	stim129_inanimate_fruits_grape_1.png	129	inanimate	fruits	grape	1	0	5	boats	2	correct	0.805892621632665
345204	1	stim043_animate_human_baby_3.png	43	animate	human	baby	3	0	5	boats	2	correct	0.805892621632665
345404	1	stim159_inanimate_furniture_table_3.png	159	inanimate	furniture	table	3	0	5	boats	2	correct	0.805892621632665
345604	1	stim069_animate_insect_butterfly_1.png	69	animate	insect	butterfly	1	0	5	boats	2	correct	0.805892621632665
345804	1	stim089_animate_mammal_kangaroo_1.png	89	animate	mammal	kangaroo	1	0	5	boats	2	correct	0.805892621632665
346004	1	stim145_inanimate_furniture_chair_1.png	145	inanimate	furniture	chair	1	0	5	boats	2	correct	0.805892621632665
346204	1	stim117_inanimate_clothing_socks_1.png	117	inanimate	clothing	socks	1	0	5	boats	2	correct	0.805892621632665
346404	1	stim171_inanimate_plants_sunflower_3.png	171	inanimate	plants	sunflower	3	0	5	boats	2	correct	0.805892621632665
346604	1	stim098_animate_mammal_rhino_2.png	98	animate	mammal	rhino	2	0	5	boats	2	correct	0.805892621632665
346804	1	stim056_animate_human_faces_4.png	56	animate	human	faces	4	0	5	boats	2	correct	0.805892621632665
347004	1	stim099_animate_mammal_rhino_3.png	99	animate	mammal	rhino	3	0	5	boats	2	correct	0.805892621632665
347204	1	stim059_animate_human_sports_3.png	59	animate	human	sports	3	0	5	boats	2	correct	0.805892621632665
347404	1	stim028_animate_bird_duck_4.png	28	animate	bird	duck	4	0	5	boats	2	correct	0.805892621632665
347604	1	stim179_inanimate_plants_tulip_3.png	179	inanimate	plants	tulip	3	0	5	boats	2	correct	0.805892621632665
347804	1	stim156_inanimate_furniture_sofa_4.png	156	inanimate	furniture	sofa	4	0	5	boats	2	correct	0.805892621632665
348004	1	stim112_inanimate_clothing_jeans_4.png	112	inanimate	clothing	jeans	4	0	5	boats	2	correct	0.805892621632665
348204	1	stim154_inanimate_furniture_sofa_2.png	154	inanimate	furniture	sofa	2	0	5	boats	2	correct	0.805892621632665
348404	1	stim208_targets_object_boats_4.png	208	targets	object	boats	4	1	5	boats	2	correct	0.805892621632665
348604	1	stim195_inanimate_tools_scissors_3.png	195	inanimate	tools	scissors	3	0	5	boats	2	correct	0.805892621632665
348804	1	stim075_animate_insect_dragonfly_3.png	75	animate	insect	dragonfly	3	0	5	boats	2	correct	0.805892621632665
349004	1	stim138_inanimate_fruits_strawberry_2.png	138	inanimate	fruits	strawberry	2	0	5	boats	2	correct	0.805892621632665
349204	1	stim021_animate_bird_chicken_1.png	21	animate	bird	chicken	1	0	5	boats	2	correct	0.805892621632665
349404	1	stim077_animate_insect_grasshopper_1.png	77	animate	insect	grasshopper	1	0	5	boats	2	correct	0.805892621632665
349604	1	stim052_animate_human_clown_4.png	52	animate	human	clown	4	0	5	boats	2	correct	0.805892621632665
349804	1	stim041_animate_human_baby_1.png	41	animate	human	baby	1	0	5	boats	2	correct	0.805892621632665
350004	1	stim182_inanimate_tools_broom_2.png	182	inanimate	tools	broom	2	0	5	boats	2	correct	0.805892621632665
350204	1	stim055_animate_human_faces_3.png	55	animate	human	faces	3	0	5	boats	2	correct	0.805892621632665
350404	1	stim047_animate_human_child_3.png	47	animate	human	child	3	0	5	boats	2	correct	0.805892621632665
350604	1	stim174_inanimate_plants_tree_2.png	174	inanimate	plants	tree	2	0	5	boats	2	correct	0.805892621632665
350804	1	stim091_animate_mammal_kangaroo_3.png	91	animate	mammal	kangaroo	3	0	5	boats	2	correct	0.805892621632665
351004	1	stim162_inanimate_plants_bush_2.png	162	inanimate	plants	bush	2	0	5	boats	2	correct	0.805892621632665
351204	1	stim038_animate_bird_penguin_2.png	38	animate	bird	penguin	2	0	5	boats	2	correct	0.805892621632665
351404	1	stim108_inanimate_clothing_hat_4.png	108	inanimate	clothing	hat	4	0	5	boats	2	correct	0.805892621632665
351604	1	stim130_inanimate_fruits_grape_2.png	130	inanimate	fruits	grape	2	0	5	boats	2	correct	0.805892621632665
