onset	duration	stimulusname	stimulusnumber	levelA	levelB	levelC	withinexemplarnumber	istarget	trialnumber	condition	response	correct	rt
64369	1	stim099_animate_mammal_rhino_3.png	99	animate	mammal	rhino	3	0	1	stars	3	correct	0.700985162053257
64419	1	stim124_inanimate_fruits_apple_4.png	124	inanimate	fruits	apple	4	0	1	stars	3	correct	0.700985162053257
64469	1	stim184_inanimate_tools_broom_4.png	184	inanimate	tools	broom	4	0	1	stars	3	correct	0.700985162053257
64519	1	stim057_animate_human_sports_1.png	57	animate	human	sports	1	0	1	stars	3	correct	0.700985162053257
64569	1	stim102_inanimate_clothing_gloves_2.png	102	inanimate	clothing	gloves	2	0	1	stars	3	correct	0.700985162053257
64619	1	stim181_inanimate_tools_broom_1.png	181	inanimate	tools	broom	1	0	1	stars	3	correct	0.700985162053257
64669	1	stim144_inanimate_furniture_bed_4.png	144	inanimate	furniture	bed	4	0	1	stars	3	correct	0.700985162053257
64719	1	stim044_animate_human_baby_4.png	44	animate	human	baby	4	0	1	stars	3	correct	0.700985162053257
64769	1	stim196_inanimate_tools_scissors_4.png	196	inanimate	tools	scissors	4	0	1	stars	3	correct	0.700985162053257
64819	1	stim098_animate_mammal_rhino_2.png	98	animate	mammal	rhino	2	0	1	stars	3	correct	0.700985162053257
64869	1	stim063_animate_insect_ant_3.png	63	animate	insect	ant	3	0	1	stars	3	correct	0.700985162053257
64919	1	stim086_animate_mammal_giraffe_2.png	86	animate	mammal	giraffe	2	0	1	stars	3	correct	0.700985162053257
64969	1	stim199_inanimate_tools_wrench_3.png	199	inanimate	tools	wrench	3	0	1	stars	3	correct	0.700985162053257
65019	1	stim187_inanimate_tools_hammer_3.png	187	inanimate	tools	hammer	3	0	1	stars	3	correct	0.700985162053257
65069	1	stim167_inanimate_plants_cactus_3.png	167	inanimate	plants	cactus	3	0	1	stars	3	correct	0.700985162053257
65119	1	stim076_animate_insect_dragonfly_4.png	76	animate	insect	dragonfly	4	0	1	stars	3	correct	0.700985162053257
65169	1	stim092_animate_mammal_kangaroo_4.png	92	animate	mammal	kangaroo	4	0	1	stars	3	correct	0.700985162053257
65219	1	stim198_inanimate_tools_wrench_2.png	198	inanimate	tools	wrench	2	0	1	stars	3	correct	0.700985162053257
65269	1	stim066_animate_insect_bug_2.png	66	animate	insect	bug	2	0	1	stars	3	correct	0.700985162053257
65319	1	stim157_inanimate_furniture_table_1.png	157	inanimate	furniture	table	1	0	1	stars	3	correct	0.700985162053257
65369	1	stim190_inanimate_tools_pan_2.png	190	inanimate	tools	pan	2	0	1	stars	3	correct	0.700985162053257
65419	1	stim135_inanimate_fruits_pineapple_3.png	135	inanimate	fruits	pineapple	3	0	1	stars	3	correct	0.700985162053257
65469	1	stim120_inanimate_clothing_socks_4.png	120	inanimate	clothing	socks	4	0	1	stars	3	correct	0.700985162053257
65519	1	stim042_animate_human_baby_2.png	42	animate	human	baby	2	0	1	stars	3	correct	0.700985162053257
65569	1	stim060_animate_human_sports_4.png	60	animate	human	sports	4	0	1	stars	3	correct	0.700985162053257
65619	1	stim067_animate_insect_bug_3.png	67	animate	insect	bug	3	0	1	stars	3	correct	0.700985162053257
65669	1	stim193_inanimate_tools_scissors_1.png	193	inanimate	tools	scissors	1	0	1	stars	3	correct	0.700985162053257
65719	1	stim103_inanimate_clothing_gloves_3.png	103	inanimate	clothing	gloves	3	0	1	stars	3	correct	0.700985162053257
65769	1	stim037_animate_bird_penguin_1.png	37	animate	bird	penguin	1	0	1	stars	3	correct	0.700985162053257
65819	1	stim155_inanimate_furniture_sofa_3.png	155	inanimate	furniture	sofa	3	0	1	stars	3	correct	0.700985162053257
65869	1	stim160_inanimate_furniture_table_4.png	160	inanimate	furniture	table	4	0	1	stars	3	correct	0.700985162053257
65919	1	stim073_animate_insect_dragonfly_1.png	73	animate	insect	dragonfly	1	0	1	stars	3	correct	0.700985162053257
65969	1	stim039_animate_bird_penguin_3.png	39	animate	bird	penguin	3	0	1	stars	3	correct	0.700985162053257
66019	1	stim080_animate_insect_grasshopper_4.png	80	animate	insect	grasshopper	4	0	1	stars	3	correct	0.700985162053257
66069	1	stim108_inanimate_clothing_hat_4.png	108	inanimate	clothing	hat	4	0	1	stars	3	correct	0.700985162053257
66119	1	stim176_inanimate_plants_tree_4.png	176	inanimate	plants	tree	4	0	1	stars	3	correct	0.700985162053257
66169	1	stim133_inanimate_fruits_pineapple_1.png	133	inanimate	fruits	pineapple	1	0	1	stars	3	correct	0.700985162053257
66219	1	stim003_animate_aquatic_crab_3.png	3	animate	aquatic	crab	3	0	1	stars	3	correct	0.700985162053257
66269	1	stim081_animate_mammal_cow_1.png	81	animate	mammal	cow	1	0	1	stars	3	correct	0.700985162053257
66319	1	stim008_animate_aquatic_fish_4.png	8	animate	aquatic	fish	4	0	1	stars	3	correct	0.700985162053257
66369	1	stim054_animate_human_faces_2.png	54	animate	human	faces	2	0	1	stars	3	correct	0.700985162053257
66419	1	stim019_animate_aquatic_shrimp_3.png	19	animate	aquatic	shrimp	3	0	1	stars	3	correct	0.700985162053257
66469	1	stim174_inanimate_plants_tree_2.png	174	inanimate	plants	tree	2	0	1	stars	3	correct	0.700985162053257
66519	1	stim094_animate_mammal_monkey_2.png	94	animate	mammal	monkey	2	0	1	stars	3	correct	0.700985162053257
66569	1	stim126_inanimate_fruits_banana_2.png	126	inanimate	fruits	banana	2	0	1	stars	3	correct	0.700985162053257
66619	1	stim179_inanimate_plants_tulip_3.png	179	inanimate	plants	tulip	3	0	1	stars	3	correct	0.700985162053257
66669	1	stim089_animate_mammal_kangaroo_1.png	89	animate	mammal	kangaroo	1	0	1	stars	3	correct	0.700985162053257
66719	1	stim078_animate_insect_grasshopper_2.png	78	animate	insect	grasshopper	2	0	1	stars	3	correct	0.700985162053257
66769	1	stim152_inanimate_furniture_closet_4.png	152	inanimate	furniture	closet	4	0	1	stars	3	correct	0.700985162053257
66819	1	stim178_inanimate_plants_tulip_2.png	178	inanimate	plants	tulip	2	0	1	stars	3	correct	0.700985162053257
66869	1	stim010_animate_aquatic_seahorse_2.png	10	animate	aquatic	seahorse	2	0	1	stars	3	correct	0.700985162053257
66919	1	stim166_inanimate_plants_cactus_2.png	166	inanimate	plants	cactus	2	0	1	stars	3	correct	0.700985162053257
66969	1	stim104_inanimate_clothing_gloves_4.png	104	inanimate	clothing	gloves	4	0	1	stars	3	correct	0.700985162053257
67019	1	stim210_targets_shapes_star_2.png	210	targets	shapes	star	2	1	1	stars	3	correct	0.700985162053257
67069	1	stim182_inanimate_tools_broom_2.png	182	inanimate	tools	broom	2	0	1	stars	3	correct	0.700985162053257
67119	1	stim188_inanimate_tools_hammer_4.png	188	inanimate	tools	hammer	4	0	1	stars	3	correct	0.700985162053257
67169	1	stim111_inanimate_clothing_jeans_3.png	111	inanimate	clothing	jeans	3	0	1	stars	3	correct	0.700985162053257
67219	1	stim065_animate_insect_bug_1.png	65	animate	insect	bug	1	0	1	stars	3	correct	0.700985162053257
67269	1	stim035_animate_bird_peacock_3.png	35	animate	bird	peacock	3	0	1	stars	3	correct	0.700985162053257
67319	1	stim140_inanimate_fruits_strawberry_4.png	140	inanimate	fruits	strawberry	4	0	1	stars	3	correct	0.700985162053257
67369	1	stim200_inanimate_tools_wrench_4.png	200	inanimate	tools	wrench	4	0	1	stars	3	correct	0.700985162053257
67419	1	stim161_inanimate_plants_bush_1.png	161	inanimate	plants	bush	1	0	1	stars	3	correct	0.700985162053257
67469	1	stim175_inanimate_plants_tree_3.png	175	inanimate	plants	tree	3	0	1	stars	3	correct	0.700985162053257
67519	1	stim082_animate_mammal_cow_2.png	82	animate	mammal	cow	2	0	1	stars	3	correct	0.700985162053257
67569	1	stim030_animate_bird_parrot_2.png	30	animate	bird	parrot	2	0	1	stars	3	correct	0.700985162053257
67619	1	stim159_inanimate_furniture_table_3.png	159	inanimate	furniture	table	3	0	1	stars	3	correct	0.700985162053257
67669	1	stim029_animate_bird_parrot_1.png	29	animate	bird	parrot	1	0	1	stars	3	correct	0.700985162053257
67719	1	stim077_animate_insect_grasshopper_1.png	77	animate	insect	grasshopper	1	0	1	stars	3	correct	0.700985162053257
67769	1	stim128_inanimate_fruits_banana_4.png	128	inanimate	fruits	banana	4	0	1	stars	3	correct	0.700985162053257
67819	1	stim105_inanimate_clothing_hat_1.png	105	inanimate	clothing	hat	1	0	1	stars	3	correct	0.700985162053257
67869	1	stim134_inanimate_fruits_pineapple_2.png	134	inanimate	fruits	pineapple	2	0	1	stars	3	correct	0.700985162053257
67919	1	stim197_inanimate_tools_wrench_1.png	197	inanimate	tools	wrench	1	0	1	stars	3	correct	0.700985162053257
67969	1	stim058_animate_human_sports_2.png	58	animate	human	sports	2	0	1	stars	3	correct	0.700985162053257
68019	1	stim109_inanimate_clothing_jeans_1.png	109	inanimate	clothing	jeans	1	0	1	stars	3	correct	0.700985162053257
68069	1	stim195_inanimate_tools_scissors_3.png	195	inanimate	tools	scissors	3	0	1	stars	3	correct	0.700985162053257
68119	1	stim093_animate_mammal_monkey_1.png	93	animate	mammal	monkey	1	0	1	stars	3	correct	0.700985162053257
68169	1	stim107_inanimate_clothing_hat_3.png	107	inanimate	clothing	hat	3	0	1	stars	3	correct	0.700985162053257
68219	1	stim031_animate_bird_parrot_3.png	31	animate	bird	parrot	3	0	1	stars	3	correct	0.700985162053257
68269	1	stim158_inanimate_furniture_table_2.png	158	inanimate	furniture	table	2	0	1	stars	3	correct	0.700985162053257
68319	1	stim115_inanimate_clothing_shirt_3.png	115	inanimate	clothing	shirt	3	0	1	stars	3	correct	0.700985162053257
68369	1	stim121_inanimate_fruits_apple_1.png	121	inanimate	fruits	apple	1	0	1	stars	3	correct	0.700985162053257
68419	1	stim024_animate_bird_chicken_4.png	24	animate	bird	chicken	4	0	1	stars	3	correct	0.700985162053257
68469	1	stim142_inanimate_furniture_bed_2.png	142	inanimate	furniture	bed	2	0	1	stars	3	correct	0.700985162053257
68519	1	stim048_animate_human_child_4.png	48	animate	human	child	4	0	1	stars	3	correct	0.700985162053257
68569	1	stim068_animate_insect_bug_4.png	68	animate	insect	bug	4	0	1	stars	3	correct	0.700985162053257
68619	1	stim087_animate_mammal_giraffe_3.png	87	animate	mammal	giraffe	3	0	1	stars	3	correct	0.700985162053257
68669	1	stim036_animate_bird_peacock_4.png	36	animate	bird	peacock	4	0	1	stars	3	correct	0.700985162053257
68719	1	stim112_inanimate_clothing_jeans_4.png	112	inanimate	clothing	jeans	4	0	1	stars	3	correct	0.700985162053257
68769	1	stim117_inanimate_clothing_socks_1.png	117	inanimate	clothing	socks	1	0	1	stars	3	correct	0.700985162053257
68819	1	stim034_animate_bird_peacock_2.png	34	animate	bird	peacock	2	0	1	stars	3	correct	0.700985162053257
68869	1	stim150_inanimate_furniture_closet_2.png	150	inanimate	furniture	closet	2	0	1	stars	3	correct	0.700985162053257
68919	1	stim020_animate_aquatic_shrimp_4.png	20	animate	aquatic	shrimp	4	0	1	stars	3	correct	0.700985162053257
68969	1	stim016_animate_aquatic_shark_4.png	16	animate	aquatic	shark	4	0	1	stars	3	correct	0.700985162053257
69019	1	stim015_animate_aquatic_shark_3.png	15	animate	aquatic	shark	3	0	1	stars	3	correct	0.700985162053257
69069	1	stim026_animate_bird_duck_2.png	26	animate	bird	duck	2	0	1	stars	3	correct	0.700985162053257
69119	1	stim091_animate_mammal_kangaroo_3.png	91	animate	mammal	kangaroo	3	0	1	stars	3	correct	0.700985162053257
69169	1	stim156_inanimate_furniture_sofa_4.png	156	inanimate	furniture	sofa	4	0	1	stars	3	correct	0.700985162053257
69219	1	stim165_inanimate_plants_cactus_1.png	165	inanimate	plants	cactus	1	0	1	stars	3	correct	0.700985162053257
69269	1	stim040_animate_bird_penguin_4.png	40	animate	bird	penguin	4	0	1	stars	3	correct	0.700985162053257
69319	1	stim147_inanimate_furniture_chair_3.png	147	inanimate	furniture	chair	3	0	1	stars	3	correct	0.700985162053257
69369	1	stim011_animate_aquatic_seahorse_3.png	11	animate	aquatic	seahorse	3	0	1	stars	3	correct	0.700985162053257
69419	1	stim059_animate_human_sports_3.png	59	animate	human	sports	3	0	1	stars	3	correct	0.700985162053257
69469	1	stim110_inanimate_clothing_jeans_2.png	110	inanimate	clothing	jeans	2	0	1	stars	3	correct	0.700985162053257
69519	1	stim046_animate_human_child_2.png	46	animate	human	child	2	0	1	stars	3	correct	0.700985162053257
69569	1	stim186_inanimate_tools_hammer_2.png	186	inanimate	tools	hammer	2	0	1	stars	3	correct	0.700985162053257
69619	1	stim005_animate_aquatic_fish_1.png	5	animate	aquatic	fish	1	0	1	stars	3	correct	0.700985162053257
69669	1	stim129_inanimate_fruits_grape_1.png	129	inanimate	fruits	grape	1	0	1	stars	3	correct	0.700985162053257
69719	1	stim216_targets_shapes_star_4.png	216	targets	shapes	star	4	1	1	stars	3	correct	0.700985162053257
69769	1	stim172_inanimate_plants_sunflower_4.png	172	inanimate	plants	sunflower	4	0	1	stars	3	correct	0.700985162053257
69819	1	stim101_inanimate_clothing_gloves_1.png	101	inanimate	clothing	gloves	1	0	1	stars	3	correct	0.700985162053257
69869	1	stim169_inanimate_plants_sunflower_1.png	169	inanimate	plants	sunflower	1	0	1	stars	3	correct	0.700985162053257
69919	1	stim177_inanimate_plants_tulip_1.png	177	inanimate	plants	tulip	1	0	1	stars	3	correct	0.700985162053257
69969	1	stim122_inanimate_fruits_apple_2.png	122	inanimate	fruits	apple	2	0	1	stars	3	correct	0.700985162053257
70019	1	stim056_animate_human_faces_4.png	56	animate	human	faces	4	0	1	stars	3	correct	0.700985162053257
70069	1	stim170_inanimate_plants_sunflower_2.png	170	inanimate	plants	sunflower	2	0	1	stars	3	correct	0.700985162053257
70119	1	stim163_inanimate_plants_bush_3.png	163	inanimate	plants	bush	3	0	1	stars	3	correct	0.700985162053257
70169	1	stim171_inanimate_plants_sunflower_3.png	171	inanimate	plants	sunflower	3	0	1	stars	3	correct	0.700985162053257
70219	1	stim018_animate_aquatic_shrimp_2.png	18	animate	aquatic	shrimp	2	0	1	stars	3	correct	0.700985162053257
70269	1	stim090_animate_mammal_kangaroo_2.png	90	animate	mammal	kangaroo	2	0	1	stars	3	correct	0.700985162053257
70319	1	stim141_inanimate_furniture_bed_1.png	141	inanimate	furniture	bed	1	0	1	stars	3	correct	0.700985162053257
70369	1	stim131_inanimate_fruits_grape_3.png	131	inanimate	fruits	grape	3	0	1	stars	3	correct	0.700985162053257
70419	1	stim062_animate_insect_ant_2.png	62	animate	insect	ant	2	0	1	stars	3	correct	0.700985162053257
70469	1	stim055_animate_human_faces_3.png	55	animate	human	faces	3	0	1	stars	3	correct	0.700985162053257
70519	1	stim088_animate_mammal_giraffe_4.png	88	animate	mammal	giraffe	4	0	1	stars	3	correct	0.700985162053257
70569	1	stim183_inanimate_tools_broom_3.png	183	inanimate	tools	broom	3	0	1	stars	3	correct	0.700985162053257
70619	1	stim162_inanimate_plants_bush_2.png	162	inanimate	plants	bush	2	0	1	stars	3	correct	0.700985162053257
70669	1	stim148_inanimate_furniture_chair_4.png	148	inanimate	furniture	chair	4	0	1	stars	3	correct	0.700985162053257
70719	1	stim145_inanimate_furniture_chair_1.png	145	inanimate	furniture	chair	1	0	1	stars	3	correct	0.700985162053257
70769	1	stim096_animate_mammal_monkey_4.png	96	animate	mammal	monkey	4	0	1	stars	3	correct	0.700985162053257
70819	1	stim023_animate_bird_chicken_3.png	23	animate	bird	chicken	3	0	1	stars	3	correct	0.700985162053257
70869	1	stim127_inanimate_fruits_banana_3.png	127	inanimate	fruits	banana	3	0	1	stars	3	correct	0.700985162053257
70919	1	stim084_animate_mammal_cow_4.png	84	animate	mammal	cow	4	0	1	stars	3	correct	0.700985162053257
70969	1	stim125_inanimate_fruits_banana_1.png	125	inanimate	fruits	banana	1	0	1	stars	3	correct	0.700985162053257
71019	1	stim052_animate_human_clown_4.png	52	animate	human	clown	4	0	1	stars	3	correct	0.700985162053257
71069	1	stim013_animate_aquatic_shark_1.png	13	animate	aquatic	shark	1	0	1	stars	3	correct	0.700985162053257
71119	1	stim164_inanimate_plants_bush_4.png	164	inanimate	plants	bush	4	0	1	stars	3	correct	0.700985162053257
71169	1	stim194_inanimate_tools_scissors_2.png	194	inanimate	tools	scissors	2	0	1	stars	3	correct	0.700985162053257
71219	1	stim043_animate_human_baby_3.png	43	animate	human	baby	3	0	1	stars	3	correct	0.700985162053257
71269	1	stim116_inanimate_clothing_shirt_4.png	116	inanimate	clothing	shirt	4	0	1	stars	3	correct	0.700985162053257
71319	1	stim085_animate_mammal_giraffe_1.png	85	animate	mammal	giraffe	1	0	1	stars	3	correct	0.700985162053257
71369	1	stim027_animate_bird_duck_3.png	27	animate	bird	duck	3	0	1	stars	3	correct	0.700985162053257
71419	1	stim136_inanimate_fruits_pineapple_4.png	136	inanimate	fruits	pineapple	4	0	1	stars	3	correct	0.700985162053257
71469	1	stim139_inanimate_fruits_strawberry_3.png	139	inanimate	fruits	strawberry	3	0	1	stars	3	correct	0.700985162053257
71519	1	stim209_targets_shapes_star_1.png	209	targets	shapes	star	1	1	1	stars	3	correct	0.700985162053257
71569	1	stim032_animate_bird_parrot_4.png	32	animate	bird	parrot	4	0	1	stars	3	correct	0.700985162053257
71619	1	stim006_animate_aquatic_fish_2.png	6	animate	aquatic	fish	2	0	1	stars	3	correct	0.700985162053257
71669	1	stim002_animate_aquatic_crab_2.png	2	animate	aquatic	crab	2	0	1	stars	3	correct	0.700985162053257
71719	1	stim100_animate_mammal_rhino_4.png	100	animate	mammal	rhino	4	0	1	stars	3	correct	0.700985162053257
71769	1	stim095_animate_mammal_monkey_3.png	95	animate	mammal	monkey	3	0	1	stars	3	correct	0.700985162053257
71819	1	stim192_inanimate_tools_pan_4.png	192	inanimate	tools	pan	4	0	1	stars	3	correct	0.700985162053257
71869	1	stim097_animate_mammal_rhino_1.png	97	animate	mammal	rhino	1	0	1	stars	3	correct	0.700985162053257
71919	1	stim106_inanimate_clothing_hat_2.png	106	inanimate	clothing	hat	2	0	1	stars	3	correct	0.700985162053257
71969	1	stim061_animate_insect_ant_1.png	61	animate	insect	ant	1	0	1	stars	3	correct	0.700985162053257
72019	1	stim069_animate_insect_butterfly_1.png	69	animate	insect	butterfly	1	0	1	stars	3	correct	0.700985162053257
72069	1	stim185_inanimate_tools_hammer_1.png	185	inanimate	tools	hammer	1	0	1	stars	3	correct	0.700985162053257
72119	1	stim143_inanimate_furniture_bed_3.png	143	inanimate	furniture	bed	3	0	1	stars	3	correct	0.700985162053257
72169	1	stim033_animate_bird_peacock_1.png	33	animate	bird	peacock	1	0	1	stars	3	correct	0.700985162053257
72219	1	stim007_animate_aquatic_fish_3.png	7	animate	aquatic	fish	3	0	1	stars	3	correct	0.700985162053257
72269	1	stim173_inanimate_plants_tree_1.png	173	inanimate	plants	tree	1	0	1	stars	3	correct	0.700985162053257
72319	1	stim119_inanimate_clothing_socks_3.png	119	inanimate	clothing	socks	3	0	1	stars	3	correct	0.700985162053257
72369	1	stim017_animate_aquatic_shrimp_1.png	17	animate	aquatic	shrimp	1	0	1	stars	3	correct	0.700985162053257
72419	1	stim138_inanimate_fruits_strawberry_2.png	138	inanimate	fruits	strawberry	2	0	1	stars	3	correct	0.700985162053257
72469	1	stim051_animate_human_clown_3.png	51	animate	human	clown	3	0	1	stars	3	correct	0.700985162053257
72519	1	stim118_inanimate_clothing_socks_2.png	118	inanimate	clothing	socks	2	0	1	stars	3	correct	0.700985162053257
72569	1	stim072_animate_insect_butterfly_4.png	72	animate	insect	butterfly	4	0	1	stars	3	correct	0.700985162053257
72619	1	stim001_animate_aquatic_crab_1.png	1	animate	aquatic	crab	1	0	1	stars	3	correct	0.700985162053257
72669	1	stim149_inanimate_furniture_closet_1.png	149	inanimate	furniture	closet	1	0	1	stars	3	correct	0.700985162053257
72719	1	stim153_inanimate_furniture_sofa_1.png	153	inanimate	furniture	sofa	1	0	1	stars	3	correct	0.700985162053257
72769	1	stim075_animate_insect_dragonfly_3.png	75	animate	insect	dragonfly	3	0	1	stars	3	correct	0.700985162053257
72819	1	stim130_inanimate_fruits_grape_2.png	130	inanimate	fruits	grape	2	0	1	stars	3	correct	0.700985162053257
72869	1	stim113_inanimate_clothing_shirt_1.png	113	inanimate	clothing	shirt	1	0	1	stars	3	correct	0.700985162053257
72919	1	stim168_inanimate_plants_cactus_4.png	168	inanimate	plants	cactus	4	0	1	stars	3	correct	0.700985162053257
72969	1	stim050_animate_human_clown_2.png	50	animate	human	clown	2	0	1	stars	3	correct	0.700985162053257
73019	1	stim189_inanimate_tools_pan_1.png	189	inanimate	tools	pan	1	0	1	stars	3	correct	0.700985162053257
73069	1	stim038_animate_bird_penguin_2.png	38	animate	bird	penguin	2	0	1	stars	3	correct	0.700985162053257
73119	1	stim009_animate_aquatic_seahorse_1.png	9	animate	aquatic	seahorse	1	0	1	stars	3	correct	0.700985162053257
73169	1	stim064_animate_insect_ant_4.png	64	animate	insect	ant	4	0	1	stars	3	correct	0.700985162053257
73219	1	stim123_inanimate_fruits_apple_3.png	123	inanimate	fruits	apple	3	0	1	stars	3	correct	0.700985162053257
73269	1	stim045_animate_human_child_1.png	45	animate	human	child	1	0	1	stars	3	correct	0.700985162053257
73319	1	stim083_animate_mammal_cow_3.png	83	animate	mammal	cow	3	0	1	stars	3	correct	0.700985162053257
73369	1	stim114_inanimate_clothing_shirt_2.png	114	inanimate	clothing	shirt	2	0	1	stars	3	correct	0.700985162053257
73419	1	stim154_inanimate_furniture_sofa_2.png	154	inanimate	furniture	sofa	2	0	1	stars	3	correct	0.700985162053257
73469	1	stim012_animate_aquatic_seahorse_4.png	12	animate	aquatic	seahorse	4	0	1	stars	3	correct	0.700985162053257
73519	1	stim071_animate_insect_butterfly_3.png	71	animate	insect	butterfly	3	0	1	stars	3	correct	0.700985162053257
73569	1	stim079_animate_insect_grasshopper_3.png	79	animate	insect	grasshopper	3	0	1	stars	3	correct	0.700985162053257
73619	1	stim132_inanimate_fruits_grape_4.png	132	inanimate	fruits	grape	4	0	1	stars	3	correct	0.700985162053257
73669	1	stim070_animate_insect_butterfly_2.png	70	animate	insect	butterfly	2	0	1	stars	3	correct	0.700985162053257
73719	1	stim137_inanimate_fruits_strawberry_1.png	137	inanimate	fruits	strawberry	1	0	1	stars	3	correct	0.700985162053257
73769	1	stim021_animate_bird_chicken_1.png	21	animate	bird	chicken	1	0	1	stars	3	correct	0.700985162053257
73819	1	stim047_animate_human_child_3.png	47	animate	human	child	3	0	1	stars	3	correct	0.700985162053257
73869	1	stim004_animate_aquatic_crab_4.png	4	animate	aquatic	crab	4	0	1	stars	3	correct	0.700985162053257
73919	1	stim151_inanimate_furniture_closet_3.png	151	inanimate	furniture	closet	3	0	1	stars	3	correct	0.700985162053257
73969	1	stim191_inanimate_tools_pan_3.png	191	inanimate	tools	pan	3	0	1	stars	3	correct	0.700985162053257
74019	1	stim049_animate_human_clown_1.png	49	animate	human	clown	1	0	1	stars	3	correct	0.700985162053257
74069	1	stim022_animate_bird_chicken_2.png	22	animate	bird	chicken	2	0	1	stars	3	correct	0.700985162053257
74119	1	stim025_animate_bird_duck_1.png	25	animate	bird	duck	1	0	1	stars	3	correct	0.700985162053257
74169	1	stim028_animate_bird_duck_4.png	28	animate	bird	duck	4	0	1	stars	3	correct	0.700985162053257
74219	1	stim014_animate_aquatic_shark_2.png	14	animate	aquatic	shark	2	0	1	stars	3	correct	0.700985162053257
74269	1	stim146_inanimate_furniture_chair_2.png	146	inanimate	furniture	chair	2	0	1	stars	3	correct	0.700985162053257
74319	1	stim180_inanimate_plants_tulip_4.png	180	inanimate	plants	tulip	4	0	1	stars	3	correct	0.700985162053257
74369	1	stim041_animate_human_baby_1.png	41	animate	human	baby	1	0	1	stars	3	correct	0.700985162053257
74419	1	stim053_animate_human_faces_1.png	53	animate	human	faces	1	0	1	stars	3	correct	0.700985162053257
74469	1	stim074_animate_insect_dragonfly_2.png	74	animate	insect	dragonfly	2	0	1	stars	3	correct	0.700985162053257
90403	1	stim086_animate_mammal_giraffe_2.png	86	animate	mammal	giraffe	2	0	2	stars	4	correct	0.749687862582505
90453	1	stim113_inanimate_clothing_shirt_1.png	113	inanimate	clothing	shirt	1	0	2	stars	4	correct	0.749687862582505
90503	1	stim032_animate_bird_parrot_4.png	32	animate	bird	parrot	4	0	2	stars	4	correct	0.749687862582505
90553	1	stim060_animate_human_sports_4.png	60	animate	human	sports	4	0	2	stars	4	correct	0.749687862582505
90603	1	stim160_inanimate_furniture_table_4.png	160	inanimate	furniture	table	4	0	2	stars	4	correct	0.749687862582505
90653	1	stim096_animate_mammal_monkey_4.png	96	animate	mammal	monkey	4	0	2	stars	4	correct	0.749687862582505
90703	1	stim137_inanimate_fruits_strawberry_1.png	137	inanimate	fruits	strawberry	1	0	2	stars	4	correct	0.749687862582505
90753	1	stim027_animate_bird_duck_3.png	27	animate	bird	duck	3	0	2	stars	4	correct	0.749687862582505
90803	1	stim040_animate_bird_penguin_4.png	40	animate	bird	penguin	4	0	2	stars	4	correct	0.749687862582505
90853	1	stim162_inanimate_plants_bush_2.png	162	inanimate	plants	bush	2	0	2	stars	4	correct	0.749687862582505
90903	1	stim017_animate_aquatic_shrimp_1.png	17	animate	aquatic	shrimp	1	0	2	stars	4	correct	0.749687862582505
90953	1	stim194_inanimate_tools_scissors_2.png	194	inanimate	tools	scissors	2	0	2	stars	4	correct	0.749687862582505
91003	1	stim174_inanimate_plants_tree_2.png	174	inanimate	plants	tree	2	0	2	stars	4	correct	0.749687862582505
91053	1	stim131_inanimate_fruits_grape_3.png	131	inanimate	fruits	grape	3	0	2	stars	4	correct	0.749687862582505
91103	1	stim076_animate_insect_dragonfly_4.png	76	animate	insect	dragonfly	4	0	2	stars	4	correct	0.749687862582505
91153	1	stim183_inanimate_tools_broom_3.png	183	inanimate	tools	broom	3	0	2	stars	4	correct	0.749687862582505
91203	1	stim169_inanimate_plants_sunflower_1.png	169	inanimate	plants	sunflower	1	0	2	stars	4	correct	0.749687862582505
91253	1	stim192_inanimate_tools_pan_4.png	192	inanimate	tools	pan	4	0	2	stars	4	correct	0.749687862582505
91303	1	stim064_animate_insect_ant_4.png	64	animate	insect	ant	4	0	2	stars	4	correct	0.749687862582505
91353	1	stim189_inanimate_tools_pan_1.png	189	inanimate	tools	pan	1	0	2	stars	4	correct	0.749687862582505
91403	1	stim019_animate_aquatic_shrimp_3.png	19	animate	aquatic	shrimp	3	0	2	stars	4	correct	0.749687862582505
91453	1	stim143_inanimate_furniture_bed_3.png	143	inanimate	furniture	bed	3	0	2	stars	4	correct	0.749687862582505
91503	1	stim034_animate_bird_peacock_2.png	34	animate	bird	peacock	2	0	2	stars	4	correct	0.749687862582505
91553	1	stim084_animate_mammal_cow_4.png	84	animate	mammal	cow	4	0	2	stars	4	correct	0.749687862582505
91603	1	stim200_inanimate_tools_wrench_4.png	200	inanimate	tools	wrench	4	0	2	stars	4	correct	0.749687862582505
91653	1	stim121_inanimate_fruits_apple_1.png	121	inanimate	fruits	apple	1	0	2	stars	4	correct	0.749687862582505
91703	1	stim117_inanimate_clothing_socks_1.png	117	inanimate	clothing	socks	1	0	2	stars	4	correct	0.749687862582505
91753	1	stim046_animate_human_child_2.png	46	animate	human	child	2	0	2	stars	4	correct	0.749687862582505
91803	1	stim047_animate_human_child_3.png	47	animate	human	child	3	0	2	stars	4	correct	0.749687862582505
91853	1	stim007_animate_aquatic_fish_3.png	7	animate	aquatic	fish	3	0	2	stars	4	correct	0.749687862582505
91903	1	stim193_inanimate_tools_scissors_1.png	193	inanimate	tools	scissors	1	0	2	stars	4	correct	0.749687862582505
91953	1	stim057_animate_human_sports_1.png	57	animate	human	sports	1	0	2	stars	4	correct	0.749687862582505
92003	1	stim004_animate_aquatic_crab_4.png	4	animate	aquatic	crab	4	0	2	stars	4	correct	0.749687862582505
92053	1	stim132_inanimate_fruits_grape_4.png	132	inanimate	fruits	grape	4	0	2	stars	4	correct	0.749687862582505
92103	1	stim103_inanimate_clothing_gloves_3.png	103	inanimate	clothing	gloves	3	0	2	stars	4	correct	0.749687862582505
92153	1	stim109_inanimate_clothing_jeans_1.png	109	inanimate	clothing	jeans	1	0	2	stars	4	correct	0.749687862582505
92203	1	stim168_inanimate_plants_cactus_4.png	168	inanimate	plants	cactus	4	0	2	stars	4	correct	0.749687862582505
92253	1	stim140_inanimate_fruits_strawberry_4.png	140	inanimate	fruits	strawberry	4	0	2	stars	4	correct	0.749687862582505
92303	1	stim150_inanimate_furniture_closet_2.png	150	inanimate	furniture	closet	2	0	2	stars	4	correct	0.749687862582505
92353	1	stim031_animate_bird_parrot_3.png	31	animate	bird	parrot	3	0	2	stars	4	correct	0.749687862582505
92403	1	stim198_inanimate_tools_wrench_2.png	198	inanimate	tools	wrench	2	0	2	stars	4	correct	0.749687862582505
92453	1	stim156_inanimate_furniture_sofa_4.png	156	inanimate	furniture	sofa	4	0	2	stars	4	correct	0.749687862582505
92503	1	stim155_inanimate_furniture_sofa_3.png	155	inanimate	furniture	sofa	3	0	2	stars	4	correct	0.749687862582505
92553	1	stim184_inanimate_tools_broom_4.png	184	inanimate	tools	broom	4	0	2	stars	4	correct	0.749687862582505
92603	1	stim123_inanimate_fruits_apple_3.png	123	inanimate	fruits	apple	3	0	2	stars	4	correct	0.749687862582505
92653	1	stim080_animate_insect_grasshopper_4.png	80	animate	insect	grasshopper	4	0	2	stars	4	correct	0.749687862582505
92703	1	stim070_animate_insect_butterfly_2.png	70	animate	insect	butterfly	2	0	2	stars	4	correct	0.749687862582505
92753	1	stim141_inanimate_furniture_bed_1.png	141	inanimate	furniture	bed	1	0	2	stars	4	correct	0.749687862582505
92803	1	stim088_animate_mammal_giraffe_4.png	88	animate	mammal	giraffe	4	0	2	stars	4	correct	0.749687862582505
92853	1	stim126_inanimate_fruits_banana_2.png	126	inanimate	fruits	banana	2	0	2	stars	4	correct	0.749687862582505
92903	1	stim116_inanimate_clothing_shirt_4.png	116	inanimate	clothing	shirt	4	0	2	stars	4	correct	0.749687862582505
92953	1	stim045_animate_human_child_1.png	45	animate	human	child	1	0	2	stars	4	correct	0.749687862582505
93003	1	stim176_inanimate_plants_tree_4.png	176	inanimate	plants	tree	4	0	2	stars	4	correct	0.749687862582505
93053	1	stim106_inanimate_clothing_hat_2.png	106	inanimate	clothing	hat	2	0	2	stars	4	correct	0.749687862582505
93103	1	stim181_inanimate_tools_broom_1.png	181	inanimate	tools	broom	1	0	2	stars	4	correct	0.749687862582505
93153	1	stim008_animate_aquatic_fish_4.png	8	animate	aquatic	fish	4	0	2	stars	4	correct	0.749687862582505
93203	1	stim069_animate_insect_butterfly_1.png	69	animate	insect	butterfly	1	0	2	stars	4	correct	0.749687862582505
93253	1	stim210_targets_shapes_star_2.png	210	targets	shapes	star	2	1	2	stars	4	correct	0.749687862582505
93303	1	stim026_animate_bird_duck_2.png	26	animate	bird	duck	2	0	2	stars	4	correct	0.749687862582505
93353	1	stim024_animate_bird_chicken_4.png	24	animate	bird	chicken	4	0	2	stars	4	correct	0.749687862582505
93403	1	stim133_inanimate_fruits_pineapple_1.png	133	inanimate	fruits	pineapple	1	0	2	stars	4	correct	0.749687862582505
93453	1	stim055_animate_human_faces_3.png	55	animate	human	faces	3	0	2	stars	4	correct	0.749687862582505
93503	1	stim098_animate_mammal_rhino_2.png	98	animate	mammal	rhino	2	0	2	stars	4	correct	0.749687862582505
93553	1	stim089_animate_mammal_kangaroo_1.png	89	animate	mammal	kangaroo	1	0	2	stars	4	correct	0.749687862582505
93603	1	stim186_inanimate_tools_hammer_2.png	186	inanimate	tools	hammer	2	0	2	stars	4	correct	0.749687862582505
93653	1	stim196_inanimate_tools_scissors_4.png	196	inanimate	tools	scissors	4	0	2	stars	4	correct	0.749687862582505
93703	1	stim016_animate_aquatic_shark_4.png	16	animate	aquatic	shark	4	0	2	stars	4	correct	0.749687862582505
93753	1	stim044_animate_human_baby_4.png	44	animate	human	baby	4	0	2	stars	4	correct	0.749687862582505
93803	1	stim152_inanimate_furniture_closet_4.png	152	inanimate	furniture	closet	4	0	2	stars	4	correct	0.749687862582505
93853	1	stim082_animate_mammal_cow_2.png	82	animate	mammal	cow	2	0	2	stars	4	correct	0.749687862582505
93903	1	stim093_animate_mammal_monkey_1.png	93	animate	mammal	monkey	1	0	2	stars	4	correct	0.749687862582505
93953	1	stim173_inanimate_plants_tree_1.png	173	inanimate	plants	tree	1	0	2	stars	4	correct	0.749687862582505
94003	1	stim124_inanimate_fruits_apple_4.png	124	inanimate	fruits	apple	4	0	2	stars	4	correct	0.749687862582505
94053	1	stim170_inanimate_plants_sunflower_2.png	170	inanimate	plants	sunflower	2	0	2	stars	4	correct	0.749687862582505
94103	1	stim091_animate_mammal_kangaroo_3.png	91	animate	mammal	kangaroo	3	0	2	stars	4	correct	0.749687862582505
94153	1	stim147_inanimate_furniture_chair_3.png	147	inanimate	furniture	chair	3	0	2	stars	4	correct	0.749687862582505
94203	1	stim020_animate_aquatic_shrimp_4.png	20	animate	aquatic	shrimp	4	0	2	stars	4	correct	0.749687862582505
94253	1	stim179_inanimate_plants_tulip_3.png	179	inanimate	plants	tulip	3	0	2	stars	4	correct	0.749687862582505
94303	1	stim129_inanimate_fruits_grape_1.png	129	inanimate	fruits	grape	1	0	2	stars	4	correct	0.749687862582505
94353	1	stim153_inanimate_furniture_sofa_1.png	153	inanimate	furniture	sofa	1	0	2	stars	4	correct	0.749687862582505
94403	1	stim087_animate_mammal_giraffe_3.png	87	animate	mammal	giraffe	3	0	2	stars	4	correct	0.749687862582505
94453	1	stim120_inanimate_clothing_socks_4.png	120	inanimate	clothing	socks	4	0	2	stars	4	correct	0.749687862582505
94503	1	stim037_animate_bird_penguin_1.png	37	animate	bird	penguin	1	0	2	stars	4	correct	0.749687862582505
94553	1	stim209_targets_shapes_star_1.png	209	targets	shapes	star	1	1	2	stars	4	correct	0.749687862582505
94603	1	stim118_inanimate_clothing_socks_2.png	118	inanimate	clothing	socks	2	0	2	stars	4	correct	0.749687862582505
94653	1	stim166_inanimate_plants_cactus_2.png	166	inanimate	plants	cactus	2	0	2	stars	4	correct	0.749687862582505
94703	1	stim149_inanimate_furniture_closet_1.png	149	inanimate	furniture	closet	1	0	2	stars	4	correct	0.749687862582505
94753	1	stim171_inanimate_plants_sunflower_3.png	171	inanimate	plants	sunflower	3	0	2	stars	4	correct	0.749687862582505
94803	1	stim180_inanimate_plants_tulip_4.png	180	inanimate	plants	tulip	4	0	2	stars	4	correct	0.749687862582505
94853	1	stim191_inanimate_tools_pan_3.png	191	inanimate	tools	pan	3	0	2	stars	4	correct	0.749687862582505
94903	1	stim010_animate_aquatic_seahorse_2.png	10	animate	aquatic	seahorse	2	0	2	stars	4	correct	0.749687862582505
94953	1	stim011_animate_aquatic_seahorse_3.png	11	animate	aquatic	seahorse	3	0	2	stars	4	correct	0.749687862582505
95003	1	stim029_animate_bird_parrot_1.png	29	animate	bird	parrot	1	0	2	stars	4	correct	0.749687862582505
95053	1	stim105_inanimate_clothing_hat_1.png	105	inanimate	clothing	hat	1	0	2	stars	4	correct	0.749687862582505
95103	1	stim051_animate_human_clown_3.png	51	animate	human	clown	3	0	2	stars	4	correct	0.749687862582505
95153	1	stim041_animate_human_baby_1.png	41	animate	human	baby	1	0	2	stars	4	correct	0.749687862582505
95203	1	stim063_animate_insect_ant_3.png	63	animate	insect	ant	3	0	2	stars	4	correct	0.749687862582505
95253	1	stim083_animate_mammal_cow_3.png	83	animate	mammal	cow	3	0	2	stars	4	correct	0.749687862582505
95303	1	stim099_animate_mammal_rhino_3.png	99	animate	mammal	rhino	3	0	2	stars	4	correct	0.749687862582505
95353	1	stim018_animate_aquatic_shrimp_2.png	18	animate	aquatic	shrimp	2	0	2	stars	4	correct	0.749687862582505
95403	1	stim078_animate_insect_grasshopper_2.png	78	animate	insect	grasshopper	2	0	2	stars	4	correct	0.749687862582505
95453	1	stim175_inanimate_plants_tree_3.png	175	inanimate	plants	tree	3	0	2	stars	4	correct	0.749687862582505
95503	1	stim151_inanimate_furniture_closet_3.png	151	inanimate	furniture	closet	3	0	2	stars	4	correct	0.749687862582505
95553	1	stim053_animate_human_faces_1.png	53	animate	human	faces	1	0	2	stars	4	correct	0.749687862582505
95603	1	stim114_inanimate_clothing_shirt_2.png	114	inanimate	clothing	shirt	2	0	2	stars	4	correct	0.749687862582505
95653	1	stim104_inanimate_clothing_gloves_4.png	104	inanimate	clothing	gloves	4	0	2	stars	4	correct	0.749687862582505
95703	1	stim075_animate_insect_dragonfly_3.png	75	animate	insect	dragonfly	3	0	2	stars	4	correct	0.749687862582505
95753	1	stim025_animate_bird_duck_1.png	25	animate	bird	duck	1	0	2	stars	4	correct	0.749687862582505
95803	1	stim003_animate_aquatic_crab_3.png	3	animate	aquatic	crab	3	0	2	stars	4	correct	0.749687862582505
95853	1	stim042_animate_human_baby_2.png	42	animate	human	baby	2	0	2	stars	4	correct	0.749687862582505
95903	1	stim158_inanimate_furniture_table_2.png	158	inanimate	furniture	table	2	0	2	stars	4	correct	0.749687862582505
95953	1	stim094_animate_mammal_monkey_2.png	94	animate	mammal	monkey	2	0	2	stars	4	correct	0.749687862582505
96003	1	stim097_animate_mammal_rhino_1.png	97	animate	mammal	rhino	1	0	2	stars	4	correct	0.749687862582505
96053	1	stim012_animate_aquatic_seahorse_4.png	12	animate	aquatic	seahorse	4	0	2	stars	4	correct	0.749687862582505
96103	1	stim013_animate_aquatic_shark_1.png	13	animate	aquatic	shark	1	0	2	stars	4	correct	0.749687862582505
96153	1	stim215_targets_shapes_star_3.png	215	targets	shapes	star	3	1	2	stars	4	correct	0.749687862582505
96203	1	stim182_inanimate_tools_broom_2.png	182	inanimate	tools	broom	2	0	2	stars	4	correct	0.749687862582505
96253	1	stim190_inanimate_tools_pan_2.png	190	inanimate	tools	pan	2	0	2	stars	4	correct	0.749687862582505
96303	1	stim030_animate_bird_parrot_2.png	30	animate	bird	parrot	2	0	2	stars	4	correct	0.749687862582505
96353	1	stim050_animate_human_clown_2.png	50	animate	human	clown	2	0	2	stars	4	correct	0.749687862582505
96403	1	stim188_inanimate_tools_hammer_4.png	188	inanimate	tools	hammer	4	0	2	stars	4	correct	0.749687862582505
96453	1	stim161_inanimate_plants_bush_1.png	161	inanimate	plants	bush	1	0	2	stars	4	correct	0.749687862582505
96503	1	stim111_inanimate_clothing_jeans_3.png	111	inanimate	clothing	jeans	3	0	2	stars	4	correct	0.749687862582505
96553	1	stim195_inanimate_tools_scissors_3.png	195	inanimate	tools	scissors	3	0	2	stars	4	correct	0.749687862582505
96603	1	stim172_inanimate_plants_sunflower_4.png	172	inanimate	plants	sunflower	4	0	2	stars	4	correct	0.749687862582505
96653	1	stim023_animate_bird_chicken_3.png	23	animate	bird	chicken	3	0	2	stars	4	correct	0.749687862582505
96703	1	stim036_animate_bird_peacock_4.png	36	animate	bird	peacock	4	0	2	stars	4	correct	0.749687862582505
96753	1	stim090_animate_mammal_kangaroo_2.png	90	animate	mammal	kangaroo	2	0	2	stars	4	correct	0.749687862582505
96803	1	stim178_inanimate_plants_tulip_2.png	178	inanimate	plants	tulip	2	0	2	stars	4	correct	0.749687862582505
96853	1	stim022_animate_bird_chicken_2.png	22	animate	bird	chicken	2	0	2	stars	4	correct	0.749687862582505
96903	1	stim154_inanimate_furniture_sofa_2.png	154	inanimate	furniture	sofa	2	0	2	stars	4	correct	0.749687862582505
96953	1	stim139_inanimate_fruits_strawberry_3.png	139	inanimate	fruits	strawberry	3	0	2	stars	4	correct	0.749687862582505
97003	1	stim071_animate_insect_butterfly_3.png	71	animate	insect	butterfly	3	0	2	stars	4	correct	0.749687862582505
97053	1	stim142_inanimate_furniture_bed_2.png	142	inanimate	furniture	bed	2	0	2	stars	4	correct	0.749687862582505
97103	1	stim009_animate_aquatic_seahorse_1.png	9	animate	aquatic	seahorse	1	0	2	stars	4	correct	0.749687862582505
97153	1	stim136_inanimate_fruits_pineapple_4.png	136	inanimate	fruits	pineapple	4	0	2	stars	4	correct	0.749687862582505
97203	1	stim033_animate_bird_peacock_1.png	33	animate	bird	peacock	1	0	2	stars	4	correct	0.749687862582505
97253	1	stim067_animate_insect_bug_3.png	67	animate	insect	bug	3	0	2	stars	4	correct	0.749687862582505
97303	1	stim138_inanimate_fruits_strawberry_2.png	138	inanimate	fruits	strawberry	2	0	2	stars	4	correct	0.749687862582505
97353	1	stim001_animate_aquatic_crab_1.png	1	animate	aquatic	crab	1	0	2	stars	4	correct	0.749687862582505
97403	1	stim006_animate_aquatic_fish_2.png	6	animate	aquatic	fish	2	0	2	stars	4	correct	0.749687862582505
97453	1	stim039_animate_bird_penguin_3.png	39	animate	bird	penguin	3	0	2	stars	4	correct	0.749687862582505
97503	1	stim130_inanimate_fruits_grape_2.png	130	inanimate	fruits	grape	2	0	2	stars	4	correct	0.749687862582505
97553	1	stim164_inanimate_plants_bush_4.png	164	inanimate	plants	bush	4	0	2	stars	4	correct	0.749687862582505
97603	1	stim165_inanimate_plants_cactus_1.png	165	inanimate	plants	cactus	1	0	2	stars	4	correct	0.749687862582505
97653	1	stim085_animate_mammal_giraffe_1.png	85	animate	mammal	giraffe	1	0	2	stars	4	correct	0.749687862582505
97703	1	stim185_inanimate_tools_hammer_1.png	185	inanimate	tools	hammer	1	0	2	stars	4	correct	0.749687862582505
97753	1	stim213_targets_shapes_star_1.png	213	targets	shapes	star	1	1	2	stars	4	correct	0.749687862582505
97803	1	stim112_inanimate_clothing_jeans_4.png	112	inanimate	clothing	jeans	4	0	2	stars	4	correct	0.749687862582505
97853	1	stim056_animate_human_faces_4.png	56	animate	human	faces	4	0	2	stars	4	correct	0.749687862582505
97903	1	stim197_inanimate_tools_wrench_1.png	197	inanimate	tools	wrench	1	0	2	stars	4	correct	0.749687862582505
97953	1	stim163_inanimate_plants_bush_3.png	163	inanimate	plants	bush	3	0	2	stars	4	correct	0.749687862582505
98003	1	stim002_animate_aquatic_crab_2.png	2	animate	aquatic	crab	2	0	2	stars	4	correct	0.749687862582505
98053	1	stim043_animate_human_baby_3.png	43	animate	human	baby	3	0	2	stars	4	correct	0.749687862582505
98103	1	stim115_inanimate_clothing_shirt_3.png	115	inanimate	clothing	shirt	3	0	2	stars	4	correct	0.749687862582505
98153	1	stim005_animate_aquatic_fish_1.png	5	animate	aquatic	fish	1	0	2	stars	4	correct	0.749687862582505
98203	1	stim061_animate_insect_ant_1.png	61	animate	insect	ant	1	0	2	stars	4	correct	0.749687862582505
98253	1	stim107_inanimate_clothing_hat_3.png	107	inanimate	clothing	hat	3	0	2	stars	4	correct	0.749687862582505
98303	1	stim059_animate_human_sports_3.png	59	animate	human	sports	3	0	2	stars	4	correct	0.749687862582505
98353	1	stim101_inanimate_clothing_gloves_1.png	101	inanimate	clothing	gloves	1	0	2	stars	4	correct	0.749687862582505
98403	1	stim077_animate_insect_grasshopper_1.png	77	animate	insect	grasshopper	1	0	2	stars	4	correct	0.749687862582505
98453	1	stim054_animate_human_faces_2.png	54	animate	human	faces	2	0	2	stars	4	correct	0.749687862582505
98503	1	stim079_animate_insect_grasshopper_3.png	79	animate	insect	grasshopper	3	0	2	stars	4	correct	0.749687862582505
98553	1	stim135_inanimate_fruits_pineapple_3.png	135	inanimate	fruits	pineapple	3	0	2	stars	4	correct	0.749687862582505
98603	1	stim092_animate_mammal_kangaroo_4.png	92	animate	mammal	kangaroo	4	0	2	stars	4	correct	0.749687862582505
98653	1	stim048_animate_human_child_4.png	48	animate	human	child	4	0	2	stars	4	correct	0.749687862582505
98703	1	stim052_animate_human_clown_4.png	52	animate	human	clown	4	0	2	stars	4	correct	0.749687862582505
98753	1	stim068_animate_insect_bug_4.png	68	animate	insect	bug	4	0	2	stars	4	correct	0.749687862582505
98803	1	stim062_animate_insect_ant_2.png	62	animate	insect	ant	2	0	2	stars	4	correct	0.749687862582505
98853	1	stim058_animate_human_sports_2.png	58	animate	human	sports	2	0	2	stars	4	correct	0.749687862582505
98903	1	stim014_animate_aquatic_shark_2.png	14	animate	aquatic	shark	2	0	2	stars	4	correct	0.749687862582505
98953	1	stim159_inanimate_furniture_table_3.png	159	inanimate	furniture	table	3	0	2	stars	4	correct	0.749687862582505
99003	1	stim081_animate_mammal_cow_1.png	81	animate	mammal	cow	1	0	2	stars	4	correct	0.749687862582505
99053	1	stim049_animate_human_clown_1.png	49	animate	human	clown	1	0	2	stars	4	correct	0.749687862582505
99103	1	stim072_animate_insect_butterfly_4.png	72	animate	insect	butterfly	4	0	2	stars	4	correct	0.749687862582505
99153	1	stim144_inanimate_furniture_bed_4.png	144	inanimate	furniture	bed	4	0	2	stars	4	correct	0.749687862582505
99203	1	stim066_animate_insect_bug_2.png	66	animate	insect	bug	2	0	2	stars	4	correct	0.749687862582505
99253	1	stim145_inanimate_furniture_chair_1.png	145	inanimate	furniture	chair	1	0	2	stars	4	correct	0.749687862582505
99303	1	stim148_inanimate_furniture_chair_4.png	148	inanimate	furniture	chair	4	0	2	stars	4	correct	0.749687862582505
99353	1	stim015_animate_aquatic_shark_3.png	15	animate	aquatic	shark	3	0	2	stars	4	correct	0.749687862582505
99403	1	stim110_inanimate_clothing_jeans_2.png	110	inanimate	clothing	jeans	2	0	2	stars	4	correct	0.749687862582505
99453	1	stim035_animate_bird_peacock_3.png	35	animate	bird	peacock	3	0	2	stars	4	correct	0.749687862582505
99503	1	stim199_inanimate_tools_wrench_3.png	199	inanimate	tools	wrench	3	0	2	stars	4	correct	0.749687862582505
99553	1	stim167_inanimate_plants_cactus_3.png	167	inanimate	plants	cactus	3	0	2	stars	4	correct	0.749687862582505
99603	1	stim102_inanimate_clothing_gloves_2.png	102	inanimate	clothing	gloves	2	0	2	stars	4	correct	0.749687862582505
99653	1	stim127_inanimate_fruits_banana_3.png	127	inanimate	fruits	banana	3	0	2	stars	4	correct	0.749687862582505
99703	1	stim157_inanimate_furniture_table_1.png	157	inanimate	furniture	table	1	0	2	stars	4	correct	0.749687862582505
99753	1	stim134_inanimate_fruits_pineapple_2.png	134	inanimate	fruits	pineapple	2	0	2	stars	4	correct	0.749687862582505
99803	1	stim119_inanimate_clothing_socks_3.png	119	inanimate	clothing	socks	3	0	2	stars	4	correct	0.749687862582505
99853	1	stim074_animate_insect_dragonfly_2.png	74	animate	insect	dragonfly	2	0	2	stars	4	correct	0.749687862582505
99903	1	stim073_animate_insect_dragonfly_1.png	73	animate	insect	dragonfly	1	0	2	stars	4	correct	0.749687862582505
99953	1	stim095_animate_mammal_monkey_3.png	95	animate	mammal	monkey	3	0	2	stars	4	correct	0.749687862582505
100003	1	stim065_animate_insect_bug_1.png	65	animate	insect	bug	1	0	2	stars	4	correct	0.749687862582505
100053	1	stim177_inanimate_plants_tulip_1.png	177	inanimate	plants	tulip	1	0	2	stars	4	correct	0.749687862582505
100103	1	stim122_inanimate_fruits_apple_2.png	122	inanimate	fruits	apple	2	0	2	stars	4	correct	0.749687862582505
100153	1	stim187_inanimate_tools_hammer_3.png	187	inanimate	tools	hammer	3	0	2	stars	4	correct	0.749687862582505
100203	1	stim038_animate_bird_penguin_2.png	38	animate	bird	penguin	2	0	2	stars	4	correct	0.749687862582505
100253	1	stim146_inanimate_furniture_chair_2.png	146	inanimate	furniture	chair	2	0	2	stars	4	correct	0.749687862582505
100303	1	stim100_animate_mammal_rhino_4.png	100	animate	mammal	rhino	4	0	2	stars	4	correct	0.749687862582505
100353	1	stim028_animate_bird_duck_4.png	28	animate	bird	duck	4	0	2	stars	4	correct	0.749687862582505
100403	1	stim125_inanimate_fruits_banana_1.png	125	inanimate	fruits	banana	1	0	2	stars	4	correct	0.749687862582505
100453	1	stim128_inanimate_fruits_banana_4.png	128	inanimate	fruits	banana	4	0	2	stars	4	correct	0.749687862582505
100503	1	stim108_inanimate_clothing_hat_4.png	108	inanimate	clothing	hat	4	0	2	stars	4	correct	0.749687862582505
100553	1	stim021_animate_bird_chicken_1.png	21	animate	bird	chicken	1	0	2	stars	4	correct	0.749687862582505
109070	1	stim098_animate_mammal_rhino_2.png	98	animate	mammal	rhino	2	0	3	boats	1	correct	0.993512710789219
109120	1	stim107_inanimate_clothing_hat_3.png	107	inanimate	clothing	hat	3	0	3	boats	1	correct	0.993512710789219
109170	1	stim193_inanimate_tools_scissors_1.png	193	inanimate	tools	scissors	1	0	3	boats	1	correct	0.993512710789219
109220	1	stim153_inanimate_furniture_sofa_1.png	153	inanimate	furniture	sofa	1	0	3	boats	1	correct	0.993512710789219
109270	1	stim155_inanimate_furniture_sofa_3.png	155	inanimate	furniture	sofa	3	0	3	boats	1	correct	0.993512710789219
109320	1	stim198_inanimate_tools_wrench_2.png	198	inanimate	tools	wrench	2	0	3	boats	1	correct	0.993512710789219
109370	1	stim093_animate_mammal_monkey_1.png	93	animate	mammal	monkey	1	0	3	boats	1	correct	0.993512710789219
109420	1	stim165_inanimate_plants_cactus_1.png	165	inanimate	plants	cactus	1	0	3	boats	1	correct	0.993512710789219
109470	1	stim028_animate_bird_duck_4.png	28	animate	bird	duck	4	0	3	boats	1	correct	0.993512710789219
109520	1	stim075_animate_insect_dragonfly_3.png	75	animate	insect	dragonfly	3	0	3	boats	1	correct	0.993512710789219
109570	1	stim073_animate_insect_dragonfly_1.png	73	animate	insect	dragonfly	1	0	3	boats	1	correct	0.993512710789219
109620	1	stim162_inanimate_plants_bush_2.png	162	inanimate	plants	bush	2	0	3	boats	1	correct	0.993512710789219
109670	1	stim077_animate_insect_grasshopper_1.png	77	animate	insect	grasshopper	1	0	3	boats	1	correct	0.993512710789219
109720	1	stim065_animate_insect_bug_1.png	65	animate	insect	bug	1	0	3	boats	1	correct	0.993512710789219
109770	1	stim186_inanimate_tools_hammer_2.png	186	inanimate	tools	hammer	2	0	3	boats	1	correct	0.993512710789219
109820	1	stim117_inanimate_clothing_socks_1.png	117	inanimate	clothing	socks	1	0	3	boats	1	correct	0.993512710789219
109870	1	stim033_animate_bird_peacock_1.png	33	animate	bird	peacock	1	0	3	boats	1	correct	0.993512710789219
109920	1	stim182_inanimate_tools_broom_2.png	182	inanimate	tools	broom	2	0	3	boats	1	correct	0.993512710789219
109970	1	stim131_inanimate_fruits_grape_3.png	131	inanimate	fruits	grape	3	0	3	boats	1	correct	0.993512710789219
110020	1	stim192_inanimate_tools_pan_4.png	192	inanimate	tools	pan	4	0	3	boats	1	correct	0.993512710789219
110070	1	stim042_animate_human_baby_2.png	42	animate	human	baby	2	0	3	boats	1	correct	0.993512710789219
110120	1	stim188_inanimate_tools_hammer_4.png	188	inanimate	tools	hammer	4	0	3	boats	1	correct	0.993512710789219
110170	1	stim139_inanimate_fruits_strawberry_3.png	139	inanimate	fruits	strawberry	3	0	3	boats	1	correct	0.993512710789219
110220	1	stim173_inanimate_plants_tree_1.png	173	inanimate	plants	tree	1	0	3	boats	1	correct	0.993512710789219
110270	1	stim168_inanimate_plants_cactus_4.png	168	inanimate	plants	cactus	4	0	3	boats	1	correct	0.993512710789219
110320	1	stim095_animate_mammal_monkey_3.png	95	animate	mammal	monkey	3	0	3	boats	1	correct	0.993512710789219
110370	1	stim024_animate_bird_chicken_4.png	24	animate	bird	chicken	4	0	3	boats	1	correct	0.993512710789219
110420	1	stim085_animate_mammal_giraffe_1.png	85	animate	mammal	giraffe	1	0	3	boats	1	correct	0.993512710789219
110470	1	stim078_animate_insect_grasshopper_2.png	78	animate	insect	grasshopper	2	0	3	boats	1	correct	0.993512710789219
110520	1	stim181_inanimate_tools_broom_1.png	181	inanimate	tools	broom	1	0	3	boats	1	correct	0.993512710789219
110570	1	stim045_animate_human_child_1.png	45	animate	human	child	1	0	3	boats	1	correct	0.993512710789219
110620	1	stim178_inanimate_plants_tulip_2.png	178	inanimate	plants	tulip	2	0	3	boats	1	correct	0.993512710789219
110670	1	stim144_inanimate_furniture_bed_4.png	144	inanimate	furniture	bed	4	0	3	boats	1	correct	0.993512710789219
110720	1	stim006_animate_aquatic_fish_2.png	6	animate	aquatic	fish	2	0	3	boats	1	correct	0.993512710789219
110770	1	stim074_animate_insect_dragonfly_2.png	74	animate	insect	dragonfly	2	0	3	boats	1	correct	0.993512710789219
110820	1	stim102_inanimate_clothing_gloves_2.png	102	inanimate	clothing	gloves	2	0	3	boats	1	correct	0.993512710789219
110870	1	stim187_inanimate_tools_hammer_3.png	187	inanimate	tools	hammer	3	0	3	boats	1	correct	0.993512710789219
110920	1	stim180_inanimate_plants_tulip_4.png	180	inanimate	plants	tulip	4	0	3	boats	1	correct	0.993512710789219
110970	1	stim113_inanimate_clothing_shirt_1.png	113	inanimate	clothing	shirt	1	0	3	boats	1	correct	0.993512710789219
111020	1	stim114_inanimate_clothing_shirt_2.png	114	inanimate	clothing	shirt	2	0	3	boats	1	correct	0.993512710789219
111070	1	stim054_animate_human_faces_2.png	54	animate	human	faces	2	0	3	boats	1	correct	0.993512710789219
111120	1	stim011_animate_aquatic_seahorse_3.png	11	animate	aquatic	seahorse	3	0	3	boats	1	correct	0.993512710789219
111170	1	stim083_animate_mammal_cow_3.png	83	animate	mammal	cow	3	0	3	boats	1	correct	0.993512710789219
111220	1	stim066_animate_insect_bug_2.png	66	animate	insect	bug	2	0	3	boats	1	correct	0.993512710789219
111270	1	stim179_inanimate_plants_tulip_3.png	179	inanimate	plants	tulip	3	0	3	boats	1	correct	0.993512710789219
111320	1	stim109_inanimate_clothing_jeans_1.png	109	inanimate	clothing	jeans	1	0	3	boats	1	correct	0.993512710789219
111370	1	stim031_animate_bird_parrot_3.png	31	animate	bird	parrot	3	0	3	boats	1	correct	0.993512710789219
111420	1	stim167_inanimate_plants_cactus_3.png	167	inanimate	plants	cactus	3	0	3	boats	1	correct	0.993512710789219
111470	1	stim080_animate_insect_grasshopper_4.png	80	animate	insect	grasshopper	4	0	3	boats	1	correct	0.993512710789219
111520	1	stim161_inanimate_plants_bush_1.png	161	inanimate	plants	bush	1	0	3	boats	1	correct	0.993512710789219
111570	1	stim103_inanimate_clothing_gloves_3.png	103	inanimate	clothing	gloves	3	0	3	boats	1	correct	0.993512710789219
111620	1	stim013_animate_aquatic_shark_1.png	13	animate	aquatic	shark	1	0	3	boats	1	correct	0.993512710789219
111670	1	stim171_inanimate_plants_sunflower_3.png	171	inanimate	plants	sunflower	3	0	3	boats	1	correct	0.993512710789219
111720	1	stim184_inanimate_tools_broom_4.png	184	inanimate	tools	broom	4	0	3	boats	1	correct	0.993512710789219
111770	1	stim019_animate_aquatic_shrimp_3.png	19	animate	aquatic	shrimp	3	0	3	boats	1	correct	0.993512710789219
111820	1	stim110_inanimate_clothing_jeans_2.png	110	inanimate	clothing	jeans	2	0	3	boats	1	correct	0.993512710789219
111870	1	stim156_inanimate_furniture_sofa_4.png	156	inanimate	furniture	sofa	4	0	3	boats	1	correct	0.993512710789219
111920	1	stim043_animate_human_baby_3.png	43	animate	human	baby	3	0	3	boats	1	correct	0.993512710789219
111970	1	stim039_animate_bird_penguin_3.png	39	animate	bird	penguin	3	0	3	boats	1	correct	0.993512710789219
112020	1	stim185_inanimate_tools_hammer_1.png	185	inanimate	tools	hammer	1	0	3	boats	1	correct	0.993512710789219
112070	1	stim166_inanimate_plants_cactus_2.png	166	inanimate	plants	cactus	2	0	3	boats	1	correct	0.993512710789219
112120	1	stim190_inanimate_tools_pan_2.png	190	inanimate	tools	pan	2	0	3	boats	1	correct	0.993512710789219
112170	1	stim111_inanimate_clothing_jeans_3.png	111	inanimate	clothing	jeans	3	0	3	boats	1	correct	0.993512710789219
112220	1	stim087_animate_mammal_giraffe_3.png	87	animate	mammal	giraffe	3	0	3	boats	1	correct	0.993512710789219
112270	1	stim194_inanimate_tools_scissors_2.png	194	inanimate	tools	scissors	2	0	3	boats	1	correct	0.993512710789219
112320	1	stim048_animate_human_child_4.png	48	animate	human	child	4	0	3	boats	1	correct	0.993512710789219
112370	1	stim163_inanimate_plants_bush_3.png	163	inanimate	plants	bush	3	0	3	boats	1	correct	0.993512710789219
112420	1	stim160_inanimate_furniture_table_4.png	160	inanimate	furniture	table	4	0	3	boats	1	correct	0.993512710789219
112470	1	stim158_inanimate_furniture_table_2.png	158	inanimate	furniture	table	2	0	3	boats	1	correct	0.993512710789219
112520	1	stim189_inanimate_tools_pan_1.png	189	inanimate	tools	pan	1	0	3	boats	1	correct	0.993512710789219
112570	1	stim151_inanimate_furniture_closet_3.png	151	inanimate	furniture	closet	3	0	3	boats	1	correct	0.993512710789219
112620	1	stim072_animate_insect_butterfly_4.png	72	animate	insect	butterfly	4	0	3	boats	1	correct	0.993512710789219
112670	1	stim021_animate_bird_chicken_1.png	21	animate	bird	chicken	1	0	3	boats	1	correct	0.993512710789219
112720	1	stim183_inanimate_tools_broom_3.png	183	inanimate	tools	broom	3	0	3	boats	1	correct	0.993512710789219
112770	1	stim118_inanimate_clothing_socks_2.png	118	inanimate	clothing	socks	2	0	3	boats	1	correct	0.993512710789219
112820	1	stim177_inanimate_plants_tulip_1.png	177	inanimate	plants	tulip	1	0	3	boats	1	correct	0.993512710789219
112870	1	stim029_animate_bird_parrot_1.png	29	animate	bird	parrot	1	0	3	boats	1	correct	0.993512710789219
112920	1	stim099_animate_mammal_rhino_3.png	99	animate	mammal	rhino	3	0	3	boats	1	correct	0.993512710789219
112970	1	stim145_inanimate_furniture_chair_1.png	145	inanimate	furniture	chair	1	0	3	boats	1	correct	0.993512710789219
113020	1	stim143_inanimate_furniture_bed_3.png	143	inanimate	furniture	bed	3	0	3	boats	1	correct	0.993512710789219
113070	1	stim195_inanimate_tools_scissors_3.png	195	inanimate	tools	scissors	3	0	3	boats	1	correct	0.993512710789219
113120	1	stim159_inanimate_furniture_table_3.png	159	inanimate	furniture	table	3	0	3	boats	1	correct	0.993512710789219
113170	1	stim128_inanimate_fruits_banana_4.png	128	inanimate	fruits	banana	4	0	3	boats	1	correct	0.993512710789219
113220	1	stim060_animate_human_sports_4.png	60	animate	human	sports	4	0	3	boats	1	correct	0.993512710789219
113270	1	stim097_animate_mammal_rhino_1.png	97	animate	mammal	rhino	1	0	3	boats	1	correct	0.993512710789219
113320	1	stim170_inanimate_plants_sunflower_2.png	170	inanimate	plants	sunflower	2	0	3	boats	1	correct	0.993512710789219
113370	1	stim018_animate_aquatic_shrimp_2.png	18	animate	aquatic	shrimp	2	0	3	boats	1	correct	0.993512710789219
113420	1	stim138_inanimate_fruits_strawberry_2.png	138	inanimate	fruits	strawberry	2	0	3	boats	1	correct	0.993512710789219
113470	1	stim123_inanimate_fruits_apple_3.png	123	inanimate	fruits	apple	3	0	3	boats	1	correct	0.993512710789219
113520	1	stim136_inanimate_fruits_pineapple_4.png	136	inanimate	fruits	pineapple	4	0	3	boats	1	correct	0.993512710789219
113570	1	stim020_animate_aquatic_shrimp_4.png	20	animate	aquatic	shrimp	4	0	3	boats	1	correct	0.993512710789219
113620	1	stim126_inanimate_fruits_banana_2.png	126	inanimate	fruits	banana	2	0	3	boats	1	correct	0.993512710789219
113670	1	stim164_inanimate_plants_bush_4.png	164	inanimate	plants	bush	4	0	3	boats	1	correct	0.993512710789219
113720	1	stim034_animate_bird_peacock_2.png	34	animate	bird	peacock	2	0	3	boats	1	correct	0.993512710789219
113770	1	stim134_inanimate_fruits_pineapple_2.png	134	inanimate	fruits	pineapple	2	0	3	boats	1	correct	0.993512710789219
113820	1	stim026_animate_bird_duck_2.png	26	animate	bird	duck	2	0	3	boats	1	correct	0.993512710789219
113870	1	stim141_inanimate_furniture_bed_1.png	141	inanimate	furniture	bed	1	0	3	boats	1	correct	0.993512710789219
113920	1	stim092_animate_mammal_kangaroo_4.png	92	animate	mammal	kangaroo	4	0	3	boats	1	correct	0.993512710789219
113970	1	stim204_targets_object_boats_4.png	204	targets	object	boats	4	1	3	boats	1	correct	0.993512710789219
114020	1	stim147_inanimate_furniture_chair_3.png	147	inanimate	furniture	chair	3	0	3	boats	1	correct	0.993512710789219
114070	1	stim037_animate_bird_penguin_1.png	37	animate	bird	penguin	1	0	3	boats	1	correct	0.993512710789219
114120	1	stim125_inanimate_fruits_banana_1.png	125	inanimate	fruits	banana	1	0	3	boats	1	correct	0.993512710789219
114170	1	stim056_animate_human_faces_4.png	56	animate	human	faces	4	0	3	boats	1	correct	0.993512710789219
114220	1	stim027_animate_bird_duck_3.png	27	animate	bird	duck	3	0	3	boats	1	correct	0.993512710789219
114270	1	stim064_animate_insect_ant_4.png	64	animate	insect	ant	4	0	3	boats	1	correct	0.993512710789219
114320	1	stim152_inanimate_furniture_closet_4.png	152	inanimate	furniture	closet	4	0	3	boats	1	correct	0.993512710789219
114370	1	stim068_animate_insect_bug_4.png	68	animate	insect	bug	4	0	3	boats	1	correct	0.993512710789219
114420	1	stim091_animate_mammal_kangaroo_3.png	91	animate	mammal	kangaroo	3	0	3	boats	1	correct	0.993512710789219
114470	1	stim071_animate_insect_butterfly_3.png	71	animate	insect	butterfly	3	0	3	boats	1	correct	0.993512710789219
114520	1	stim112_inanimate_clothing_jeans_4.png	112	inanimate	clothing	jeans	4	0	3	boats	1	correct	0.993512710789219
114570	1	stim067_animate_insect_bug_3.png	67	animate	insect	bug	3	0	3	boats	1	correct	0.993512710789219
114620	1	stim076_animate_insect_dragonfly_4.png	76	animate	insect	dragonfly	4	0	3	boats	1	correct	0.993512710789219
114670	1	stim146_inanimate_furniture_chair_2.png	146	inanimate	furniture	chair	2	0	3	boats	1	correct	0.993512710789219
114720	1	stim135_inanimate_fruits_pineapple_3.png	135	inanimate	fruits	pineapple	3	0	3	boats	1	correct	0.993512710789219
114770	1	stim191_inanimate_tools_pan_3.png	191	inanimate	tools	pan	3	0	3	boats	1	correct	0.993512710789219
114820	1	stim063_animate_insect_ant_3.png	63	animate	insect	ant	3	0	3	boats	1	correct	0.993512710789219
114870	1	stim127_inanimate_fruits_banana_3.png	127	inanimate	fruits	banana	3	0	3	boats	1	correct	0.993512710789219
114920	1	stim090_animate_mammal_kangaroo_2.png	90	animate	mammal	kangaroo	2	0	3	boats	1	correct	0.993512710789219
114970	1	stim108_inanimate_clothing_hat_4.png	108	inanimate	clothing	hat	4	0	3	boats	1	correct	0.993512710789219
115020	1	stim035_animate_bird_peacock_3.png	35	animate	bird	peacock	3	0	3	boats	1	correct	0.993512710789219
115070	1	stim175_inanimate_plants_tree_3.png	175	inanimate	plants	tree	3	0	3	boats	1	correct	0.993512710789219
115120	1	stim129_inanimate_fruits_grape_1.png	129	inanimate	fruits	grape	1	0	3	boats	1	correct	0.993512710789219
115170	1	stim032_animate_bird_parrot_4.png	32	animate	bird	parrot	4	0	3	boats	1	correct	0.993512710789219
115220	1	stim001_animate_aquatic_crab_1.png	1	animate	aquatic	crab	1	0	3	boats	1	correct	0.993512710789219
115270	1	stim038_animate_bird_penguin_2.png	38	animate	bird	penguin	2	0	3	boats	1	correct	0.993512710789219
115320	1	stim119_inanimate_clothing_socks_3.png	119	inanimate	clothing	socks	3	0	3	boats	1	correct	0.993512710789219
115370	1	stim082_animate_mammal_cow_2.png	82	animate	mammal	cow	2	0	3	boats	1	correct	0.993512710789219
115420	1	stim124_inanimate_fruits_apple_4.png	124	inanimate	fruits	apple	4	0	3	boats	1	correct	0.993512710789219
115470	1	stim023_animate_bird_chicken_3.png	23	animate	bird	chicken	3	0	3	boats	1	correct	0.993512710789219
115520	1	stim022_animate_bird_chicken_2.png	22	animate	bird	chicken	2	0	3	boats	1	correct	0.993512710789219
115570	1	stim088_animate_mammal_giraffe_4.png	88	animate	mammal	giraffe	4	0	3	boats	1	correct	0.993512710789219
115620	1	stim116_inanimate_clothing_shirt_4.png	116	inanimate	clothing	shirt	4	0	3	boats	1	correct	0.993512710789219
115670	1	stim057_animate_human_sports_1.png	57	animate	human	sports	1	0	3	boats	1	correct	0.993512710789219
115720	1	stim140_inanimate_fruits_strawberry_4.png	140	inanimate	fruits	strawberry	4	0	3	boats	1	correct	0.993512710789219
115770	1	stim053_animate_human_faces_1.png	53	animate	human	faces	1	0	3	boats	1	correct	0.993512710789219
115820	1	stim030_animate_bird_parrot_2.png	30	animate	bird	parrot	2	0	3	boats	1	correct	0.993512710789219
115870	1	stim058_animate_human_sports_2.png	58	animate	human	sports	2	0	3	boats	1	correct	0.993512710789219
115920	1	stim149_inanimate_furniture_closet_1.png	149	inanimate	furniture	closet	1	0	3	boats	1	correct	0.993512710789219
115970	1	stim044_animate_human_baby_4.png	44	animate	human	baby	4	0	3	boats	1	correct	0.993512710789219
116020	1	stim049_animate_human_clown_1.png	49	animate	human	clown	1	0	3	boats	1	correct	0.993512710789219
116070	1	stim003_animate_aquatic_crab_3.png	3	animate	aquatic	crab	3	0	3	boats	1	correct	0.993512710789219
116120	1	stim051_animate_human_clown_3.png	51	animate	human	clown	3	0	3	boats	1	correct	0.993512710789219
116170	1	stim015_animate_aquatic_shark_3.png	15	animate	aquatic	shark	3	0	3	boats	1	correct	0.993512710789219
116220	1	stim104_inanimate_clothing_gloves_4.png	104	inanimate	clothing	gloves	4	0	3	boats	1	correct	0.993512710789219
116270	1	stim010_animate_aquatic_seahorse_2.png	10	animate	aquatic	seahorse	2	0	3	boats	1	correct	0.993512710789219
116320	1	stim196_inanimate_tools_scissors_4.png	196	inanimate	tools	scissors	4	0	3	boats	1	correct	0.993512710789219
116370	1	stim176_inanimate_plants_tree_4.png	176	inanimate	plants	tree	4	0	3	boats	1	correct	0.993512710789219
116420	1	stim070_animate_insect_butterfly_2.png	70	animate	insect	butterfly	2	0	3	boats	1	correct	0.993512710789219
116470	1	stim154_inanimate_furniture_sofa_2.png	154	inanimate	furniture	sofa	2	0	3	boats	1	correct	0.993512710789219
116520	1	stim148_inanimate_furniture_chair_4.png	148	inanimate	furniture	chair	4	0	3	boats	1	correct	0.993512710789219
116570	1	stim137_inanimate_fruits_strawberry_1.png	137	inanimate	fruits	strawberry	1	0	3	boats	1	correct	0.993512710789219
116620	1	stim069_animate_insect_butterfly_1.png	69	animate	insect	butterfly	1	0	3	boats	1	correct	0.993512710789219
116670	1	stim100_animate_mammal_rhino_4.png	100	animate	mammal	rhino	4	0	3	boats	1	correct	0.993512710789219
116720	1	stim122_inanimate_fruits_apple_2.png	122	inanimate	fruits	apple	2	0	3	boats	1	correct	0.993512710789219
116770	1	stim096_animate_mammal_monkey_4.png	96	animate	mammal	monkey	4	0	3	boats	1	correct	0.993512710789219
116820	1	stim115_inanimate_clothing_shirt_3.png	115	inanimate	clothing	shirt	3	0	3	boats	1	correct	0.993512710789219
116870	1	stim200_inanimate_tools_wrench_4.png	200	inanimate	tools	wrench	4	0	3	boats	1	correct	0.993512710789219
116920	1	stim150_inanimate_furniture_closet_2.png	150	inanimate	furniture	closet	2	0	3	boats	1	correct	0.993512710789219
116970	1	stim172_inanimate_plants_sunflower_4.png	172	inanimate	plants	sunflower	4	0	3	boats	1	correct	0.993512710789219
117020	1	stim036_animate_bird_peacock_4.png	36	animate	bird	peacock	4	0	3	boats	1	correct	0.993512710789219
117070	1	stim197_inanimate_tools_wrench_1.png	197	inanimate	tools	wrench	1	0	3	boats	1	correct	0.993512710789219
117120	1	stim052_animate_human_clown_4.png	52	animate	human	clown	4	0	3	boats	1	correct	0.993512710789219
117170	1	stim132_inanimate_fruits_grape_4.png	132	inanimate	fruits	grape	4	0	3	boats	1	correct	0.993512710789219
117220	1	stim142_inanimate_furniture_bed_2.png	142	inanimate	furniture	bed	2	0	3	boats	1	correct	0.993512710789219
117270	1	stim016_animate_aquatic_shark_4.png	16	animate	aquatic	shark	4	0	3	boats	1	correct	0.993512710789219
117320	1	stim086_animate_mammal_giraffe_2.png	86	animate	mammal	giraffe	2	0	3	boats	1	correct	0.993512710789219
117370	1	stim130_inanimate_fruits_grape_2.png	130	inanimate	fruits	grape	2	0	3	boats	1	correct	0.993512710789219
117420	1	stim094_animate_mammal_monkey_2.png	94	animate	mammal	monkey	2	0	3	boats	1	correct	0.993512710789219
117470	1	stim050_animate_human_clown_2.png	50	animate	human	clown	2	0	3	boats	1	correct	0.993512710789219
117520	1	stim081_animate_mammal_cow_1.png	81	animate	mammal	cow	1	0	3	boats	1	correct	0.993512710789219
117570	1	stim121_inanimate_fruits_apple_1.png	121	inanimate	fruits	apple	1	0	3	boats	1	correct	0.993512710789219
117620	1	stim157_inanimate_furniture_table_1.png	157	inanimate	furniture	table	1	0	3	boats	1	correct	0.993512710789219
117670	1	stim007_animate_aquatic_fish_3.png	7	animate	aquatic	fish	3	0	3	boats	1	correct	0.993512710789219
117720	1	stim105_inanimate_clothing_hat_1.png	105	inanimate	clothing	hat	1	0	3	boats	1	correct	0.993512710789219
117770	1	stim009_animate_aquatic_seahorse_1.png	9	animate	aquatic	seahorse	1	0	3	boats	1	correct	0.993512710789219
117820	1	stim101_inanimate_clothing_gloves_1.png	101	inanimate	clothing	gloves	1	0	3	boats	1	correct	0.993512710789219
117870	1	stim040_animate_bird_penguin_4.png	40	animate	bird	penguin	4	0	3	boats	1	correct	0.993512710789219
117920	1	stim174_inanimate_plants_tree_2.png	174	inanimate	plants	tree	2	0	3	boats	1	correct	0.993512710789219
117970	1	stim084_animate_mammal_cow_4.png	84	animate	mammal	cow	4	0	3	boats	1	correct	0.993512710789219
118020	1	stim055_animate_human_faces_3.png	55	animate	human	faces	3	0	3	boats	1	correct	0.993512710789219
118070	1	stim025_animate_bird_duck_1.png	25	animate	bird	duck	1	0	3	boats	1	correct	0.993512710789219
118120	1	stim059_animate_human_sports_3.png	59	animate	human	sports	3	0	3	boats	1	correct	0.993512710789219
118170	1	stim079_animate_insect_grasshopper_3.png	79	animate	insect	grasshopper	3	0	3	boats	1	correct	0.993512710789219
118220	1	stim005_animate_aquatic_fish_1.png	5	animate	aquatic	fish	1	0	3	boats	1	correct	0.993512710789219
118270	1	stim004_animate_aquatic_crab_4.png	4	animate	aquatic	crab	4	0	3	boats	1	correct	0.993512710789219
118320	1	stim089_animate_mammal_kangaroo_1.png	89	animate	mammal	kangaroo	1	0	3	boats	1	correct	0.993512710789219
118370	1	stim061_animate_insect_ant_1.png	61	animate	insect	ant	1	0	3	boats	1	correct	0.993512710789219
118420	1	stim002_animate_aquatic_crab_2.png	2	animate	aquatic	crab	2	0	3	boats	1	correct	0.993512710789219
118470	1	stim017_animate_aquatic_shrimp_1.png	17	animate	aquatic	shrimp	1	0	3	boats	1	correct	0.993512710789219
118520	1	stim046_animate_human_child_2.png	46	animate	human	child	2	0	3	boats	1	correct	0.993512710789219
118570	1	stim012_animate_aquatic_seahorse_4.png	12	animate	aquatic	seahorse	4	0	3	boats	1	correct	0.993512710789219
118620	1	stim008_animate_aquatic_fish_4.png	8	animate	aquatic	fish	4	0	3	boats	1	correct	0.993512710789219
118670	1	stim041_animate_human_baby_1.png	41	animate	human	baby	1	0	3	boats	1	correct	0.993512710789219
118720	1	stim106_inanimate_clothing_hat_2.png	106	inanimate	clothing	hat	2	0	3	boats	1	correct	0.993512710789219
118770	1	stim014_animate_aquatic_shark_2.png	14	animate	aquatic	shark	2	0	3	boats	1	correct	0.993512710789219
118820	1	stim047_animate_human_child_3.png	47	animate	human	child	3	0	3	boats	1	correct	0.993512710789219
118870	1	stim133_inanimate_fruits_pineapple_1.png	133	inanimate	fruits	pineapple	1	0	3	boats	1	correct	0.993512710789219
118920	1	stim120_inanimate_clothing_socks_4.png	120	inanimate	clothing	socks	4	0	3	boats	1	correct	0.993512710789219
118970	1	stim062_animate_insect_ant_2.png	62	animate	insect	ant	2	0	3	boats	1	correct	0.993512710789219
119020	1	stim169_inanimate_plants_sunflower_1.png	169	inanimate	plants	sunflower	1	0	3	boats	1	correct	0.993512710789219
119070	1	stim199_inanimate_tools_wrench_3.png	199	inanimate	tools	wrench	3	0	3	boats	1	correct	0.993512710789219
132954	1	stim032_animate_bird_parrot_4.png	32	animate	bird	parrot	4	0	4	boats	4	correct	0.806179552571848
133004	1	stim011_animate_aquatic_seahorse_3.png	11	animate	aquatic	seahorse	3	0	4	boats	4	correct	0.806179552571848
133054	1	stim029_animate_bird_parrot_1.png	29	animate	bird	parrot	1	0	4	boats	4	correct	0.806179552571848
133104	1	stim002_animate_aquatic_crab_2.png	2	animate	aquatic	crab	2	0	4	boats	4	correct	0.806179552571848
133154	1	stim069_animate_insect_butterfly_1.png	69	animate	insect	butterfly	1	0	4	boats	4	correct	0.806179552571848
133204	1	stim160_inanimate_furniture_table_4.png	160	inanimate	furniture	table	4	0	4	boats	4	correct	0.806179552571848
133254	1	stim110_inanimate_clothing_jeans_2.png	110	inanimate	clothing	jeans	2	0	4	boats	4	correct	0.806179552571848
133304	1	stim061_animate_insect_ant_1.png	61	animate	insect	ant	1	0	4	boats	4	correct	0.806179552571848
133354	1	stim137_inanimate_fruits_strawberry_1.png	137	inanimate	fruits	strawberry	1	0	4	boats	4	correct	0.806179552571848
133404	1	stim086_animate_mammal_giraffe_2.png	86	animate	mammal	giraffe	2	0	4	boats	4	correct	0.806179552571848
133454	1	stim115_inanimate_clothing_shirt_3.png	115	inanimate	clothing	shirt	3	0	4	boats	4	correct	0.806179552571848
133504	1	stim119_inanimate_clothing_socks_3.png	119	inanimate	clothing	socks	3	0	4	boats	4	correct	0.806179552571848
133554	1	stim123_inanimate_fruits_apple_3.png	123	inanimate	fruits	apple	3	0	4	boats	4	correct	0.806179552571848
133604	1	stim147_inanimate_furniture_chair_3.png	147	inanimate	furniture	chair	3	0	4	boats	4	correct	0.806179552571848
133654	1	stim182_inanimate_tools_broom_2.png	182	inanimate	tools	broom	2	0	4	boats	4	correct	0.806179552571848
133704	1	stim127_inanimate_fruits_banana_3.png	127	inanimate	fruits	banana	3	0	4	boats	4	correct	0.806179552571848
133754	1	stim047_animate_human_child_3.png	47	animate	human	child	3	0	4	boats	4	correct	0.806179552571848
133804	1	stim125_inanimate_fruits_banana_1.png	125	inanimate	fruits	banana	1	0	4	boats	4	correct	0.806179552571848
133854	1	stim051_animate_human_clown_3.png	51	animate	human	clown	3	0	4	boats	4	correct	0.806179552571848
133904	1	stim101_inanimate_clothing_gloves_1.png	101	inanimate	clothing	gloves	1	0	4	boats	4	correct	0.806179552571848
133954	1	stim091_animate_mammal_kangaroo_3.png	91	animate	mammal	kangaroo	3	0	4	boats	4	correct	0.806179552571848
134004	1	stim132_inanimate_fruits_grape_4.png	132	inanimate	fruits	grape	4	0	4	boats	4	correct	0.806179552571848
134054	1	stim078_animate_insect_grasshopper_2.png	78	animate	insect	grasshopper	2	0	4	boats	4	correct	0.806179552571848
134104	1	stim192_inanimate_tools_pan_4.png	192	inanimate	tools	pan	4	0	4	boats	4	correct	0.806179552571848
134154	1	stim183_inanimate_tools_broom_3.png	183	inanimate	tools	broom	3	0	4	boats	4	correct	0.806179552571848
134204	1	stim162_inanimate_plants_bush_2.png	162	inanimate	plants	bush	2	0	4	boats	4	correct	0.806179552571848
134254	1	stim013_animate_aquatic_shark_1.png	13	animate	aquatic	shark	1	0	4	boats	4	correct	0.806179552571848
134304	1	stim055_animate_human_faces_3.png	55	animate	human	faces	3	0	4	boats	4	correct	0.806179552571848
134354	1	stim001_animate_aquatic_crab_1.png	1	animate	aquatic	crab	1	0	4	boats	4	correct	0.806179552571848
134404	1	stim023_animate_bird_chicken_3.png	23	animate	bird	chicken	3	0	4	boats	4	correct	0.806179552571848
134454	1	stim006_animate_aquatic_fish_2.png	6	animate	aquatic	fish	2	0	4	boats	4	correct	0.806179552571848
134504	1	stim052_animate_human_clown_4.png	52	animate	human	clown	4	0	4	boats	4	correct	0.806179552571848
134554	1	stim117_inanimate_clothing_socks_1.png	117	inanimate	clothing	socks	1	0	4	boats	4	correct	0.806179552571848
134604	1	stim060_animate_human_sports_4.png	60	animate	human	sports	4	0	4	boats	4	correct	0.806179552571848
134654	1	stim157_inanimate_furniture_table_1.png	157	inanimate	furniture	table	1	0	4	boats	4	correct	0.806179552571848
134704	1	stim190_inanimate_tools_pan_2.png	190	inanimate	tools	pan	2	0	4	boats	4	correct	0.806179552571848
134754	1	stim071_animate_insect_butterfly_3.png	71	animate	insect	butterfly	3	0	4	boats	4	correct	0.806179552571848
134804	1	stim085_animate_mammal_giraffe_1.png	85	animate	mammal	giraffe	1	0	4	boats	4	correct	0.806179552571848
134854	1	stim164_inanimate_plants_bush_4.png	164	inanimate	plants	bush	4	0	4	boats	4	correct	0.806179552571848
134904	1	stim050_animate_human_clown_2.png	50	animate	human	clown	2	0	4	boats	4	correct	0.806179552571848
134954	1	stim018_animate_aquatic_shrimp_2.png	18	animate	aquatic	shrimp	2	0	4	boats	4	correct	0.806179552571848
135004	1	stim150_inanimate_furniture_closet_2.png	150	inanimate	furniture	closet	2	0	4	boats	4	correct	0.806179552571848
135054	1	stim065_animate_insect_bug_1.png	65	animate	insect	bug	1	0	4	boats	4	correct	0.806179552571848
135104	1	stim007_animate_aquatic_fish_3.png	7	animate	aquatic	fish	3	0	4	boats	4	correct	0.806179552571848
135154	1	stim004_animate_aquatic_crab_4.png	4	animate	aquatic	crab	4	0	4	boats	4	correct	0.806179552571848
135204	1	stim094_animate_mammal_monkey_2.png	94	animate	mammal	monkey	2	0	4	boats	4	correct	0.806179552571848
135254	1	stim135_inanimate_fruits_pineapple_3.png	135	inanimate	fruits	pineapple	3	0	4	boats	4	correct	0.806179552571848
135304	1	stim082_animate_mammal_cow_2.png	82	animate	mammal	cow	2	0	4	boats	4	correct	0.806179552571848
135354	1	stim076_animate_insect_dragonfly_4.png	76	animate	insect	dragonfly	4	0	4	boats	4	correct	0.806179552571848
135404	1	stim003_animate_aquatic_crab_3.png	3	animate	aquatic	crab	3	0	4	boats	4	correct	0.806179552571848
135454	1	stim195_inanimate_tools_scissors_3.png	195	inanimate	tools	scissors	3	0	4	boats	4	correct	0.806179552571848
135504	1	stim064_animate_insect_ant_4.png	64	animate	insect	ant	4	0	4	boats	4	correct	0.806179552571848
135554	1	stim149_inanimate_furniture_closet_1.png	149	inanimate	furniture	closet	1	0	4	boats	4	correct	0.806179552571848
135604	1	stim028_animate_bird_duck_4.png	28	animate	bird	duck	4	0	4	boats	4	correct	0.806179552571848
135654	1	stim107_inanimate_clothing_hat_3.png	107	inanimate	clothing	hat	3	0	4	boats	4	correct	0.806179552571848
135704	1	stim198_inanimate_tools_wrench_2.png	198	inanimate	tools	wrench	2	0	4	boats	4	correct	0.806179552571848
135754	1	stim074_animate_insect_dragonfly_2.png	74	animate	insect	dragonfly	2	0	4	boats	4	correct	0.806179552571848
135804	1	stim044_animate_human_baby_4.png	44	animate	human	baby	4	0	4	boats	4	correct	0.806179552571848
135854	1	stim173_inanimate_plants_tree_1.png	173	inanimate	plants	tree	1	0	4	boats	4	correct	0.806179552571848
135904	1	stim175_inanimate_plants_tree_3.png	175	inanimate	plants	tree	3	0	4	boats	4	correct	0.806179552571848
135954	1	stim170_inanimate_plants_sunflower_2.png	170	inanimate	plants	sunflower	2	0	4	boats	4	correct	0.806179552571848
136004	1	stim206_targets_object_boats_2.png	206	targets	object	boats	2	1	4	boats	4	correct	0.806179552571848
136054	1	stim102_inanimate_clothing_gloves_2.png	102	inanimate	clothing	gloves	2	0	4	boats	4	correct	0.806179552571848
136104	1	stim142_inanimate_furniture_bed_2.png	142	inanimate	furniture	bed	2	0	4	boats	4	correct	0.806179552571848
136154	1	stim063_animate_insect_ant_3.png	63	animate	insect	ant	3	0	4	boats	4	correct	0.806179552571848
136204	1	stim031_animate_bird_parrot_3.png	31	animate	bird	parrot	3	0	4	boats	4	correct	0.806179552571848
136254	1	stim010_animate_aquatic_seahorse_2.png	10	animate	aquatic	seahorse	2	0	4	boats	4	correct	0.806179552571848
136304	1	stim188_inanimate_tools_hammer_4.png	188	inanimate	tools	hammer	4	0	4	boats	4	correct	0.806179552571848
136354	1	stim199_inanimate_tools_wrench_3.png	199	inanimate	tools	wrench	3	0	4	boats	4	correct	0.806179552571848
136404	1	stim106_inanimate_clothing_hat_2.png	106	inanimate	clothing	hat	2	0	4	boats	4	correct	0.806179552571848
136454	1	stim163_inanimate_plants_bush_3.png	163	inanimate	plants	bush	3	0	4	boats	4	correct	0.806179552571848
136504	1	stim112_inanimate_clothing_jeans_4.png	112	inanimate	clothing	jeans	4	0	4	boats	4	correct	0.806179552571848
136554	1	stim081_animate_mammal_cow_1.png	81	animate	mammal	cow	1	0	4	boats	4	correct	0.806179552571848
136604	1	stim196_inanimate_tools_scissors_4.png	196	inanimate	tools	scissors	4	0	4	boats	4	correct	0.806179552571848
136654	1	stim099_animate_mammal_rhino_3.png	99	animate	mammal	rhino	3	0	4	boats	4	correct	0.806179552571848
136704	1	stim080_animate_insect_grasshopper_4.png	80	animate	insect	grasshopper	4	0	4	boats	4	correct	0.806179552571848
136754	1	stim045_animate_human_child_1.png	45	animate	human	child	1	0	4	boats	4	correct	0.806179552571848
136804	1	stim178_inanimate_plants_tulip_2.png	178	inanimate	plants	tulip	2	0	4	boats	4	correct	0.806179552571848
136854	1	stim174_inanimate_plants_tree_2.png	174	inanimate	plants	tree	2	0	4	boats	4	correct	0.806179552571848
136904	1	stim185_inanimate_tools_hammer_1.png	185	inanimate	tools	hammer	1	0	4	boats	4	correct	0.806179552571848
136954	1	stim189_inanimate_tools_pan_1.png	189	inanimate	tools	pan	1	0	4	boats	4	correct	0.806179552571848
137004	1	stim139_inanimate_fruits_strawberry_3.png	139	inanimate	fruits	strawberry	3	0	4	boats	4	correct	0.806179552571848
137054	1	stim120_inanimate_clothing_socks_4.png	120	inanimate	clothing	socks	4	0	4	boats	4	correct	0.806179552571848
137104	1	stim134_inanimate_fruits_pineapple_2.png	134	inanimate	fruits	pineapple	2	0	4	boats	4	correct	0.806179552571848
137154	1	stim030_animate_bird_parrot_2.png	30	animate	bird	parrot	2	0	4	boats	4	correct	0.806179552571848
137204	1	stim059_animate_human_sports_3.png	59	animate	human	sports	3	0	4	boats	4	correct	0.806179552571848
137254	1	stim159_inanimate_furniture_table_3.png	159	inanimate	furniture	table	3	0	4	boats	4	correct	0.806179552571848
137304	1	stim129_inanimate_fruits_grape_1.png	129	inanimate	fruits	grape	1	0	4	boats	4	correct	0.806179552571848
137354	1	stim103_inanimate_clothing_gloves_3.png	103	inanimate	clothing	gloves	3	0	4	boats	4	correct	0.806179552571848
137404	1	stim130_inanimate_fruits_grape_2.png	130	inanimate	fruits	grape	2	0	4	boats	4	correct	0.806179552571848
137454	1	stim140_inanimate_fruits_strawberry_4.png	140	inanimate	fruits	strawberry	4	0	4	boats	4	correct	0.806179552571848
137504	1	stim124_inanimate_fruits_apple_4.png	124	inanimate	fruits	apple	4	0	4	boats	4	correct	0.806179552571848
137554	1	stim204_targets_object_boats_4.png	204	targets	object	boats	4	1	4	boats	4	correct	0.806179552571848
137604	1	stim171_inanimate_plants_sunflower_3.png	171	inanimate	plants	sunflower	3	0	4	boats	4	correct	0.806179552571848
137654	1	stim109_inanimate_clothing_jeans_1.png	109	inanimate	clothing	jeans	1	0	4	boats	4	correct	0.806179552571848
137704	1	stim151_inanimate_furniture_closet_3.png	151	inanimate	furniture	closet	3	0	4	boats	4	correct	0.806179552571848
137754	1	stim087_animate_mammal_giraffe_3.png	87	animate	mammal	giraffe	3	0	4	boats	4	correct	0.806179552571848
137804	1	stim022_animate_bird_chicken_2.png	22	animate	bird	chicken	2	0	4	boats	4	correct	0.806179552571848
137854	1	stim186_inanimate_tools_hammer_2.png	186	inanimate	tools	hammer	2	0	4	boats	4	correct	0.806179552571848
137904	1	stim122_inanimate_fruits_apple_2.png	122	inanimate	fruits	apple	2	0	4	boats	4	correct	0.806179552571848
137954	1	stim015_animate_aquatic_shark_3.png	15	animate	aquatic	shark	3	0	4	boats	4	correct	0.806179552571848
138004	1	stim075_animate_insect_dragonfly_3.png	75	animate	insect	dragonfly	3	0	4	boats	4	correct	0.806179552571848
138054	1	stim133_inanimate_fruits_pineapple_1.png	133	inanimate	fruits	pineapple	1	0	4	boats	4	correct	0.806179552571848
138104	1	stim054_animate_human_faces_2.png	54	animate	human	faces	2	0	4	boats	4	correct	0.806179552571848
138154	1	stim008_animate_aquatic_fish_4.png	8	animate	aquatic	fish	4	0	4	boats	4	correct	0.806179552571848
138204	1	stim181_inanimate_tools_broom_1.png	181	inanimate	tools	broom	1	0	4	boats	4	correct	0.806179552571848
138254	1	stim207_targets_object_boats_3.png	207	targets	object	boats	3	1	4	boats	4	correct	0.806179552571848
138304	1	stim070_animate_insect_butterfly_2.png	70	animate	insect	butterfly	2	0	4	boats	4	correct	0.806179552571848
138354	1	stim027_animate_bird_duck_3.png	27	animate	bird	duck	3	0	4	boats	4	correct	0.806179552571848
138404	1	stim104_inanimate_clothing_gloves_4.png	104	inanimate	clothing	gloves	4	0	4	boats	4	correct	0.806179552571848
138454	1	stim058_animate_human_sports_2.png	58	animate	human	sports	2	0	4	boats	4	correct	0.806179552571848
138504	1	stim067_animate_insect_bug_3.png	67	animate	insect	bug	3	0	4	boats	4	correct	0.806179552571848
138554	1	stim158_inanimate_furniture_table_2.png	158	inanimate	furniture	table	2	0	4	boats	4	correct	0.806179552571848
138604	1	stim180_inanimate_plants_tulip_4.png	180	inanimate	plants	tulip	4	0	4	boats	4	correct	0.806179552571848
138654	1	stim088_animate_mammal_giraffe_4.png	88	animate	mammal	giraffe	4	0	4	boats	4	correct	0.806179552571848
138704	1	stim108_inanimate_clothing_hat_4.png	108	inanimate	clothing	hat	4	0	4	boats	4	correct	0.806179552571848
138754	1	stim118_inanimate_clothing_socks_2.png	118	inanimate	clothing	socks	2	0	4	boats	4	correct	0.806179552571848
138804	1	stim156_inanimate_furniture_sofa_4.png	156	inanimate	furniture	sofa	4	0	4	boats	4	correct	0.806179552571848
138854	1	stim097_animate_mammal_rhino_1.png	97	animate	mammal	rhino	1	0	4	boats	4	correct	0.806179552571848
138904	1	stim020_animate_aquatic_shrimp_4.png	20	animate	aquatic	shrimp	4	0	4	boats	4	correct	0.806179552571848
138954	1	stim153_inanimate_furniture_sofa_1.png	153	inanimate	furniture	sofa	1	0	4	boats	4	correct	0.806179552571848
139004	1	stim200_inanimate_tools_wrench_4.png	200	inanimate	tools	wrench	4	0	4	boats	4	correct	0.806179552571848
139054	1	stim042_animate_human_baby_2.png	42	animate	human	baby	2	0	4	boats	4	correct	0.806179552571848
139104	1	stim176_inanimate_plants_tree_4.png	176	inanimate	plants	tree	4	0	4	boats	4	correct	0.806179552571848
139154	1	stim012_animate_aquatic_seahorse_4.png	12	animate	aquatic	seahorse	4	0	4	boats	4	correct	0.806179552571848
139204	1	stim098_animate_mammal_rhino_2.png	98	animate	mammal	rhino	2	0	4	boats	4	correct	0.806179552571848
139254	1	stim166_inanimate_plants_cactus_2.png	166	inanimate	plants	cactus	2	0	4	boats	4	correct	0.806179552571848
139304	1	stim144_inanimate_furniture_bed_4.png	144	inanimate	furniture	bed	4	0	4	boats	4	correct	0.806179552571848
139354	1	stim077_animate_insect_grasshopper_1.png	77	animate	insect	grasshopper	1	0	4	boats	4	correct	0.806179552571848
139404	1	stim036_animate_bird_peacock_4.png	36	animate	bird	peacock	4	0	4	boats	4	correct	0.806179552571848
139454	1	stim014_animate_aquatic_shark_2.png	14	animate	aquatic	shark	2	0	4	boats	4	correct	0.806179552571848
139504	1	stim053_animate_human_faces_1.png	53	animate	human	faces	1	0	4	boats	4	correct	0.806179552571848
139554	1	stim040_animate_bird_penguin_4.png	40	animate	bird	penguin	4	0	4	boats	4	correct	0.806179552571848
139604	1	stim146_inanimate_furniture_chair_2.png	146	inanimate	furniture	chair	2	0	4	boats	4	correct	0.806179552571848
139654	1	stim041_animate_human_baby_1.png	41	animate	human	baby	1	0	4	boats	4	correct	0.806179552571848
139704	1	stim155_inanimate_furniture_sofa_3.png	155	inanimate	furniture	sofa	3	0	4	boats	4	correct	0.806179552571848
139754	1	stim033_animate_bird_peacock_1.png	33	animate	bird	peacock	1	0	4	boats	4	correct	0.806179552571848
139804	1	stim136_inanimate_fruits_pineapple_4.png	136	inanimate	fruits	pineapple	4	0	4	boats	4	correct	0.806179552571848
139854	1	stim009_animate_aquatic_seahorse_1.png	9	animate	aquatic	seahorse	1	0	4	boats	4	correct	0.806179552571848
139904	1	stim141_inanimate_furniture_bed_1.png	141	inanimate	furniture	bed	1	0	4	boats	4	correct	0.806179552571848
139954	1	stim092_animate_mammal_kangaroo_4.png	92	animate	mammal	kangaroo	4	0	4	boats	4	correct	0.806179552571848
140004	1	stim126_inanimate_fruits_banana_2.png	126	inanimate	fruits	banana	2	0	4	boats	4	correct	0.806179552571848
140054	1	stim105_inanimate_clothing_hat_1.png	105	inanimate	clothing	hat	1	0	4	boats	4	correct	0.806179552571848
140104	1	stim116_inanimate_clothing_shirt_4.png	116	inanimate	clothing	shirt	4	0	4	boats	4	correct	0.806179552571848
140154	1	stim167_inanimate_plants_cactus_3.png	167	inanimate	plants	cactus	3	0	4	boats	4	correct	0.806179552571848
140204	1	stim138_inanimate_fruits_strawberry_2.png	138	inanimate	fruits	strawberry	2	0	4	boats	4	correct	0.806179552571848
140254	1	stim194_inanimate_tools_scissors_2.png	194	inanimate	tools	scissors	2	0	4	boats	4	correct	0.806179552571848
140304	1	stim179_inanimate_plants_tulip_3.png	179	inanimate	plants	tulip	3	0	4	boats	4	correct	0.806179552571848
140354	1	stim161_inanimate_plants_bush_1.png	161	inanimate	plants	bush	1	0	4	boats	4	correct	0.806179552571848
140404	1	stim114_inanimate_clothing_shirt_2.png	114	inanimate	clothing	shirt	2	0	4	boats	4	correct	0.806179552571848
140454	1	stim043_animate_human_baby_3.png	43	animate	human	baby	3	0	4	boats	4	correct	0.806179552571848
140504	1	stim203_targets_object_boats_3.png	203	targets	object	boats	3	1	4	boats	4	correct	0.806179552571848
140554	1	stim145_inanimate_furniture_chair_1.png	145	inanimate	furniture	chair	1	0	4	boats	4	correct	0.806179552571848
140604	1	stim062_animate_insect_ant_2.png	62	animate	insect	ant	2	0	4	boats	4	correct	0.806179552571848
140654	1	stim154_inanimate_furniture_sofa_2.png	154	inanimate	furniture	sofa	2	0	4	boats	4	correct	0.806179552571848
140704	1	stim096_animate_mammal_monkey_4.png	96	animate	mammal	monkey	4	0	4	boats	4	correct	0.806179552571848
140754	1	stim168_inanimate_plants_cactus_4.png	168	inanimate	plants	cactus	4	0	4	boats	4	correct	0.806179552571848
140804	1	stim089_animate_mammal_kangaroo_1.png	89	animate	mammal	kangaroo	1	0	4	boats	4	correct	0.806179552571848
140854	1	stim048_animate_human_child_4.png	48	animate	human	child	4	0	4	boats	4	correct	0.806179552571848
140904	1	stim035_animate_bird_peacock_3.png	35	animate	bird	peacock	3	0	4	boats	4	correct	0.806179552571848
140954	1	stim131_inanimate_fruits_grape_3.png	131	inanimate	fruits	grape	3	0	4	boats	4	correct	0.806179552571848
141004	1	stim068_animate_insect_bug_4.png	68	animate	insect	bug	4	0	4	boats	4	correct	0.806179552571848
141054	1	stim148_inanimate_furniture_chair_4.png	148	inanimate	furniture	chair	4	0	4	boats	4	correct	0.806179552571848
141104	1	stim019_animate_aquatic_shrimp_3.png	19	animate	aquatic	shrimp	3	0	4	boats	4	correct	0.806179552571848
141154	1	stim079_animate_insect_grasshopper_3.png	79	animate	insect	grasshopper	3	0	4	boats	4	correct	0.806179552571848
141204	1	stim197_inanimate_tools_wrench_1.png	197	inanimate	tools	wrench	1	0	4	boats	4	correct	0.806179552571848
141254	1	stim057_animate_human_sports_1.png	57	animate	human	sports	1	0	4	boats	4	correct	0.806179552571848
141304	1	stim038_animate_bird_penguin_2.png	38	animate	bird	penguin	2	0	4	boats	4	correct	0.806179552571848
141354	1	stim056_animate_human_faces_4.png	56	animate	human	faces	4	0	4	boats	4	correct	0.806179552571848
141404	1	stim143_inanimate_furniture_bed_3.png	143	inanimate	furniture	bed	3	0	4	boats	4	correct	0.806179552571848
141454	1	stim073_animate_insect_dragonfly_1.png	73	animate	insect	dragonfly	1	0	4	boats	4	correct	0.806179552571848
141504	1	stim034_animate_bird_peacock_2.png	34	animate	bird	peacock	2	0	4	boats	4	correct	0.806179552571848
141554	1	stim128_inanimate_fruits_banana_4.png	128	inanimate	fruits	banana	4	0	4	boats	4	correct	0.806179552571848
141604	1	stim083_animate_mammal_cow_3.png	83	animate	mammal	cow	3	0	4	boats	4	correct	0.806179552571848
141654	1	stim184_inanimate_tools_broom_4.png	184	inanimate	tools	broom	4	0	4	boats	4	correct	0.806179552571848
141704	1	stim177_inanimate_plants_tulip_1.png	177	inanimate	plants	tulip	1	0	4	boats	4	correct	0.806179552571848
141754	1	stim046_animate_human_child_2.png	46	animate	human	child	2	0	4	boats	4	correct	0.806179552571848
141804	1	stim084_animate_mammal_cow_4.png	84	animate	mammal	cow	4	0	4	boats	4	correct	0.806179552571848
141854	1	stim152_inanimate_furniture_closet_4.png	152	inanimate	furniture	closet	4	0	4	boats	4	correct	0.806179552571848
141904	1	stim172_inanimate_plants_sunflower_4.png	172	inanimate	plants	sunflower	4	0	4	boats	4	correct	0.806179552571848
141954	1	stim191_inanimate_tools_pan_3.png	191	inanimate	tools	pan	3	0	4	boats	4	correct	0.806179552571848
142004	1	stim037_animate_bird_penguin_1.png	37	animate	bird	penguin	1	0	4	boats	4	correct	0.806179552571848
142054	1	stim026_animate_bird_duck_2.png	26	animate	bird	duck	2	0	4	boats	4	correct	0.806179552571848
142104	1	stim093_animate_mammal_monkey_1.png	93	animate	mammal	monkey	1	0	4	boats	4	correct	0.806179552571848
142154	1	stim049_animate_human_clown_1.png	49	animate	human	clown	1	0	4	boats	4	correct	0.806179552571848
142204	1	stim005_animate_aquatic_fish_1.png	5	animate	aquatic	fish	1	0	4	boats	4	correct	0.806179552571848
142254	1	stim024_animate_bird_chicken_4.png	24	animate	bird	chicken	4	0	4	boats	4	correct	0.806179552571848
142304	1	stim017_animate_aquatic_shrimp_1.png	17	animate	aquatic	shrimp	1	0	4	boats	4	correct	0.806179552571848
142354	1	stim072_animate_insect_butterfly_4.png	72	animate	insect	butterfly	4	0	4	boats	4	correct	0.806179552571848
142404	1	stim016_animate_aquatic_shark_4.png	16	animate	aquatic	shark	4	0	4	boats	4	correct	0.806179552571848
142454	1	stim095_animate_mammal_monkey_3.png	95	animate	mammal	monkey	3	0	4	boats	4	correct	0.806179552571848
142504	1	stim021_animate_bird_chicken_1.png	21	animate	bird	chicken	1	0	4	boats	4	correct	0.806179552571848
142554	1	stim066_animate_insect_bug_2.png	66	animate	insect	bug	2	0	4	boats	4	correct	0.806179552571848
142604	1	stim111_inanimate_clothing_jeans_3.png	111	inanimate	clothing	jeans	3	0	4	boats	4	correct	0.806179552571848
142654	1	stim100_animate_mammal_rhino_4.png	100	animate	mammal	rhino	4	0	4	boats	4	correct	0.806179552571848
142704	1	stim090_animate_mammal_kangaroo_2.png	90	animate	mammal	kangaroo	2	0	4	boats	4	correct	0.806179552571848
142754	1	stim039_animate_bird_penguin_3.png	39	animate	bird	penguin	3	0	4	boats	4	correct	0.806179552571848
142804	1	stim169_inanimate_plants_sunflower_1.png	169	inanimate	plants	sunflower	1	0	4	boats	4	correct	0.806179552571848
142854	1	stim193_inanimate_tools_scissors_1.png	193	inanimate	tools	scissors	1	0	4	boats	4	correct	0.806179552571848
142904	1	stim165_inanimate_plants_cactus_1.png	165	inanimate	plants	cactus	1	0	4	boats	4	correct	0.806179552571848
142954	1	stim113_inanimate_clothing_shirt_1.png	113	inanimate	clothing	shirt	1	0	4	boats	4	correct	0.806179552571848
143004	1	stim025_animate_bird_duck_1.png	25	animate	bird	duck	1	0	4	boats	4	correct	0.806179552571848
143054	1	stim121_inanimate_fruits_apple_1.png	121	inanimate	fruits	apple	1	0	4	boats	4	correct	0.806179552571848
143104	1	stim187_inanimate_tools_hammer_3.png	187	inanimate	tools	hammer	3	0	4	boats	4	correct	0.806179552571848
149154	1	stim031_animate_bird_parrot_3.png	31	animate	bird	parrot	3	0	5	boats	2	correct	0.838602589908987
149204	1	stim115_inanimate_clothing_shirt_3.png	115	inanimate	clothing	shirt	3	0	5	boats	2	correct	0.838602589908987
149254	1	stim086_animate_mammal_giraffe_2.png	86	animate	mammal	giraffe	2	0	5	boats	2	correct	0.838602589908987
149304	1	stim187_inanimate_tools_hammer_3.png	187	inanimate	tools	hammer	3	0	5	boats	2	correct	0.838602589908987
149354	1	stim017_animate_aquatic_shrimp_1.png	17	animate	aquatic	shrimp	1	0	5	boats	2	correct	0.838602589908987
149404	1	stim092_animate_mammal_kangaroo_4.png	92	animate	mammal	kangaroo	4	0	5	boats	2	correct	0.838602589908987
149454	1	stim114_inanimate_clothing_shirt_2.png	114	inanimate	clothing	shirt	2	0	5	boats	2	correct	0.838602589908987
149504	1	stim113_inanimate_clothing_shirt_1.png	113	inanimate	clothing	shirt	1	0	5	boats	2	correct	0.838602589908987
149554	1	stim107_inanimate_clothing_hat_3.png	107	inanimate	clothing	hat	3	0	5	boats	2	correct	0.838602589908987
149604	1	stim142_inanimate_furniture_bed_2.png	142	inanimate	furniture	bed	2	0	5	boats	2	correct	0.838602589908987
149654	1	stim170_inanimate_plants_sunflower_2.png	170	inanimate	plants	sunflower	2	0	5	boats	2	correct	0.838602589908987
149704	1	stim049_animate_human_clown_1.png	49	animate	human	clown	1	0	5	boats	2	correct	0.838602589908987
149754	1	stim195_inanimate_tools_scissors_3.png	195	inanimate	tools	scissors	3	0	5	boats	2	correct	0.838602589908987
149804	1	stim119_inanimate_clothing_socks_3.png	119	inanimate	clothing	socks	3	0	5	boats	2	correct	0.838602589908987
149854	1	stim126_inanimate_fruits_banana_2.png	126	inanimate	fruits	banana	2	0	5	boats	2	correct	0.838602589908987
149904	1	stim083_animate_mammal_cow_3.png	83	animate	mammal	cow	3	0	5	boats	2	correct	0.838602589908987
149954	1	stim070_animate_insect_butterfly_2.png	70	animate	insect	butterfly	2	0	5	boats	2	correct	0.838602589908987
150004	1	stim050_animate_human_clown_2.png	50	animate	human	clown	2	0	5	boats	2	correct	0.838602589908987
150054	1	stim165_inanimate_plants_cactus_1.png	165	inanimate	plants	cactus	1	0	5	boats	2	correct	0.838602589908987
150104	1	stim038_animate_bird_penguin_2.png	38	animate	bird	penguin	2	0	5	boats	2	correct	0.838602589908987
150154	1	stim076_animate_insect_dragonfly_4.png	76	animate	insect	dragonfly	4	0	5	boats	2	correct	0.838602589908987
150204	1	stim134_inanimate_fruits_pineapple_2.png	134	inanimate	fruits	pineapple	2	0	5	boats	2	correct	0.838602589908987
150254	1	stim055_animate_human_faces_3.png	55	animate	human	faces	3	0	5	boats	2	correct	0.838602589908987
150304	1	stim035_animate_bird_peacock_3.png	35	animate	bird	peacock	3	0	5	boats	2	correct	0.838602589908987
150354	1	stim027_animate_bird_duck_3.png	27	animate	bird	duck	3	0	5	boats	2	correct	0.838602589908987
150404	1	stim189_inanimate_tools_pan_1.png	189	inanimate	tools	pan	1	0	5	boats	2	correct	0.838602589908987
150454	1	stim182_inanimate_tools_broom_2.png	182	inanimate	tools	broom	2	0	5	boats	2	correct	0.838602589908987
150504	1	stim097_animate_mammal_rhino_1.png	97	animate	mammal	rhino	1	0	5	boats	2	correct	0.838602589908987
150554	1	stim191_inanimate_tools_pan_3.png	191	inanimate	tools	pan	3	0	5	boats	2	correct	0.838602589908987
150604	1	stim151_inanimate_furniture_closet_3.png	151	inanimate	furniture	closet	3	0	5	boats	2	correct	0.838602589908987
150654	1	stim122_inanimate_fruits_apple_2.png	122	inanimate	fruits	apple	2	0	5	boats	2	correct	0.838602589908987
150704	1	stim144_inanimate_furniture_bed_4.png	144	inanimate	furniture	bed	4	0	5	boats	2	correct	0.838602589908987
150754	1	stim011_animate_aquatic_seahorse_3.png	11	animate	aquatic	seahorse	3	0	5	boats	2	correct	0.838602589908987
150804	1	stim137_inanimate_fruits_strawberry_1.png	137	inanimate	fruits	strawberry	1	0	5	boats	2	correct	0.838602589908987
150854	1	stim135_inanimate_fruits_pineapple_3.png	135	inanimate	fruits	pineapple	3	0	5	boats	2	correct	0.838602589908987
150904	1	stim029_animate_bird_parrot_1.png	29	animate	bird	parrot	1	0	5	boats	2	correct	0.838602589908987
150954	1	stim146_inanimate_furniture_chair_2.png	146	inanimate	furniture	chair	2	0	5	boats	2	correct	0.838602589908987
151004	1	stim015_animate_aquatic_shark_3.png	15	animate	aquatic	shark	3	0	5	boats	2	correct	0.838602589908987
151054	1	stim090_animate_mammal_kangaroo_2.png	90	animate	mammal	kangaroo	2	0	5	boats	2	correct	0.838602589908987
151104	1	stim139_inanimate_fruits_strawberry_3.png	139	inanimate	fruits	strawberry	3	0	5	boats	2	correct	0.838602589908987
151154	1	stim021_animate_bird_chicken_1.png	21	animate	bird	chicken	1	0	5	boats	2	correct	0.838602589908987
151204	1	stim163_inanimate_plants_bush_3.png	163	inanimate	plants	bush	3	0	5	boats	2	correct	0.838602589908987
151254	1	stim176_inanimate_plants_tree_4.png	176	inanimate	plants	tree	4	0	5	boats	2	correct	0.838602589908987
151304	1	stim001_animate_aquatic_crab_1.png	1	animate	aquatic	crab	1	0	5	boats	2	correct	0.838602589908987
151354	1	stim104_inanimate_clothing_gloves_4.png	104	inanimate	clothing	gloves	4	0	5	boats	2	correct	0.838602589908987
151404	1	stim110_inanimate_clothing_jeans_2.png	110	inanimate	clothing	jeans	2	0	5	boats	2	correct	0.838602589908987
151454	1	stim006_animate_aquatic_fish_2.png	6	animate	aquatic	fish	2	0	5	boats	2	correct	0.838602589908987
151504	1	stim047_animate_human_child_3.png	47	animate	human	child	3	0	5	boats	2	correct	0.838602589908987
151554	1	stim103_inanimate_clothing_gloves_3.png	103	inanimate	clothing	gloves	3	0	5	boats	2	correct	0.838602589908987
151604	1	stim154_inanimate_furniture_sofa_2.png	154	inanimate	furniture	sofa	2	0	5	boats	2	correct	0.838602589908987
151654	1	stim016_animate_aquatic_shark_4.png	16	animate	aquatic	shark	4	0	5	boats	2	correct	0.838602589908987
151704	1	stim053_animate_human_faces_1.png	53	animate	human	faces	1	0	5	boats	2	correct	0.838602589908987
151754	1	stim177_inanimate_plants_tulip_1.png	177	inanimate	plants	tulip	1	0	5	boats	2	correct	0.838602589908987
151804	1	stim007_animate_aquatic_fish_3.png	7	animate	aquatic	fish	3	0	5	boats	2	correct	0.838602589908987
151854	1	stim169_inanimate_plants_sunflower_1.png	169	inanimate	plants	sunflower	1	0	5	boats	2	correct	0.838602589908987
151904	1	stim123_inanimate_fruits_apple_3.png	123	inanimate	fruits	apple	3	0	5	boats	2	correct	0.838602589908987
151954	1	stim088_animate_mammal_giraffe_4.png	88	animate	mammal	giraffe	4	0	5	boats	2	correct	0.838602589908987
152004	1	stim180_inanimate_plants_tulip_4.png	180	inanimate	plants	tulip	4	0	5	boats	2	correct	0.838602589908987
152054	1	stim157_inanimate_furniture_table_1.png	157	inanimate	furniture	table	1	0	5	boats	2	correct	0.838602589908987
152104	1	stim166_inanimate_plants_cactus_2.png	166	inanimate	plants	cactus	2	0	5	boats	2	correct	0.838602589908987
152154	1	stim023_animate_bird_chicken_3.png	23	animate	bird	chicken	3	0	5	boats	2	correct	0.838602589908987
152204	1	stim100_animate_mammal_rhino_4.png	100	animate	mammal	rhino	4	0	5	boats	2	correct	0.838602589908987
152254	1	stim149_inanimate_furniture_closet_1.png	149	inanimate	furniture	closet	1	0	5	boats	2	correct	0.838602589908987
152304	1	stim094_animate_mammal_monkey_2.png	94	animate	mammal	monkey	2	0	5	boats	2	correct	0.838602589908987
152354	1	stim093_animate_mammal_monkey_1.png	93	animate	mammal	monkey	1	0	5	boats	2	correct	0.838602589908987
152404	1	stim061_animate_insect_ant_1.png	61	animate	insect	ant	1	0	5	boats	2	correct	0.838602589908987
152454	1	stim096_animate_mammal_monkey_4.png	96	animate	mammal	monkey	4	0	5	boats	2	correct	0.838602589908987
152504	1	stim179_inanimate_plants_tulip_3.png	179	inanimate	plants	tulip	3	0	5	boats	2	correct	0.838602589908987
152554	1	stim181_inanimate_tools_broom_1.png	181	inanimate	tools	broom	1	0	5	boats	2	correct	0.838602589908987
152604	1	stim205_targets_object_boats_1.png	205	targets	object	boats	1	1	5	boats	2	correct	0.838602589908987
152654	1	stim164_inanimate_plants_bush_4.png	164	inanimate	plants	bush	4	0	5	boats	2	correct	0.838602589908987
152704	1	stim024_animate_bird_chicken_4.png	24	animate	bird	chicken	4	0	5	boats	2	correct	0.838602589908987
152754	1	stim192_inanimate_tools_pan_4.png	192	inanimate	tools	pan	4	0	5	boats	2	correct	0.838602589908987
152804	1	stim172_inanimate_plants_sunflower_4.png	172	inanimate	plants	sunflower	4	0	5	boats	2	correct	0.838602589908987
152854	1	stim067_animate_insect_bug_3.png	67	animate	insect	bug	3	0	5	boats	2	correct	0.838602589908987
152904	1	stim057_animate_human_sports_1.png	57	animate	human	sports	1	0	5	boats	2	correct	0.838602589908987
152954	1	stim013_animate_aquatic_shark_1.png	13	animate	aquatic	shark	1	0	5	boats	2	correct	0.838602589908987
153004	1	stim198_inanimate_tools_wrench_2.png	198	inanimate	tools	wrench	2	0	5	boats	2	correct	0.838602589908987
153054	1	stim087_animate_mammal_giraffe_3.png	87	animate	mammal	giraffe	3	0	5	boats	2	correct	0.838602589908987
153104	1	stim045_animate_human_child_1.png	45	animate	human	child	1	0	5	boats	2	correct	0.838602589908987
153154	1	stim026_animate_bird_duck_2.png	26	animate	bird	duck	2	0	5	boats	2	correct	0.838602589908987
