onset	duration	stimulusname	stimulusnumber	levelA	levelB	levelC	withinexemplarnumber	istarget	trialnumber	condition	response	correct	rt
29438	1	stim111_inanimate_clothing_jeans_3.png	111	inanimate	clothing	jeans	3	0	1	boats	2	correct	1.34032441314775
29638	1	stim138_inanimate_fruits_strawberry_2.png	138	inanimate	fruits	strawberry	2	0	1	boats	2	correct	1.34032441314775
29838	1	stim162_inanimate_plants_bush_2.png	162	inanimate	plants	bush	2	0	1	boats	2	correct	1.34032441314775
30038	1	stim082_animate_mammal_cow_2.png	82	animate	mammal	cow	2	0	1	boats	2	correct	1.34032441314775
30238	1	stim056_animate_human_faces_4.png	56	animate	human	faces	4	0	1	boats	2	correct	1.34032441314775
30438	1	stim034_animate_bird_peacock_2.png	34	animate	bird	peacock	2	0	1	boats	2	correct	1.34032441314775
30638	1	stim170_inanimate_plants_sunflower_2.png	170	inanimate	plants	sunflower	2	0	1	boats	2	correct	1.34032441314775
30838	1	stim157_inanimate_furniture_table_1.png	157	inanimate	furniture	table	1	0	1	boats	2	correct	1.34032441314775
31038	1	stim175_inanimate_plants_tree_3.png	175	inanimate	plants	tree	3	0	1	boats	2	correct	1.34032441314775
31238	1	stim159_inanimate_furniture_table_3.png	159	inanimate	furniture	table	3	0	1	boats	2	correct	1.34032441314775
31438	1	stim102_inanimate_clothing_gloves_2.png	102	inanimate	clothing	gloves	2	0	1	boats	2	correct	1.34032441314775
31638	1	stim015_animate_aquatic_shark_3.png	15	animate	aquatic	shark	3	0	1	boats	2	correct	1.34032441314775
31838	1	stim107_inanimate_clothing_hat_3.png	107	inanimate	clothing	hat	3	0	1	boats	2	correct	1.34032441314775
32038	1	stim071_animate_insect_butterfly_3.png	71	animate	insect	butterfly	3	0	1	boats	2	correct	1.34032441314775
32238	1	stim189_inanimate_tools_pan_1.png	189	inanimate	tools	pan	1	0	1	boats	2	correct	1.34032441314775
32438	1	stim017_animate_aquatic_shrimp_1.png	17	animate	aquatic	shrimp	1	0	1	boats	2	correct	1.34032441314775
32638	1	stim018_animate_aquatic_shrimp_2.png	18	animate	aquatic	shrimp	2	0	1	boats	2	correct	1.34032441314775
32838	1	stim087_animate_mammal_giraffe_3.png	87	animate	mammal	giraffe	3	0	1	boats	2	correct	1.34032441314775
33038	1	stim025_animate_bird_duck_1.png	25	animate	bird	duck	1	0	1	boats	2	correct	1.34032441314775
33238	1	stim090_animate_mammal_kangaroo_2.png	90	animate	mammal	kangaroo	2	0	1	boats	2	correct	1.34032441314775
33438	1	stim060_animate_human_sports_4.png	60	animate	human	sports	4	0	1	boats	2	correct	1.34032441314775
33638	1	stim183_inanimate_tools_broom_3.png	183	inanimate	tools	broom	3	0	1	boats	2	correct	1.34032441314775
33838	1	stim103_inanimate_clothing_gloves_3.png	103	inanimate	clothing	gloves	3	0	1	boats	2	correct	1.34032441314775
34038	1	stim185_inanimate_tools_hammer_1.png	185	inanimate	tools	hammer	1	0	1	boats	2	correct	1.34032441314775
34238	1	stim067_animate_insect_bug_3.png	67	animate	insect	bug	3	0	1	boats	2	correct	1.34032441314775
34438	1	stim197_inanimate_tools_wrench_1.png	197	inanimate	tools	wrench	1	0	1	boats	2	correct	1.34032441314775
34638	1	stim115_inanimate_clothing_shirt_3.png	115	inanimate	clothing	shirt	3	0	1	boats	2	correct	1.34032441314775
34838	1	stim188_inanimate_tools_hammer_4.png	188	inanimate	tools	hammer	4	0	1	boats	2	correct	1.34032441314775
35038	1	stim024_animate_bird_chicken_4.png	24	animate	bird	chicken	4	0	1	boats	2	correct	1.34032441314775
35238	1	stim030_animate_bird_parrot_2.png	30	animate	bird	parrot	2	0	1	boats	2	correct	1.34032441314775
35438	1	stim049_animate_human_clown_1.png	49	animate	human	clown	1	0	1	boats	2	correct	1.34032441314775
35638	1	stim004_animate_aquatic_crab_4.png	4	animate	aquatic	crab	4	0	1	boats	2	correct	1.34032441314775
35838	1	stim091_animate_mammal_kangaroo_3.png	91	animate	mammal	kangaroo	3	0	1	boats	2	correct	1.34032441314775
36038	1	stim171_inanimate_plants_sunflower_3.png	171	inanimate	plants	sunflower	3	0	1	boats	2	correct	1.34032441314775
36238	1	stim108_inanimate_clothing_hat_4.png	108	inanimate	clothing	hat	4	0	1	boats	2	correct	1.34032441314775
36438	1	stim080_animate_insect_grasshopper_4.png	80	animate	insect	grasshopper	4	0	1	boats	2	correct	1.34032441314775
36638	1	stim057_animate_human_sports_1.png	57	animate	human	sports	1	0	1	boats	2	correct	1.34032441314775
36838	1	stim142_inanimate_furniture_bed_2.png	142	inanimate	furniture	bed	2	0	1	boats	2	correct	1.34032441314775
37038	1	stim146_inanimate_furniture_chair_2.png	146	inanimate	furniture	chair	2	0	1	boats	2	correct	1.34032441314775
37238	1	stim134_inanimate_fruits_pineapple_2.png	134	inanimate	fruits	pineapple	2	0	1	boats	2	correct	1.34032441314775
37438	1	stim065_animate_insect_bug_1.png	65	animate	insect	bug	1	0	1	boats	2	correct	1.34032441314775
37638	1	stim064_animate_insect_ant_4.png	64	animate	insect	ant	4	0	1	boats	2	correct	1.34032441314775
37838	1	stim112_inanimate_clothing_jeans_4.png	112	inanimate	clothing	jeans	4	0	1	boats	2	correct	1.34032441314775
38038	1	stim020_animate_aquatic_shrimp_4.png	20	animate	aquatic	shrimp	4	0	1	boats	2	correct	1.34032441314775
38238	1	stim114_inanimate_clothing_shirt_2.png	114	inanimate	clothing	shirt	2	0	1	boats	2	correct	1.34032441314775
38438	1	stim178_inanimate_plants_tulip_2.png	178	inanimate	plants	tulip	2	0	1	boats	2	correct	1.34032441314775
38638	1	stim076_animate_insect_dragonfly_4.png	76	animate	insect	dragonfly	4	0	1	boats	2	correct	1.34032441314775
38838	1	stim028_animate_bird_duck_4.png	28	animate	bird	duck	4	0	1	boats	2	correct	1.34032441314775
39038	1	stim068_animate_insect_bug_4.png	68	animate	insect	bug	4	0	1	boats	2	correct	1.34032441314775
39238	1	stim044_animate_human_baby_4.png	44	animate	human	baby	4	0	1	boats	2	correct	1.34032441314775
39438	1	stim145_inanimate_furniture_chair_1.png	145	inanimate	furniture	chair	1	0	1	boats	2	correct	1.34032441314775
39638	1	stim139_inanimate_fruits_strawberry_3.png	139	inanimate	fruits	strawberry	3	0	1	boats	2	correct	1.34032441314775
39838	1	stim113_inanimate_clothing_shirt_1.png	113	inanimate	clothing	shirt	1	0	1	boats	2	correct	1.34032441314775
40038	1	stim128_inanimate_fruits_banana_4.png	128	inanimate	fruits	banana	4	0	1	boats	2	correct	1.34032441314775
40238	1	stim029_animate_bird_parrot_1.png	29	animate	bird	parrot	1	0	1	boats	2	correct	1.34032441314775
40438	1	stim046_animate_human_child_2.png	46	animate	human	child	2	0	1	boats	2	correct	1.34032441314775
40638	1	stim129_inanimate_fruits_grape_1.png	129	inanimate	fruits	grape	1	0	1	boats	2	correct	1.34032441314775
40838	1	stim116_inanimate_clothing_shirt_4.png	116	inanimate	clothing	shirt	4	0	1	boats	2	correct	1.34032441314775
41038	1	stim174_inanimate_plants_tree_2.png	174	inanimate	plants	tree	2	0	1	boats	2	correct	1.34032441314775
41238	1	stim135_inanimate_fruits_pineapple_3.png	135	inanimate	fruits	pineapple	3	0	1	boats	2	correct	1.34032441314775
41438	1	stim050_animate_human_clown_2.png	50	animate	human	clown	2	0	1	boats	2	correct	1.34032441314775
41638	1	stim106_inanimate_clothing_hat_2.png	106	inanimate	clothing	hat	2	0	1	boats	2	correct	1.34032441314775
41838	1	stim155_inanimate_furniture_sofa_3.png	155	inanimate	furniture	sofa	3	0	1	boats	2	correct	1.34032441314775
42038	1	stim016_animate_aquatic_shark_4.png	16	animate	aquatic	shark	4	0	1	boats	2	correct	1.34032441314775
42238	1	stim074_animate_insect_dragonfly_2.png	74	animate	insect	dragonfly	2	0	1	boats	2	correct	1.34032441314775
42438	1	stim055_animate_human_faces_3.png	55	animate	human	faces	3	0	1	boats	2	correct	1.34032441314775
42638	1	stim001_animate_aquatic_crab_1.png	1	animate	aquatic	crab	1	0	1	boats	2	correct	1.34032441314775
42838	1	stim097_animate_mammal_rhino_1.png	97	animate	mammal	rhino	1	0	1	boats	2	correct	1.34032441314775
43038	1	stim165_inanimate_plants_cactus_1.png	165	inanimate	plants	cactus	1	0	1	boats	2	correct	1.34032441314775
43238	1	stim085_animate_mammal_giraffe_1.png	85	animate	mammal	giraffe	1	0	1	boats	2	correct	1.34032441314775
43438	1	stim167_inanimate_plants_cactus_3.png	167	inanimate	plants	cactus	3	0	1	boats	2	correct	1.34032441314775
43638	1	stim059_animate_human_sports_3.png	59	animate	human	sports	3	0	1	boats	2	correct	1.34032441314775
43838	1	stim168_inanimate_plants_cactus_4.png	168	inanimate	plants	cactus	4	0	1	boats	2	correct	1.34032441314775
44038	1	stim009_animate_aquatic_seahorse_1.png	9	animate	aquatic	seahorse	1	0	1	boats	2	correct	1.34032441314775
44238	1	stim123_inanimate_fruits_apple_3.png	123	inanimate	fruits	apple	3	0	1	boats	2	correct	1.34032441314775
44438	1	stim104_inanimate_clothing_gloves_4.png	104	inanimate	clothing	gloves	4	0	1	boats	2	correct	1.34032441314775
44638	1	stim023_animate_bird_chicken_3.png	23	animate	bird	chicken	3	0	1	boats	2	correct	1.34032441314775
44838	1	stim031_animate_bird_parrot_3.png	31	animate	bird	parrot	3	0	1	boats	2	correct	1.34032441314775
45038	1	stim040_animate_bird_penguin_4.png	40	animate	bird	penguin	4	0	1	boats	2	correct	1.34032441314775
45238	1	stim052_animate_human_clown_4.png	52	animate	human	clown	4	0	1	boats	2	correct	1.34032441314775
45438	1	stim181_inanimate_tools_broom_1.png	181	inanimate	tools	broom	1	0	1	boats	2	correct	1.34032441314775
45638	1	stim078_animate_insect_grasshopper_2.png	78	animate	insect	grasshopper	2	0	1	boats	2	correct	1.34032441314775
45838	1	stim208_targets_object_boats_4.png	208	targets	object	boats	4	1	1	boats	2	correct	1.34032441314775
46038	1	stim156_inanimate_furniture_sofa_4.png	156	inanimate	furniture	sofa	4	0	1	boats	2	correct	1.34032441314775
46238	1	stim047_animate_human_child_3.png	47	animate	human	child	3	0	1	boats	2	correct	1.34032441314775
46438	1	stim140_inanimate_fruits_strawberry_4.png	140	inanimate	fruits	strawberry	4	0	1	boats	2	correct	1.34032441314775
46638	1	stim143_inanimate_furniture_bed_3.png	143	inanimate	furniture	bed	3	0	1	boats	2	correct	1.34032441314775
46838	1	stim083_animate_mammal_cow_3.png	83	animate	mammal	cow	3	0	1	boats	2	correct	1.34032441314775
47038	1	stim063_animate_insect_ant_3.png	63	animate	insect	ant	3	0	1	boats	2	correct	1.34032441314775
47238	1	stim094_animate_mammal_monkey_2.png	94	animate	mammal	monkey	2	0	1	boats	2	correct	1.34032441314775
47438	1	stim148_inanimate_furniture_chair_4.png	148	inanimate	furniture	chair	4	0	1	boats	2	correct	1.34032441314775
47638	1	stim093_animate_mammal_monkey_1.png	93	animate	mammal	monkey	1	0	1	boats	2	correct	1.34032441314775
47838	1	stim144_inanimate_furniture_bed_4.png	144	inanimate	furniture	bed	4	0	1	boats	2	correct	1.34032441314775
48038	1	stim158_inanimate_furniture_table_2.png	158	inanimate	furniture	table	2	0	1	boats	2	correct	1.34032441314775
48238	1	stim006_animate_aquatic_fish_2.png	6	animate	aquatic	fish	2	0	1	boats	2	correct	1.34032441314775
48438	1	stim191_inanimate_tools_pan_3.png	191	inanimate	tools	pan	3	0	1	boats	2	correct	1.34032441314775
48638	1	stim013_animate_aquatic_shark_1.png	13	animate	aquatic	shark	1	0	1	boats	2	correct	1.34032441314775
48838	1	stim163_inanimate_plants_bush_3.png	163	inanimate	plants	bush	3	0	1	boats	2	correct	1.34032441314775
49038	1	stim105_inanimate_clothing_hat_1.png	105	inanimate	clothing	hat	1	0	1	boats	2	correct	1.34032441314775
49238	1	stim177_inanimate_plants_tulip_1.png	177	inanimate	plants	tulip	1	0	1	boats	2	correct	1.34032441314775
49438	1	stim199_inanimate_tools_wrench_3.png	199	inanimate	tools	wrench	3	0	1	boats	2	correct	1.34032441314775
49638	1	stim075_animate_insect_dragonfly_3.png	75	animate	insect	dragonfly	3	0	1	boats	2	correct	1.34032441314775
49838	1	stim195_inanimate_tools_scissors_3.png	195	inanimate	tools	scissors	3	0	1	boats	2	correct	1.34032441314775
50038	1	stim096_animate_mammal_monkey_4.png	96	animate	mammal	monkey	4	0	1	boats	2	correct	1.34032441314775
50238	1	stim182_inanimate_tools_broom_2.png	182	inanimate	tools	broom	2	0	1	boats	2	correct	1.34032441314775
50438	1	stim154_inanimate_furniture_sofa_2.png	154	inanimate	furniture	sofa	2	0	1	boats	2	correct	1.34032441314775
50638	1	stim124_inanimate_fruits_apple_4.png	124	inanimate	fruits	apple	4	0	1	boats	2	correct	1.34032441314775
50838	1	stim005_animate_aquatic_fish_1.png	5	animate	aquatic	fish	1	0	1	boats	2	correct	1.34032441314775
51038	1	stim137_inanimate_fruits_strawberry_1.png	137	inanimate	fruits	strawberry	1	0	1	boats	2	correct	1.34032441314775
51238	1	stim077_animate_insect_grasshopper_1.png	77	animate	insect	grasshopper	1	0	1	boats	2	correct	1.34032441314775
51438	1	stim084_animate_mammal_cow_4.png	84	animate	mammal	cow	4	0	1	boats	2	correct	1.34032441314775
51638	1	stim100_animate_mammal_rhino_4.png	100	animate	mammal	rhino	4	0	1	boats	2	correct	1.34032441314775
51838	1	stim014_animate_aquatic_shark_2.png	14	animate	aquatic	shark	2	0	1	boats	2	correct	1.34032441314775
52038	1	stim164_inanimate_plants_bush_4.png	164	inanimate	plants	bush	4	0	1	boats	2	correct	1.34032441314775
52238	1	stim147_inanimate_furniture_chair_3.png	147	inanimate	furniture	chair	3	0	1	boats	2	correct	1.34032441314775
52438	1	stim079_animate_insect_grasshopper_3.png	79	animate	insect	grasshopper	3	0	1	boats	2	correct	1.34032441314775
52638	1	stim196_inanimate_tools_scissors_4.png	196	inanimate	tools	scissors	4	0	1	boats	2	correct	1.34032441314775
52838	1	stim121_inanimate_fruits_apple_1.png	121	inanimate	fruits	apple	1	0	1	boats	2	correct	1.34032441314775
53038	1	stim039_animate_bird_penguin_3.png	39	animate	bird	penguin	3	0	1	boats	2	correct	1.34032441314775
53238	1	stim173_inanimate_plants_tree_1.png	173	inanimate	plants	tree	1	0	1	boats	2	correct	1.34032441314775
53438	1	stim133_inanimate_fruits_pineapple_1.png	133	inanimate	fruits	pineapple	1	0	1	boats	2	correct	1.34032441314775
53638	1	stim101_inanimate_clothing_gloves_1.png	101	inanimate	clothing	gloves	1	0	1	boats	2	correct	1.34032441314775
53838	1	stim202_targets_object_boats_2.png	202	targets	object	boats	2	1	1	boats	2	correct	1.34032441314775
54038	1	stim062_animate_insect_ant_2.png	62	animate	insect	ant	2	0	1	boats	2	correct	1.34032441314775
54238	1	stim169_inanimate_plants_sunflower_1.png	169	inanimate	plants	sunflower	1	0	1	boats	2	correct	1.34032441314775
54438	1	stim131_inanimate_fruits_grape_3.png	131	inanimate	fruits	grape	3	0	1	boats	2	correct	1.34032441314775
54638	1	stim019_animate_aquatic_shrimp_3.png	19	animate	aquatic	shrimp	3	0	1	boats	2	correct	1.34032441314775
54838	1	stim118_inanimate_clothing_socks_2.png	118	inanimate	clothing	socks	2	0	1	boats	2	correct	1.34032441314775
55038	1	stim099_animate_mammal_rhino_3.png	99	animate	mammal	rhino	3	0	1	boats	2	correct	1.34032441314775
55238	1	stim022_animate_bird_chicken_2.png	22	animate	bird	chicken	2	0	1	boats	2	correct	1.34032441314775
55438	1	stim036_animate_bird_peacock_4.png	36	animate	bird	peacock	4	0	1	boats	2	correct	1.34032441314775
55638	1	stim035_animate_bird_peacock_3.png	35	animate	bird	peacock	3	0	1	boats	2	correct	1.34032441314775
55838	1	stim010_animate_aquatic_seahorse_2.png	10	animate	aquatic	seahorse	2	0	1	boats	2	correct	1.34032441314775
56038	1	stim051_animate_human_clown_3.png	51	animate	human	clown	3	0	1	boats	2	correct	1.34032441314775
56238	1	stim193_inanimate_tools_scissors_1.png	193	inanimate	tools	scissors	1	0	1	boats	2	correct	1.34032441314775
56438	1	stim095_animate_mammal_monkey_3.png	95	animate	mammal	monkey	3	0	1	boats	2	correct	1.34032441314775
56638	1	stim026_animate_bird_duck_2.png	26	animate	bird	duck	2	0	1	boats	2	correct	1.34032441314775
56838	1	stim033_animate_bird_peacock_1.png	33	animate	bird	peacock	1	0	1	boats	2	correct	1.34032441314775
57038	1	stim194_inanimate_tools_scissors_2.png	194	inanimate	tools	scissors	2	0	1	boats	2	correct	1.34032441314775
57238	1	stim122_inanimate_fruits_apple_2.png	122	inanimate	fruits	apple	2	0	1	boats	2	correct	1.34032441314775
57438	1	stim153_inanimate_furniture_sofa_1.png	153	inanimate	furniture	sofa	1	0	1	boats	2	correct	1.34032441314775
57638	1	stim187_inanimate_tools_hammer_3.png	187	inanimate	tools	hammer	3	0	1	boats	2	correct	1.34032441314775
57838	1	stim110_inanimate_clothing_jeans_2.png	110	inanimate	clothing	jeans	2	0	1	boats	2	correct	1.34032441314775
58038	1	stim180_inanimate_plants_tulip_4.png	180	inanimate	plants	tulip	4	0	1	boats	2	correct	1.34032441314775
58238	1	stim198_inanimate_tools_wrench_2.png	198	inanimate	tools	wrench	2	0	1	boats	2	correct	1.34032441314775
58438	1	stim054_animate_human_faces_2.png	54	animate	human	faces	2	0	1	boats	2	correct	1.34032441314775
58638	1	stim141_inanimate_furniture_bed_1.png	141	inanimate	furniture	bed	1	0	1	boats	2	correct	1.34032441314775
58838	1	stim149_inanimate_furniture_closet_1.png	149	inanimate	furniture	closet	1	0	1	boats	2	correct	1.34032441314775
59038	1	stim127_inanimate_fruits_banana_3.png	127	inanimate	fruits	banana	3	0	1	boats	2	correct	1.34032441314775
59238	1	stim002_animate_aquatic_crab_2.png	2	animate	aquatic	crab	2	0	1	boats	2	correct	1.34032441314775
59438	1	stim126_inanimate_fruits_banana_2.png	126	inanimate	fruits	banana	2	0	1	boats	2	correct	1.34032441314775
59638	1	stim038_animate_bird_penguin_2.png	38	animate	bird	penguin	2	0	1	boats	2	correct	1.34032441314775
59838	1	stim081_animate_mammal_cow_1.png	81	animate	mammal	cow	1	0	1	boats	2	correct	1.34032441314775
60038	1	stim119_inanimate_clothing_socks_3.png	119	inanimate	clothing	socks	3	0	1	boats	2	correct	1.34032441314775
60238	1	stim120_inanimate_clothing_socks_4.png	120	inanimate	clothing	socks	4	0	1	boats	2	correct	1.34032441314775
60438	1	stim069_animate_insect_butterfly_1.png	69	animate	insect	butterfly	1	0	1	boats	2	correct	1.34032441314775
60638	1	stim136_inanimate_fruits_pineapple_4.png	136	inanimate	fruits	pineapple	4	0	1	boats	2	correct	1.34032441314775
60838	1	stim186_inanimate_tools_hammer_2.png	186	inanimate	tools	hammer	2	0	1	boats	2	correct	1.34032441314775
61038	1	stim072_animate_insect_butterfly_4.png	72	animate	insect	butterfly	4	0	1	boats	2	correct	1.34032441314775
61238	1	stim132_inanimate_fruits_grape_4.png	132	inanimate	fruits	grape	4	0	1	boats	2	correct	1.34032441314775
61438	1	stim190_inanimate_tools_pan_2.png	190	inanimate	tools	pan	2	0	1	boats	2	correct	1.34032441314775
61638	1	stim003_animate_aquatic_crab_3.png	3	animate	aquatic	crab	3	0	1	boats	2	correct	1.34032441314775
61838	1	stim011_animate_aquatic_seahorse_3.png	11	animate	aquatic	seahorse	3	0	1	boats	2	correct	1.34032441314775
62038	1	stim008_animate_aquatic_fish_4.png	8	animate	aquatic	fish	4	0	1	boats	2	correct	1.34032441314775
62238	1	stim117_inanimate_clothing_socks_1.png	117	inanimate	clothing	socks	1	0	1	boats	2	correct	1.34032441314775
62438	1	stim027_animate_bird_duck_3.png	27	animate	bird	duck	3	0	1	boats	2	correct	1.34032441314775
62638	1	stim021_animate_bird_chicken_1.png	21	animate	bird	chicken	1	0	1	boats	2	correct	1.34032441314775
62838	1	stim042_animate_human_baby_2.png	42	animate	human	baby	2	0	1	boats	2	correct	1.34032441314775
63038	1	stim161_inanimate_plants_bush_1.png	161	inanimate	plants	bush	1	0	1	boats	2	correct	1.34032441314775
63238	1	stim048_animate_human_child_4.png	48	animate	human	child	4	0	1	boats	2	correct	1.34032441314775
63438	1	stim092_animate_mammal_kangaroo_4.png	92	animate	mammal	kangaroo	4	0	1	boats	2	correct	1.34032441314775
63638	1	stim089_animate_mammal_kangaroo_1.png	89	animate	mammal	kangaroo	1	0	1	boats	2	correct	1.34032441314775
63838	1	stim058_animate_human_sports_2.png	58	animate	human	sports	2	0	1	boats	2	correct	1.34032441314775
64038	1	stim152_inanimate_furniture_closet_4.png	152	inanimate	furniture	closet	4	0	1	boats	2	correct	1.34032441314775
64238	1	stim151_inanimate_furniture_closet_3.png	151	inanimate	furniture	closet	3	0	1	boats	2	correct	1.34032441314775
64438	1	stim012_animate_aquatic_seahorse_4.png	12	animate	aquatic	seahorse	4	0	1	boats	2	correct	1.34032441314775
64638	1	stim070_animate_insect_butterfly_2.png	70	animate	insect	butterfly	2	0	1	boats	2	correct	1.34032441314775
64838	1	stim032_animate_bird_parrot_4.png	32	animate	bird	parrot	4	0	1	boats	2	correct	1.34032441314775
65038	1	stim176_inanimate_plants_tree_4.png	176	inanimate	plants	tree	4	0	1	boats	2	correct	1.34032441314775
65238	1	stim109_inanimate_clothing_jeans_1.png	109	inanimate	clothing	jeans	1	0	1	boats	2	correct	1.34032441314775
65438	1	stim073_animate_insect_dragonfly_1.png	73	animate	insect	dragonfly	1	0	1	boats	2	correct	1.34032441314775
65638	1	stim179_inanimate_plants_tulip_3.png	179	inanimate	plants	tulip	3	0	1	boats	2	correct	1.34032441314775
65838	1	stim150_inanimate_furniture_closet_2.png	150	inanimate	furniture	closet	2	0	1	boats	2	correct	1.34032441314775
66038	1	stim007_animate_aquatic_fish_3.png	7	animate	aquatic	fish	3	0	1	boats	2	correct	1.34032441314775
66238	1	stim088_animate_mammal_giraffe_4.png	88	animate	mammal	giraffe	4	0	1	boats	2	correct	1.34032441314775
66438	1	stim086_animate_mammal_giraffe_2.png	86	animate	mammal	giraffe	2	0	1	boats	2	correct	1.34032441314775
66638	1	stim160_inanimate_furniture_table_4.png	160	inanimate	furniture	table	4	0	1	boats	2	correct	1.34032441314775
66838	1	stim184_inanimate_tools_broom_4.png	184	inanimate	tools	broom	4	0	1	boats	2	correct	1.34032441314775
67038	1	stim041_animate_human_baby_1.png	41	animate	human	baby	1	0	1	boats	2	correct	1.34032441314775
67238	1	stim192_inanimate_tools_pan_4.png	192	inanimate	tools	pan	4	0	1	boats	2	correct	1.34032441314775
67438	1	stim098_animate_mammal_rhino_2.png	98	animate	mammal	rhino	2	0	1	boats	2	correct	1.34032441314775
67638	1	stim166_inanimate_plants_cactus_2.png	166	inanimate	plants	cactus	2	0	1	boats	2	correct	1.34032441314775
67838	1	stim061_animate_insect_ant_1.png	61	animate	insect	ant	1	0	1	boats	2	correct	1.34032441314775
68038	1	stim066_animate_insect_bug_2.png	66	animate	insect	bug	2	0	1	boats	2	correct	1.34032441314775
68238	1	stim045_animate_human_child_1.png	45	animate	human	child	1	0	1	boats	2	correct	1.34032441314775
68438	1	stim053_animate_human_faces_1.png	53	animate	human	faces	1	0	1	boats	2	correct	1.34032441314775
68638	1	stim130_inanimate_fruits_grape_2.png	130	inanimate	fruits	grape	2	0	1	boats	2	correct	1.34032441314775
68838	1	stim200_inanimate_tools_wrench_4.png	200	inanimate	tools	wrench	4	0	1	boats	2	correct	1.34032441314775
69038	1	stim043_animate_human_baby_3.png	43	animate	human	baby	3	0	1	boats	2	correct	1.34032441314775
69238	1	stim125_inanimate_fruits_banana_1.png	125	inanimate	fruits	banana	1	0	1	boats	2	correct	1.34032441314775
69438	1	stim172_inanimate_plants_sunflower_4.png	172	inanimate	plants	sunflower	4	0	1	boats	2	correct	1.34032441314775
69638	1	stim037_animate_bird_penguin_1.png	37	animate	bird	penguin	1	0	1	boats	2	correct	1.34032441314775
75272	1	stim060_animate_human_sports_4.png	60	animate	human	sports	4	0	2	stars	2	incorrect	1.09092442876135
75472	1	stim153_inanimate_furniture_sofa_1.png	153	inanimate	furniture	sofa	1	0	2	stars	2	incorrect	1.09092442876135
75672	1	stim077_animate_insect_grasshopper_1.png	77	animate	insect	grasshopper	1	0	2	stars	2	incorrect	1.09092442876135
75872	1	stim030_animate_bird_parrot_2.png	30	animate	bird	parrot	2	0	2	stars	2	incorrect	1.09092442876135
76072	1	stim118_inanimate_clothing_socks_2.png	118	inanimate	clothing	socks	2	0	2	stars	2	incorrect	1.09092442876135
76272	1	stim151_inanimate_furniture_closet_3.png	151	inanimate	furniture	closet	3	0	2	stars	2	incorrect	1.09092442876135
76472	1	stim142_inanimate_furniture_bed_2.png	142	inanimate	furniture	bed	2	0	2	stars	2	incorrect	1.09092442876135
76672	1	stim190_inanimate_tools_pan_2.png	190	inanimate	tools	pan	2	0	2	stars	2	incorrect	1.09092442876135
76872	1	stim044_animate_human_baby_4.png	44	animate	human	baby	4	0	2	stars	2	incorrect	1.09092442876135
77072	1	stim152_inanimate_furniture_closet_4.png	152	inanimate	furniture	closet	4	0	2	stars	2	incorrect	1.09092442876135
77272	1	stim162_inanimate_plants_bush_2.png	162	inanimate	plants	bush	2	0	2	stars	2	incorrect	1.09092442876135
77472	1	stim047_animate_human_child_3.png	47	animate	human	child	3	0	2	stars	2	incorrect	1.09092442876135
77672	1	stim072_animate_insect_butterfly_4.png	72	animate	insect	butterfly	4	0	2	stars	2	incorrect	1.09092442876135
77872	1	stim084_animate_mammal_cow_4.png	84	animate	mammal	cow	4	0	2	stars	2	incorrect	1.09092442876135
78072	1	stim102_inanimate_clothing_gloves_2.png	102	inanimate	clothing	gloves	2	0	2	stars	2	incorrect	1.09092442876135
78272	1	stim023_animate_bird_chicken_3.png	23	animate	bird	chicken	3	0	2	stars	2	incorrect	1.09092442876135
78472	1	stim166_inanimate_plants_cactus_2.png	166	inanimate	plants	cactus	2	0	2	stars	2	incorrect	1.09092442876135
78672	1	stim080_animate_insect_grasshopper_4.png	80	animate	insect	grasshopper	4	0	2	stars	2	incorrect	1.09092442876135
78872	1	stim003_animate_aquatic_crab_3.png	3	animate	aquatic	crab	3	0	2	stars	2	incorrect	1.09092442876135
79072	1	stim191_inanimate_tools_pan_3.png	191	inanimate	tools	pan	3	0	2	stars	2	incorrect	1.09092442876135
79272	1	stim130_inanimate_fruits_grape_2.png	130	inanimate	fruits	grape	2	0	2	stars	2	incorrect	1.09092442876135
79472	1	stim114_inanimate_clothing_shirt_2.png	114	inanimate	clothing	shirt	2	0	2	stars	2	incorrect	1.09092442876135
79672	1	stim037_animate_bird_penguin_1.png	37	animate	bird	penguin	1	0	2	stars	2	incorrect	1.09092442876135
79872	1	stim116_inanimate_clothing_shirt_4.png	116	inanimate	clothing	shirt	4	0	2	stars	2	incorrect	1.09092442876135
80072	1	stim011_animate_aquatic_seahorse_3.png	11	animate	aquatic	seahorse	3	0	2	stars	2	incorrect	1.09092442876135
80272	1	stim104_inanimate_clothing_gloves_4.png	104	inanimate	clothing	gloves	4	0	2	stars	2	incorrect	1.09092442876135
80472	1	stim025_animate_bird_duck_1.png	25	animate	bird	duck	1	0	2	stars	2	incorrect	1.09092442876135
80672	1	stim074_animate_insect_dragonfly_2.png	74	animate	insect	dragonfly	2	0	2	stars	2	incorrect	1.09092442876135
80872	1	stim195_inanimate_tools_scissors_3.png	195	inanimate	tools	scissors	3	0	2	stars	2	incorrect	1.09092442876135
81072	1	stim117_inanimate_clothing_socks_1.png	117	inanimate	clothing	socks	1	0	2	stars	2	incorrect	1.09092442876135
81272	1	stim135_inanimate_fruits_pineapple_3.png	135	inanimate	fruits	pineapple	3	0	2	stars	2	incorrect	1.09092442876135
81472	1	stim078_animate_insect_grasshopper_2.png	78	animate	insect	grasshopper	2	0	2	stars	2	incorrect	1.09092442876135
81672	1	stim169_inanimate_plants_sunflower_1.png	169	inanimate	plants	sunflower	1	0	2	stars	2	incorrect	1.09092442876135
81872	1	stim057_animate_human_sports_1.png	57	animate	human	sports	1	0	2	stars	2	incorrect	1.09092442876135
82072	1	stim017_animate_aquatic_shrimp_1.png	17	animate	aquatic	shrimp	1	0	2	stars	2	incorrect	1.09092442876135
82272	1	stim008_animate_aquatic_fish_4.png	8	animate	aquatic	fish	4	0	2	stars	2	incorrect	1.09092442876135
82472	1	stim109_inanimate_clothing_jeans_1.png	109	inanimate	clothing	jeans	1	0	2	stars	2	incorrect	1.09092442876135
82672	1	stim076_animate_insect_dragonfly_4.png	76	animate	insect	dragonfly	4	0	2	stars	2	incorrect	1.09092442876135
82872	1	stim163_inanimate_plants_bush_3.png	163	inanimate	plants	bush	3	0	2	stars	2	incorrect	1.09092442876135
83072	1	stim148_inanimate_furniture_chair_4.png	148	inanimate	furniture	chair	4	0	2	stars	2	incorrect	1.09092442876135
83272	1	stim123_inanimate_fruits_apple_3.png	123	inanimate	fruits	apple	3	0	2	stars	2	incorrect	1.09092442876135
83472	1	stim110_inanimate_clothing_jeans_2.png	110	inanimate	clothing	jeans	2	0	2	stars	2	incorrect	1.09092442876135
83672	1	stim161_inanimate_plants_bush_1.png	161	inanimate	plants	bush	1	0	2	stars	2	incorrect	1.09092442876135
83872	1	stim213_targets_shapes_star_1.png	213	targets	shapes	star	1	1	2	stars	2	incorrect	1.09092442876135
84072	1	stim197_inanimate_tools_wrench_1.png	197	inanimate	tools	wrench	1	0	2	stars	2	incorrect	1.09092442876135
84272	1	stim014_animate_aquatic_shark_2.png	14	animate	aquatic	shark	2	0	2	stars	2	incorrect	1.09092442876135
84472	1	stim029_animate_bird_parrot_1.png	29	animate	bird	parrot	1	0	2	stars	2	incorrect	1.09092442876135
84672	1	stim043_animate_human_baby_3.png	43	animate	human	baby	3	0	2	stars	2	incorrect	1.09092442876135
84872	1	stim193_inanimate_tools_scissors_1.png	193	inanimate	tools	scissors	1	0	2	stars	2	incorrect	1.09092442876135
85072	1	stim147_inanimate_furniture_chair_3.png	147	inanimate	furniture	chair	3	0	2	stars	2	incorrect	1.09092442876135
85272	1	stim036_animate_bird_peacock_4.png	36	animate	bird	peacock	4	0	2	stars	2	incorrect	1.09092442876135
85472	1	stim020_animate_aquatic_shrimp_4.png	20	animate	aquatic	shrimp	4	0	2	stars	2	incorrect	1.09092442876135
85672	1	stim146_inanimate_furniture_chair_2.png	146	inanimate	furniture	chair	2	0	2	stars	2	incorrect	1.09092442876135
85872	1	stim079_animate_insect_grasshopper_3.png	79	animate	insect	grasshopper	3	0	2	stars	2	incorrect	1.09092442876135
86072	1	stim183_inanimate_tools_broom_3.png	183	inanimate	tools	broom	3	0	2	stars	2	incorrect	1.09092442876135
86272	1	stim173_inanimate_plants_tree_1.png	173	inanimate	plants	tree	1	0	2	stars	2	incorrect	1.09092442876135
86472	1	stim179_inanimate_plants_tulip_3.png	179	inanimate	plants	tulip	3	0	2	stars	2	incorrect	1.09092442876135
86672	1	stim066_animate_insect_bug_2.png	66	animate	insect	bug	2	0	2	stars	2	incorrect	1.09092442876135
86872	1	stim144_inanimate_furniture_bed_4.png	144	inanimate	furniture	bed	4	0	2	stars	2	incorrect	1.09092442876135
87072	1	stim019_animate_aquatic_shrimp_3.png	19	animate	aquatic	shrimp	3	0	2	stars	2	incorrect	1.09092442876135
87272	1	stim086_animate_mammal_giraffe_2.png	86	animate	mammal	giraffe	2	0	2	stars	2	incorrect	1.09092442876135
87472	1	stim188_inanimate_tools_hammer_4.png	188	inanimate	tools	hammer	4	0	2	stars	2	incorrect	1.09092442876135
87672	1	stim087_animate_mammal_giraffe_3.png	87	animate	mammal	giraffe	3	0	2	stars	2	incorrect	1.09092442876135
87872	1	stim127_inanimate_fruits_banana_3.png	127	inanimate	fruits	banana	3	0	2	stars	2	incorrect	1.09092442876135
88072	1	stim103_inanimate_clothing_gloves_3.png	103	inanimate	clothing	gloves	3	0	2	stars	2	incorrect	1.09092442876135
88272	1	stim180_inanimate_plants_tulip_4.png	180	inanimate	plants	tulip	4	0	2	stars	2	incorrect	1.09092442876135
88472	1	stim155_inanimate_furniture_sofa_3.png	155	inanimate	furniture	sofa	3	0	2	stars	2	incorrect	1.09092442876135
88672	1	stim021_animate_bird_chicken_1.png	21	animate	bird	chicken	1	0	2	stars	2	incorrect	1.09092442876135
88872	1	stim126_inanimate_fruits_banana_2.png	126	inanimate	fruits	banana	2	0	2	stars	2	incorrect	1.09092442876135
89072	1	stim007_animate_aquatic_fish_3.png	7	animate	aquatic	fish	3	0	2	stars	2	incorrect	1.09092442876135
89272	1	stim055_animate_human_faces_3.png	55	animate	human	faces	3	0	2	stars	2	incorrect	1.09092442876135
89472	1	stim049_animate_human_clown_1.png	49	animate	human	clown	1	0	2	stars	2	incorrect	1.09092442876135
89672	1	stim128_inanimate_fruits_banana_4.png	128	inanimate	fruits	banana	4	0	2	stars	2	incorrect	1.09092442876135
89872	1	stim067_animate_insect_bug_3.png	67	animate	insect	bug	3	0	2	stars	2	incorrect	1.09092442876135
90072	1	stim157_inanimate_furniture_table_1.png	157	inanimate	furniture	table	1	0	2	stars	2	incorrect	1.09092442876135
90272	1	stim100_animate_mammal_rhino_4.png	100	animate	mammal	rhino	4	0	2	stars	2	incorrect	1.09092442876135
90472	1	stim150_inanimate_furniture_closet_2.png	150	inanimate	furniture	closet	2	0	2	stars	2	incorrect	1.09092442876135
90672	1	stim071_animate_insect_butterfly_3.png	71	animate	insect	butterfly	3	0	2	stars	2	incorrect	1.09092442876135
90872	1	stim088_animate_mammal_giraffe_4.png	88	animate	mammal	giraffe	4	0	2	stars	2	incorrect	1.09092442876135
91072	1	stim196_inanimate_tools_scissors_4.png	196	inanimate	tools	scissors	4	0	2	stars	2	incorrect	1.09092442876135
91272	1	stim133_inanimate_fruits_pineapple_1.png	133	inanimate	fruits	pineapple	1	0	2	stars	2	incorrect	1.09092442876135
91472	1	stim054_animate_human_faces_2.png	54	animate	human	faces	2	0	2	stars	2	incorrect	1.09092442876135
91672	1	stim050_animate_human_clown_2.png	50	animate	human	clown	2	0	2	stars	2	incorrect	1.09092442876135
91872	1	stim124_inanimate_fruits_apple_4.png	124	inanimate	fruits	apple	4	0	2	stars	2	incorrect	1.09092442876135
92072	1	stim089_animate_mammal_kangaroo_1.png	89	animate	mammal	kangaroo	1	0	2	stars	2	incorrect	1.09092442876135
92272	1	stim059_animate_human_sports_3.png	59	animate	human	sports	3	0	2	stars	2	incorrect	1.09092442876135
92472	1	stim170_inanimate_plants_sunflower_2.png	170	inanimate	plants	sunflower	2	0	2	stars	2	incorrect	1.09092442876135
92672	1	stim068_animate_insect_bug_4.png	68	animate	insect	bug	4	0	2	stars	2	incorrect	1.09092442876135
92872	1	stim212_targets_shapes_star_4.png	212	targets	shapes	star	4	1	2	stars	2	incorrect	1.09092442876135
93072	1	stim082_animate_mammal_cow_2.png	82	animate	mammal	cow	2	0	2	stars	2	incorrect	1.09092442876135
93272	1	stim018_animate_aquatic_shrimp_2.png	18	animate	aquatic	shrimp	2	0	2	stars	2	incorrect	1.09092442876135
93472	1	stim015_animate_aquatic_shark_3.png	15	animate	aquatic	shark	3	0	2	stars	2	incorrect	1.09092442876135
93672	1	stim115_inanimate_clothing_shirt_3.png	115	inanimate	clothing	shirt	3	0	2	stars	2	incorrect	1.09092442876135
93872	1	stim176_inanimate_plants_tree_4.png	176	inanimate	plants	tree	4	0	2	stars	2	incorrect	1.09092442876135
94072	1	stim034_animate_bird_peacock_2.png	34	animate	bird	peacock	2	0	2	stars	2	incorrect	1.09092442876135
94272	1	stim185_inanimate_tools_hammer_1.png	185	inanimate	tools	hammer	1	0	2	stars	2	incorrect	1.09092442876135
94472	1	stim038_animate_bird_penguin_2.png	38	animate	bird	penguin	2	0	2	stars	2	incorrect	1.09092442876135
94672	1	stim098_animate_mammal_rhino_2.png	98	animate	mammal	rhino	2	0	2	stars	2	incorrect	1.09092442876135
94872	1	stim143_inanimate_furniture_bed_3.png	143	inanimate	furniture	bed	3	0	2	stars	2	incorrect	1.09092442876135
95072	1	stim075_animate_insect_dragonfly_3.png	75	animate	insect	dragonfly	3	0	2	stars	2	incorrect	1.09092442876135
95272	1	stim056_animate_human_faces_4.png	56	animate	human	faces	4	0	2	stars	2	incorrect	1.09092442876135
95472	1	stim129_inanimate_fruits_grape_1.png	129	inanimate	fruits	grape	1	0	2	stars	2	incorrect	1.09092442876135
95672	1	stim013_animate_aquatic_shark_1.png	13	animate	aquatic	shark	1	0	2	stars	2	incorrect	1.09092442876135
95872	1	stim001_animate_aquatic_crab_1.png	1	animate	aquatic	crab	1	0	2	stars	2	incorrect	1.09092442876135
96072	1	stim164_inanimate_plants_bush_4.png	164	inanimate	plants	bush	4	0	2	stars	2	incorrect	1.09092442876135
96272	1	stim186_inanimate_tools_hammer_2.png	186	inanimate	tools	hammer	2	0	2	stars	2	incorrect	1.09092442876135
96472	1	stim112_inanimate_clothing_jeans_4.png	112	inanimate	clothing	jeans	4	0	2	stars	2	incorrect	1.09092442876135
96672	1	stim136_inanimate_fruits_pineapple_4.png	136	inanimate	fruits	pineapple	4	0	2	stars	2	incorrect	1.09092442876135
96872	1	stim035_animate_bird_peacock_3.png	35	animate	bird	peacock	3	0	2	stars	2	incorrect	1.09092442876135
97072	1	stim182_inanimate_tools_broom_2.png	182	inanimate	tools	broom	2	0	2	stars	2	incorrect	1.09092442876135
97272	1	stim094_animate_mammal_monkey_2.png	94	animate	mammal	monkey	2	0	2	stars	2	incorrect	1.09092442876135
97472	1	stim134_inanimate_fruits_pineapple_2.png	134	inanimate	fruits	pineapple	2	0	2	stars	2	incorrect	1.09092442876135
97672	1	stim172_inanimate_plants_sunflower_4.png	172	inanimate	plants	sunflower	4	0	2	stars	2	incorrect	1.09092442876135
97872	1	stim138_inanimate_fruits_strawberry_2.png	138	inanimate	fruits	strawberry	2	0	2	stars	2	incorrect	1.09092442876135
98072	1	stim026_animate_bird_duck_2.png	26	animate	bird	duck	2	0	2	stars	2	incorrect	1.09092442876135
98272	1	stim175_inanimate_plants_tree_3.png	175	inanimate	plants	tree	3	0	2	stars	2	incorrect	1.09092442876135
98472	1	stim209_targets_shapes_star_1.png	209	targets	shapes	star	1	1	2	stars	2	incorrect	1.09092442876135
98672	1	stim053_animate_human_faces_1.png	53	animate	human	faces	1	0	2	stars	2	incorrect	1.09092442876135
98872	1	stim132_inanimate_fruits_grape_4.png	132	inanimate	fruits	grape	4	0	2	stars	2	incorrect	1.09092442876135
99072	1	stim198_inanimate_tools_wrench_2.png	198	inanimate	tools	wrench	2	0	2	stars	2	incorrect	1.09092442876135
99272	1	stim167_inanimate_plants_cactus_3.png	167	inanimate	plants	cactus	3	0	2	stars	2	incorrect	1.09092442876135
99472	1	stim031_animate_bird_parrot_3.png	31	animate	bird	parrot	3	0	2	stars	2	incorrect	1.09092442876135
99672	1	stim002_animate_aquatic_crab_2.png	2	animate	aquatic	crab	2	0	2	stars	2	incorrect	1.09092442876135
99872	1	stim181_inanimate_tools_broom_1.png	181	inanimate	tools	broom	1	0	2	stars	2	incorrect	1.09092442876135
100072	1	stim041_animate_human_baby_1.png	41	animate	human	baby	1	0	2	stars	2	incorrect	1.09092442876135
100272	1	stim028_animate_bird_duck_4.png	28	animate	bird	duck	4	0	2	stars	2	incorrect	1.09092442876135
100472	1	stim099_animate_mammal_rhino_3.png	99	animate	mammal	rhino	3	0	2	stars	2	incorrect	1.09092442876135
100672	1	stim189_inanimate_tools_pan_1.png	189	inanimate	tools	pan	1	0	2	stars	2	incorrect	1.09092442876135
100872	1	stim139_inanimate_fruits_strawberry_3.png	139	inanimate	fruits	strawberry	3	0	2	stars	2	incorrect	1.09092442876135
101072	1	stim125_inanimate_fruits_banana_1.png	125	inanimate	fruits	banana	1	0	2	stars	2	incorrect	1.09092442876135
101272	1	stim016_animate_aquatic_shark_4.png	16	animate	aquatic	shark	4	0	2	stars	2	incorrect	1.09092442876135
101472	1	stim046_animate_human_child_2.png	46	animate	human	child	2	0	2	stars	2	incorrect	1.09092442876135
101672	1	stim199_inanimate_tools_wrench_3.png	199	inanimate	tools	wrench	3	0	2	stars	2	incorrect	1.09092442876135
101872	1	stim024_animate_bird_chicken_4.png	24	animate	bird	chicken	4	0	2	stars	2	incorrect	1.09092442876135
102073	1	stim006_animate_aquatic_fish_2.png	6	animate	aquatic	fish	2	0	2	stars	2	incorrect	1.09092442876135
102273	1	stim065_animate_insect_bug_1.png	65	animate	insect	bug	1	0	2	stars	2	incorrect	1.09092442876135
102473	1	stim108_inanimate_clothing_hat_4.png	108	inanimate	clothing	hat	4	0	2	stars	2	incorrect	1.09092442876135
102673	1	stim085_animate_mammal_giraffe_1.png	85	animate	mammal	giraffe	1	0	2	stars	2	incorrect	1.09092442876135
102873	1	stim111_inanimate_clothing_jeans_3.png	111	inanimate	clothing	jeans	3	0	2	stars	2	incorrect	1.09092442876135
103073	1	stim194_inanimate_tools_scissors_2.png	194	inanimate	tools	scissors	2	0	2	stars	2	incorrect	1.09092442876135
103273	1	stim092_animate_mammal_kangaroo_4.png	92	animate	mammal	kangaroo	4	0	2	stars	2	incorrect	1.09092442876135
103473	1	stim064_animate_insect_ant_4.png	64	animate	insect	ant	4	0	2	stars	2	incorrect	1.09092442876135
103673	1	stim216_targets_shapes_star_4.png	216	targets	shapes	star	4	1	2	stars	2	incorrect	1.09092442876135
103873	1	stim120_inanimate_clothing_socks_4.png	120	inanimate	clothing	socks	4	0	2	stars	2	incorrect	1.09092442876135
104073	1	stim062_animate_insect_ant_2.png	62	animate	insect	ant	2	0	2	stars	2	incorrect	1.09092442876135
104273	1	stim119_inanimate_clothing_socks_3.png	119	inanimate	clothing	socks	3	0	2	stars	2	incorrect	1.09092442876135
104473	1	stim156_inanimate_furniture_sofa_4.png	156	inanimate	furniture	sofa	4	0	2	stars	2	incorrect	1.09092442876135
104673	1	stim177_inanimate_plants_tulip_1.png	177	inanimate	plants	tulip	1	0	2	stars	2	incorrect	1.09092442876135
104873	1	stim040_animate_bird_penguin_4.png	40	animate	bird	penguin	4	0	2	stars	2	incorrect	1.09092442876135
105073	1	stim097_animate_mammal_rhino_1.png	97	animate	mammal	rhino	1	0	2	stars	2	incorrect	1.09092442876135
105273	1	stim171_inanimate_plants_sunflower_3.png	171	inanimate	plants	sunflower	3	0	2	stars	2	incorrect	1.09092442876135
105473	1	stim122_inanimate_fruits_apple_2.png	122	inanimate	fruits	apple	2	0	2	stars	2	incorrect	1.09092442876135
105673	1	stim032_animate_bird_parrot_4.png	32	animate	bird	parrot	4	0	2	stars	2	incorrect	1.09092442876135
105873	1	stim061_animate_insect_ant_1.png	61	animate	insect	ant	1	0	2	stars	2	incorrect	1.09092442876135
106073	1	stim105_inanimate_clothing_hat_1.png	105	inanimate	clothing	hat	1	0	2	stars	2	incorrect	1.09092442876135
106273	1	stim052_animate_human_clown_4.png	52	animate	human	clown	4	0	2	stars	2	incorrect	1.09092442876135
106473	1	stim033_animate_bird_peacock_1.png	33	animate	bird	peacock	1	0	2	stars	2	incorrect	1.09092442876135
106673	1	stim154_inanimate_furniture_sofa_2.png	154	inanimate	furniture	sofa	2	0	2	stars	2	incorrect	1.09092442876135
106873	1	stim090_animate_mammal_kangaroo_2.png	90	animate	mammal	kangaroo	2	0	2	stars	2	incorrect	1.09092442876135
107073	1	stim069_animate_insect_butterfly_1.png	69	animate	insect	butterfly	1	0	2	stars	2	incorrect	1.09092442876135
107273	1	stim168_inanimate_plants_cactus_4.png	168	inanimate	plants	cactus	4	0	2	stars	2	incorrect	1.09092442876135
107473	1	stim158_inanimate_furniture_table_2.png	158	inanimate	furniture	table	2	0	2	stars	2	incorrect	1.09092442876135
107673	1	stim081_animate_mammal_cow_1.png	81	animate	mammal	cow	1	0	2	stars	2	incorrect	1.09092442876135
107873	1	stim113_inanimate_clothing_shirt_1.png	113	inanimate	clothing	shirt	1	0	2	stars	2	incorrect	1.09092442876135
108073	1	stim095_animate_mammal_monkey_3.png	95	animate	mammal	monkey	3	0	2	stars	2	incorrect	1.09092442876135
108273	1	stim141_inanimate_furniture_bed_1.png	141	inanimate	furniture	bed	1	0	2	stars	2	incorrect	1.09092442876135
108473	1	stim121_inanimate_fruits_apple_1.png	121	inanimate	fruits	apple	1	0	2	stars	2	incorrect	1.09092442876135
108673	1	stim012_animate_aquatic_seahorse_4.png	12	animate	aquatic	seahorse	4	0	2	stars	2	incorrect	1.09092442876135
108873	1	stim083_animate_mammal_cow_3.png	83	animate	mammal	cow	3	0	2	stars	2	incorrect	1.09092442876135
109073	1	stim107_inanimate_clothing_hat_3.png	107	inanimate	clothing	hat	3	0	2	stars	2	incorrect	1.09092442876135
109273	1	stim159_inanimate_furniture_table_3.png	159	inanimate	furniture	table	3	0	2	stars	2	incorrect	1.09092442876135
109473	1	stim187_inanimate_tools_hammer_3.png	187	inanimate	tools	hammer	3	0	2	stars	2	incorrect	1.09092442876135
109673	1	stim004_animate_aquatic_crab_4.png	4	animate	aquatic	crab	4	0	2	stars	2	incorrect	1.09092442876135
109873	1	stim048_animate_human_child_4.png	48	animate	human	child	4	0	2	stars	2	incorrect	1.09092442876135
110073	1	stim096_animate_mammal_monkey_4.png	96	animate	mammal	monkey	4	0	2	stars	2	incorrect	1.09092442876135
110273	1	stim070_animate_insect_butterfly_2.png	70	animate	insect	butterfly	2	0	2	stars	2	incorrect	1.09092442876135
110473	1	stim022_animate_bird_chicken_2.png	22	animate	bird	chicken	2	0	2	stars	2	incorrect	1.09092442876135
110673	1	stim042_animate_human_baby_2.png	42	animate	human	baby	2	0	2	stars	2	incorrect	1.09092442876135
110873	1	stim027_animate_bird_duck_3.png	27	animate	bird	duck	3	0	2	stars	2	incorrect	1.09092442876135
111073	1	stim091_animate_mammal_kangaroo_3.png	91	animate	mammal	kangaroo	3	0	2	stars	2	incorrect	1.09092442876135
111273	1	stim058_animate_human_sports_2.png	58	animate	human	sports	2	0	2	stars	2	incorrect	1.09092442876135
111473	1	stim093_animate_mammal_monkey_1.png	93	animate	mammal	monkey	1	0	2	stars	2	incorrect	1.09092442876135
111673	1	stim009_animate_aquatic_seahorse_1.png	9	animate	aquatic	seahorse	1	0	2	stars	2	incorrect	1.09092442876135
111873	1	stim051_animate_human_clown_3.png	51	animate	human	clown	3	0	2	stars	2	incorrect	1.09092442876135
112073	1	stim106_inanimate_clothing_hat_2.png	106	inanimate	clothing	hat	2	0	2	stars	2	incorrect	1.09092442876135
112273	1	stim101_inanimate_clothing_gloves_1.png	101	inanimate	clothing	gloves	1	0	2	stars	2	incorrect	1.09092442876135
112473	1	stim160_inanimate_furniture_table_4.png	160	inanimate	furniture	table	4	0	2	stars	2	incorrect	1.09092442876135
112673	1	stim174_inanimate_plants_tree_2.png	174	inanimate	plants	tree	2	0	2	stars	2	incorrect	1.09092442876135
112873	1	stim140_inanimate_fruits_strawberry_4.png	140	inanimate	fruits	strawberry	4	0	2	stars	2	incorrect	1.09092442876135
113073	1	stim200_inanimate_tools_wrench_4.png	200	inanimate	tools	wrench	4	0	2	stars	2	incorrect	1.09092442876135
113273	1	stim131_inanimate_fruits_grape_3.png	131	inanimate	fruits	grape	3	0	2	stars	2	incorrect	1.09092442876135
113473	1	stim165_inanimate_plants_cactus_1.png	165	inanimate	plants	cactus	1	0	2	stars	2	incorrect	1.09092442876135
113673	1	stim184_inanimate_tools_broom_4.png	184	inanimate	tools	broom	4	0	2	stars	2	incorrect	1.09092442876135
113873	1	stim137_inanimate_fruits_strawberry_1.png	137	inanimate	fruits	strawberry	1	0	2	stars	2	incorrect	1.09092442876135
114073	1	stim039_animate_bird_penguin_3.png	39	animate	bird	penguin	3	0	2	stars	2	incorrect	1.09092442876135
114273	1	stim073_animate_insect_dragonfly_1.png	73	animate	insect	dragonfly	1	0	2	stars	2	incorrect	1.09092442876135
114473	1	stim063_animate_insect_ant_3.png	63	animate	insect	ant	3	0	2	stars	2	incorrect	1.09092442876135
114673	1	stim005_animate_aquatic_fish_1.png	5	animate	aquatic	fish	1	0	2	stars	2	incorrect	1.09092442876135
114873	1	stim178_inanimate_plants_tulip_2.png	178	inanimate	plants	tulip	2	0	2	stars	2	incorrect	1.09092442876135
115073	1	stim192_inanimate_tools_pan_4.png	192	inanimate	tools	pan	4	0	2	stars	2	incorrect	1.09092442876135
115273	1	stim010_animate_aquatic_seahorse_2.png	10	animate	aquatic	seahorse	2	0	2	stars	2	incorrect	1.09092442876135
115473	1	stim149_inanimate_furniture_closet_1.png	149	inanimate	furniture	closet	1	0	2	stars	2	incorrect	1.09092442876135
115673	1	stim045_animate_human_child_1.png	45	animate	human	child	1	0	2	stars	2	incorrect	1.09092442876135
115873	1	stim145_inanimate_furniture_chair_1.png	145	inanimate	furniture	chair	1	0	2	stars	2	incorrect	1.09092442876135
124473	1	stim040_animate_bird_penguin_4.png	40	animate	bird	penguin	4	0	3	boats	2	correct	1.11356093778159
124673	1	stim047_animate_human_child_3.png	47	animate	human	child	3	0	3	boats	2	correct	1.11356093778159
124873	1	stim152_inanimate_furniture_closet_4.png	152	inanimate	furniture	closet	4	0	3	boats	2	correct	1.11356093778159
125073	1	stim177_inanimate_plants_tulip_1.png	177	inanimate	plants	tulip	1	0	3	boats	2	correct	1.11356093778159
125273	1	stim016_animate_aquatic_shark_4.png	16	animate	aquatic	shark	4	0	3	boats	2	correct	1.11356093778159
125473	1	stim056_animate_human_faces_4.png	56	animate	human	faces	4	0	3	boats	2	correct	1.11356093778159
125673	1	stim166_inanimate_plants_cactus_2.png	166	inanimate	plants	cactus	2	0	3	boats	2	correct	1.11356093778159
125873	1	stim045_animate_human_child_1.png	45	animate	human	child	1	0	3	boats	2	correct	1.11356093778159
126073	1	stim068_animate_insect_bug_4.png	68	animate	insect	bug	4	0	3	boats	2	correct	1.11356093778159
126273	1	stim007_animate_aquatic_fish_3.png	7	animate	aquatic	fish	3	0	3	boats	2	correct	1.11356093778159
126473	1	stim082_animate_mammal_cow_2.png	82	animate	mammal	cow	2	0	3	boats	2	correct	1.11356093778159
126673	1	stim096_animate_mammal_monkey_4.png	96	animate	mammal	monkey	4	0	3	boats	2	correct	1.11356093778159
126873	1	stim012_animate_aquatic_seahorse_4.png	12	animate	aquatic	seahorse	4	0	3	boats	2	correct	1.11356093778159
127073	1	stim187_inanimate_tools_hammer_3.png	187	inanimate	tools	hammer	3	0	3	boats	2	correct	1.11356093778159
127273	1	stim172_inanimate_plants_sunflower_4.png	172	inanimate	plants	sunflower	4	0	3	boats	2	correct	1.11356093778159
127473	1	stim050_animate_human_clown_2.png	50	animate	human	clown	2	0	3	boats	2	correct	1.11356093778159
127673	1	stim113_inanimate_clothing_shirt_1.png	113	inanimate	clothing	shirt	1	0	3	boats	2	correct	1.11356093778159
127873	1	stim077_animate_insect_grasshopper_1.png	77	animate	insect	grasshopper	1	0	3	boats	2	correct	1.11356093778159
128073	1	stim178_inanimate_plants_tulip_2.png	178	inanimate	plants	tulip	2	0	3	boats	2	correct	1.11356093778159
128273	1	stim001_animate_aquatic_crab_1.png	1	animate	aquatic	crab	1	0	3	boats	2	correct	1.11356093778159
128473	1	stim156_inanimate_furniture_sofa_4.png	156	inanimate	furniture	sofa	4	0	3	boats	2	correct	1.11356093778159
128673	1	stim053_animate_human_faces_1.png	53	animate	human	faces	1	0	3	boats	2	correct	1.11356093778159
128873	1	stim081_animate_mammal_cow_1.png	81	animate	mammal	cow	1	0	3	boats	2	correct	1.11356093778159
129073	1	stim182_inanimate_tools_broom_2.png	182	inanimate	tools	broom	2	0	3	boats	2	correct	1.11356093778159
129273	1	stim074_animate_insect_dragonfly_2.png	74	animate	insect	dragonfly	2	0	3	boats	2	correct	1.11356093778159
129473	1	stim023_animate_bird_chicken_3.png	23	animate	bird	chicken	3	0	3	boats	2	correct	1.11356093778159
129673	1	stim090_animate_mammal_kangaroo_2.png	90	animate	mammal	kangaroo	2	0	3	boats	2	correct	1.11356093778159
129873	1	stim104_inanimate_clothing_gloves_4.png	104	inanimate	clothing	gloves	4	0	3	boats	2	correct	1.11356093778159
130073	1	stim027_animate_bird_duck_3.png	27	animate	bird	duck	3	0	3	boats	2	correct	1.11356093778159
130273	1	stim188_inanimate_tools_hammer_4.png	188	inanimate	tools	hammer	4	0	3	boats	2	correct	1.11356093778159
130473	1	stim155_inanimate_furniture_sofa_3.png	155	inanimate	furniture	sofa	3	0	3	boats	2	correct	1.11356093778159
130673	1	stim025_animate_bird_duck_1.png	25	animate	bird	duck	1	0	3	boats	2	correct	1.11356093778159
130873	1	stim086_animate_mammal_giraffe_2.png	86	animate	mammal	giraffe	2	0	3	boats	2	correct	1.11356093778159
131073	1	stim006_animate_aquatic_fish_2.png	6	animate	aquatic	fish	2	0	3	boats	2	correct	1.11356093778159
131273	1	stim112_inanimate_clothing_jeans_4.png	112	inanimate	clothing	jeans	4	0	3	boats	2	correct	1.11356093778159
131473	1	stim171_inanimate_plants_sunflower_3.png	171	inanimate	plants	sunflower	3	0	3	boats	2	correct	1.11356093778159
131673	1	stim140_inanimate_fruits_strawberry_4.png	140	inanimate	fruits	strawberry	4	0	3	boats	2	correct	1.11356093778159
131873	1	stim098_animate_mammal_rhino_2.png	98	animate	mammal	rhino	2	0	3	boats	2	correct	1.11356093778159
132073	1	stim199_inanimate_tools_wrench_3.png	199	inanimate	tools	wrench	3	0	3	boats	2	correct	1.11356093778159
132273	1	stim059_animate_human_sports_3.png	59	animate	human	sports	3	0	3	boats	2	correct	1.11356093778159
132473	1	stim174_inanimate_plants_tree_2.png	174	inanimate	plants	tree	2	0	3	boats	2	correct	1.11356093778159
132673	1	stim159_inanimate_furniture_table_3.png	159	inanimate	furniture	table	3	0	3	boats	2	correct	1.11356093778159
132873	1	stim164_inanimate_plants_bush_4.png	164	inanimate	plants	bush	4	0	3	boats	2	correct	1.11356093778159
133073	1	stim192_inanimate_tools_pan_4.png	192	inanimate	tools	pan	4	0	3	boats	2	correct	1.11356093778159
133273	1	stim039_animate_bird_penguin_3.png	39	animate	bird	penguin	3	0	3	boats	2	correct	1.11356093778159
133473	1	stim067_animate_insect_bug_3.png	67	animate	insect	bug	3	0	3	boats	2	correct	1.11356093778159
133673	1	stim196_inanimate_tools_scissors_4.png	196	inanimate	tools	scissors	4	0	3	boats	2	correct	1.11356093778159
133873	1	stim094_animate_mammal_monkey_2.png	94	animate	mammal	monkey	2	0	3	boats	2	correct	1.11356093778159
134073	1	stim044_animate_human_baby_4.png	44	animate	human	baby	4	0	3	boats	2	correct	1.11356093778159
134273	1	stim009_animate_aquatic_seahorse_1.png	9	animate	aquatic	seahorse	1	0	3	boats	2	correct	1.11356093778159
134473	1	stim011_animate_aquatic_seahorse_3.png	11	animate	aquatic	seahorse	3	0	3	boats	2	correct	1.11356093778159
134673	1	stim024_animate_bird_chicken_4.png	24	animate	bird	chicken	4	0	3	boats	2	correct	1.11356093778159
134873	1	stim153_inanimate_furniture_sofa_1.png	153	inanimate	furniture	sofa	1	0	3	boats	2	correct	1.11356093778159
135073	1	stim069_animate_insect_butterfly_1.png	69	animate	insect	butterfly	1	0	3	boats	2	correct	1.11356093778159
135273	1	stim145_inanimate_furniture_chair_1.png	145	inanimate	furniture	chair	1	0	3	boats	2	correct	1.11356093778159
135473	1	stim185_inanimate_tools_hammer_1.png	185	inanimate	tools	hammer	1	0	3	boats	2	correct	1.11356093778159
135673	1	stim004_animate_aquatic_crab_4.png	4	animate	aquatic	crab	4	0	3	boats	2	correct	1.11356093778159
135873	1	stim072_animate_insect_butterfly_4.png	72	animate	insect	butterfly	4	0	3	boats	2	correct	1.11356093778159
136073	1	stim194_inanimate_tools_scissors_2.png	194	inanimate	tools	scissors	2	0	3	boats	2	correct	1.11356093778159
136273	1	stim191_inanimate_tools_pan_3.png	191	inanimate	tools	pan	3	0	3	boats	2	correct	1.11356093778159
136473	1	stim091_animate_mammal_kangaroo_3.png	91	animate	mammal	kangaroo	3	0	3	boats	2	correct	1.11356093778159
136673	1	stim126_inanimate_fruits_banana_2.png	126	inanimate	fruits	banana	2	0	3	boats	2	correct	1.11356093778159
136873	1	stim121_inanimate_fruits_apple_1.png	121	inanimate	fruits	apple	1	0	3	boats	2	correct	1.11356093778159
137073	1	stim141_inanimate_furniture_bed_1.png	141	inanimate	furniture	bed	1	0	3	boats	2	correct	1.11356093778159
137273	1	stim115_inanimate_clothing_shirt_3.png	115	inanimate	clothing	shirt	3	0	3	boats	2	correct	1.11356093778159
137473	1	stim087_animate_mammal_giraffe_3.png	87	animate	mammal	giraffe	3	0	3	boats	2	correct	1.11356093778159
137673	1	stim017_animate_aquatic_shrimp_1.png	17	animate	aquatic	shrimp	1	0	3	boats	2	correct	1.11356093778159
137873	1	stim184_inanimate_tools_broom_4.png	184	inanimate	tools	broom	4	0	3	boats	2	correct	1.11356093778159
138073	1	stim075_animate_insect_dragonfly_3.png	75	animate	insect	dragonfly	3	0	3	boats	2	correct	1.11356093778159
138273	1	stim005_animate_aquatic_fish_1.png	5	animate	aquatic	fish	1	0	3	boats	2	correct	1.11356093778159
138473	1	stim022_animate_bird_chicken_2.png	22	animate	bird	chicken	2	0	3	boats	2	correct	1.11356093778159
138673	1	stim110_inanimate_clothing_jeans_2.png	110	inanimate	clothing	jeans	2	0	3	boats	2	correct	1.11356093778159
138873	1	stim208_targets_object_boats_4.png	208	targets	object	boats	4	1	3	boats	2	correct	1.11356093778159
139073	1	stim146_inanimate_furniture_chair_2.png	146	inanimate	furniture	chair	2	0	3	boats	2	correct	1.11356093778159
139273	1	stim029_animate_bird_parrot_1.png	29	animate	bird	parrot	1	0	3	boats	2	correct	1.11356093778159
139473	1	stim010_animate_aquatic_seahorse_2.png	10	animate	aquatic	seahorse	2	0	3	boats	2	correct	1.11356093778159
139673	1	stim057_animate_human_sports_1.png	57	animate	human	sports	1	0	3	boats	2	correct	1.11356093778159
139873	1	stim071_animate_insect_butterfly_3.png	71	animate	insect	butterfly	3	0	3	boats	2	correct	1.11356093778159
140073	1	stim149_inanimate_furniture_closet_1.png	149	inanimate	furniture	closet	1	0	3	boats	2	correct	1.11356093778159
140273	1	stim179_inanimate_plants_tulip_3.png	179	inanimate	plants	tulip	3	0	3	boats	2	correct	1.11356093778159
140473	1	stim093_animate_mammal_monkey_1.png	93	animate	mammal	monkey	1	0	3	boats	2	correct	1.11356093778159
140673	1	stim198_inanimate_tools_wrench_2.png	198	inanimate	tools	wrench	2	0	3	boats	2	correct	1.11356093778159
140873	1	stim097_animate_mammal_rhino_1.png	97	animate	mammal	rhino	1	0	3	boats	2	correct	1.11356093778159
141073	1	stim032_animate_bird_parrot_4.png	32	animate	bird	parrot	4	0	3	boats	2	correct	1.11356093778159
141273	1	stim157_inanimate_furniture_table_1.png	157	inanimate	furniture	table	1	0	3	boats	2	correct	1.11356093778159
141473	1	stim102_inanimate_clothing_gloves_2.png	102	inanimate	clothing	gloves	2	0	3	boats	2	correct	1.11356093778159
141673	1	stim041_animate_human_baby_1.png	41	animate	human	baby	1	0	3	boats	2	correct	1.11356093778159
141873	1	stim181_inanimate_tools_broom_1.png	181	inanimate	tools	broom	1	0	3	boats	2	correct	1.11356093778159
142073	1	stim116_inanimate_clothing_shirt_4.png	116	inanimate	clothing	shirt	4	0	3	boats	2	correct	1.11356093778159
142273	1	stim190_inanimate_tools_pan_2.png	190	inanimate	tools	pan	2	0	3	boats	2	correct	1.11356093778159
142473	1	stim084_animate_mammal_cow_4.png	84	animate	mammal	cow	4	0	3	boats	2	correct	1.11356093778159
142673	1	stim130_inanimate_fruits_grape_2.png	130	inanimate	fruits	grape	2	0	3	boats	2	correct	1.11356093778159
142873	1	stim129_inanimate_fruits_grape_1.png	129	inanimate	fruits	grape	1	0	3	boats	2	correct	1.11356093778159
143073	1	stim070_animate_insect_butterfly_2.png	70	animate	insect	butterfly	2	0	3	boats	2	correct	1.11356093778159
143273	1	stim127_inanimate_fruits_banana_3.png	127	inanimate	fruits	banana	3	0	3	boats	2	correct	1.11356093778159
143473	1	stim019_animate_aquatic_shrimp_3.png	19	animate	aquatic	shrimp	3	0	3	boats	2	correct	1.11356093778159
143673	1	stim120_inanimate_clothing_socks_4.png	120	inanimate	clothing	socks	4	0	3	boats	2	correct	1.11356093778159
143873	1	stim114_inanimate_clothing_shirt_2.png	114	inanimate	clothing	shirt	2	0	3	boats	2	correct	1.11356093778159
144073	1	stim013_animate_aquatic_shark_1.png	13	animate	aquatic	shark	1	0	3	boats	2	correct	1.11356093778159
144273	1	stim107_inanimate_clothing_hat_3.png	107	inanimate	clothing	hat	3	0	3	boats	2	correct	1.11356093778159
144473	1	stim163_inanimate_plants_bush_3.png	163	inanimate	plants	bush	3	0	3	boats	2	correct	1.11356093778159
144673	1	stim037_animate_bird_penguin_1.png	37	animate	bird	penguin	1	0	3	boats	2	correct	1.11356093778159
144873	1	stim020_animate_aquatic_shrimp_4.png	20	animate	aquatic	shrimp	4	0	3	boats	2	correct	1.11356093778159
145073	1	stim134_inanimate_fruits_pineapple_2.png	134	inanimate	fruits	pineapple	2	0	3	boats	2	correct	1.11356093778159
145273	1	stim147_inanimate_furniture_chair_3.png	147	inanimate	furniture	chair	3	0	3	boats	2	correct	1.11356093778159
145473	1	stim122_inanimate_fruits_apple_2.png	122	inanimate	fruits	apple	2	0	3	boats	2	correct	1.11356093778159
145674	1	stim008_animate_aquatic_fish_4.png	8	animate	aquatic	fish	4	0	3	boats	2	correct	1.11356093778159
145874	1	stim021_animate_bird_chicken_1.png	21	animate	bird	chicken	1	0	3	boats	2	correct	1.11356093778159
146074	1	stim078_animate_insect_grasshopper_2.png	78	animate	insect	grasshopper	2	0	3	boats	2	correct	1.11356093778159
146274	1	stim186_inanimate_tools_hammer_2.png	186	inanimate	tools	hammer	2	0	3	boats	2	correct	1.11356093778159
146474	1	stim111_inanimate_clothing_jeans_3.png	111	inanimate	clothing	jeans	3	0	3	boats	2	correct	1.11356093778159
146674	1	stim108_inanimate_clothing_hat_4.png	108	inanimate	clothing	hat	4	0	3	boats	2	correct	1.11356093778159
146874	1	stim200_inanimate_tools_wrench_4.png	200	inanimate	tools	wrench	4	0	3	boats	2	correct	1.11356093778159
147074	1	stim042_animate_human_baby_2.png	42	animate	human	baby	2	0	3	boats	2	correct	1.11356093778159
147274	1	stim064_animate_insect_ant_4.png	64	animate	insect	ant	4	0	3	boats	2	correct	1.11356093778159
147474	1	stim052_animate_human_clown_4.png	52	animate	human	clown	4	0	3	boats	2	correct	1.11356093778159
147674	1	stim169_inanimate_plants_sunflower_1.png	169	inanimate	plants	sunflower	1	0	3	boats	2	correct	1.11356093778159
147874	1	stim048_animate_human_child_4.png	48	animate	human	child	4	0	3	boats	2	correct	1.11356093778159
148074	1	stim133_inanimate_fruits_pineapple_1.png	133	inanimate	fruits	pineapple	1	0	3	boats	2	correct	1.11356093778159
148274	1	stim143_inanimate_furniture_bed_3.png	143	inanimate	furniture	bed	3	0	3	boats	2	correct	1.11356093778159
148474	1	stim175_inanimate_plants_tree_3.png	175	inanimate	plants	tree	3	0	3	boats	2	correct	1.11356093778159
148674	1	stim131_inanimate_fruits_grape_3.png	131	inanimate	fruits	grape	3	0	3	boats	2	correct	1.11356093778159
148874	1	stim137_inanimate_fruits_strawberry_1.png	137	inanimate	fruits	strawberry	1	0	3	boats	2	correct	1.11356093778159
149074	1	stim034_animate_bird_peacock_2.png	34	animate	bird	peacock	2	0	3	boats	2	correct	1.11356093778159
149274	1	stim092_animate_mammal_kangaroo_4.png	92	animate	mammal	kangaroo	4	0	3	boats	2	correct	1.11356093778159
149474	1	stim100_animate_mammal_rhino_4.png	100	animate	mammal	rhino	4	0	3	boats	2	correct	1.11356093778159
149674	1	stim144_inanimate_furniture_bed_4.png	144	inanimate	furniture	bed	4	0	3	boats	2	correct	1.11356093778159
149874	1	stim195_inanimate_tools_scissors_3.png	195	inanimate	tools	scissors	3	0	3	boats	2	correct	1.11356093778159
150074	1	stim183_inanimate_tools_broom_3.png	183	inanimate	tools	broom	3	0	3	boats	2	correct	1.11356093778159
150274	1	stim119_inanimate_clothing_socks_3.png	119	inanimate	clothing	socks	3	0	3	boats	2	correct	1.11356093778159
150474	1	stim138_inanimate_fruits_strawberry_2.png	138	inanimate	fruits	strawberry	2	0	3	boats	2	correct	1.11356093778159
150674	1	stim058_animate_human_sports_2.png	58	animate	human	sports	2	0	3	boats	2	correct	1.11356093778159
150874	1	stim043_animate_human_baby_3.png	43	animate	human	baby	3	0	3	boats	2	correct	1.11356093778159
151074	1	stim202_targets_object_boats_2.png	202	targets	object	boats	2	1	3	boats	2	correct	1.11356093778159
151274	1	stim162_inanimate_plants_bush_2.png	162	inanimate	plants	bush	2	0	3	boats	2	correct	1.11356093778159
151474	1	stim101_inanimate_clothing_gloves_1.png	101	inanimate	clothing	gloves	1	0	3	boats	2	correct	1.11356093778159
151674	1	stim136_inanimate_fruits_pineapple_4.png	136	inanimate	fruits	pineapple	4	0	3	boats	2	correct	1.11356093778159
151874	1	stim046_animate_human_child_2.png	46	animate	human	child	2	0	3	boats	2	correct	1.11356093778159
152074	1	stim065_animate_insect_bug_1.png	65	animate	insect	bug	1	0	3	boats	2	correct	1.11356093778159
152274	1	stim028_animate_bird_duck_4.png	28	animate	bird	duck	4	0	3	boats	2	correct	1.11356093778159
152474	1	stim132_inanimate_fruits_grape_4.png	132	inanimate	fruits	grape	4	0	3	boats	2	correct	1.11356093778159
152674	1	stim142_inanimate_furniture_bed_2.png	142	inanimate	furniture	bed	2	0	3	boats	2	correct	1.11356093778159
152874	1	stim150_inanimate_furniture_closet_2.png	150	inanimate	furniture	closet	2	0	3	boats	2	correct	1.11356093778159
153074	1	stim099_animate_mammal_rhino_3.png	99	animate	mammal	rhino	3	0	3	boats	2	correct	1.11356093778159
153274	1	stim003_animate_aquatic_crab_3.png	3	animate	aquatic	crab	3	0	3	boats	2	correct	1.11356093778159
153474	1	stim073_animate_insect_dragonfly_1.png	73	animate	insect	dragonfly	1	0	3	boats	2	correct	1.11356093778159
153674	1	stim173_inanimate_plants_tree_1.png	173	inanimate	plants	tree	1	0	3	boats	2	correct	1.11356093778159
153874	1	stim018_animate_aquatic_shrimp_2.png	18	animate	aquatic	shrimp	2	0	3	boats	2	correct	1.11356093778159
154074	1	stim026_animate_bird_duck_2.png	26	animate	bird	duck	2	0	3	boats	2	correct	1.11356093778159
154274	1	stim035_animate_bird_peacock_3.png	35	animate	bird	peacock	3	0	3	boats	2	correct	1.11356093778159
154474	1	stim014_animate_aquatic_shark_2.png	14	animate	aquatic	shark	2	0	3	boats	2	correct	1.11356093778159
154674	1	stim030_animate_bird_parrot_2.png	30	animate	bird	parrot	2	0	3	boats	2	correct	1.11356093778159
154874	1	stim036_animate_bird_peacock_4.png	36	animate	bird	peacock	4	0	3	boats	2	correct	1.11356093778159
155074	1	stim123_inanimate_fruits_apple_3.png	123	inanimate	fruits	apple	3	0	3	boats	2	correct	1.11356093778159
155274	1	stim002_animate_aquatic_crab_2.png	2	animate	aquatic	crab	2	0	3	boats	2	correct	1.11356093778159
155474	1	stim117_inanimate_clothing_socks_1.png	117	inanimate	clothing	socks	1	0	3	boats	2	correct	1.11356093778159
155674	1	stim103_inanimate_clothing_gloves_3.png	103	inanimate	clothing	gloves	3	0	3	boats	2	correct	1.11356093778159
155874	1	stim083_animate_mammal_cow_3.png	83	animate	mammal	cow	3	0	3	boats	2	correct	1.11356093778159
156074	1	stim125_inanimate_fruits_banana_1.png	125	inanimate	fruits	banana	1	0	3	boats	2	correct	1.11356093778159
156274	1	stim085_animate_mammal_giraffe_1.png	85	animate	mammal	giraffe	1	0	3	boats	2	correct	1.11356093778159
156474	1	stim161_inanimate_plants_bush_1.png	161	inanimate	plants	bush	1	0	3	boats	2	correct	1.11356093778159
156674	1	stim167_inanimate_plants_cactus_3.png	167	inanimate	plants	cactus	3	0	3	boats	2	correct	1.11356093778159
156874	1	stim180_inanimate_plants_tulip_4.png	180	inanimate	plants	tulip	4	0	3	boats	2	correct	1.11356093778159
157074	1	stim038_animate_bird_penguin_2.png	38	animate	bird	penguin	2	0	3	boats	2	correct	1.11356093778159
157274	1	stim168_inanimate_plants_cactus_4.png	168	inanimate	plants	cactus	4	0	3	boats	2	correct	1.11356093778159
157474	1	stim076_animate_insect_dragonfly_4.png	76	animate	insect	dragonfly	4	0	3	boats	2	correct	1.11356093778159
157674	1	stim088_animate_mammal_giraffe_4.png	88	animate	mammal	giraffe	4	0	3	boats	2	correct	1.11356093778159
157874	1	stim170_inanimate_plants_sunflower_2.png	170	inanimate	plants	sunflower	2	0	3	boats	2	correct	1.11356093778159
158074	1	stim031_animate_bird_parrot_3.png	31	animate	bird	parrot	3	0	3	boats	2	correct	1.11356093778159
158274	1	stim124_inanimate_fruits_apple_4.png	124	inanimate	fruits	apple	4	0	3	boats	2	correct	1.11356093778159
158474	1	stim061_animate_insect_ant_1.png	61	animate	insect	ant	1	0	3	boats	2	correct	1.11356093778159
158674	1	stim165_inanimate_plants_cactus_1.png	165	inanimate	plants	cactus	1	0	3	boats	2	correct	1.11356093778159
158874	1	stim193_inanimate_tools_scissors_1.png	193	inanimate	tools	scissors	1	0	3	boats	2	correct	1.11356093778159
159074	1	stim054_animate_human_faces_2.png	54	animate	human	faces	2	0	3	boats	2	correct	1.11356093778159
159274	1	stim063_animate_insect_ant_3.png	63	animate	insect	ant	3	0	3	boats	2	correct	1.11356093778159
159474	1	stim118_inanimate_clothing_socks_2.png	118	inanimate	clothing	socks	2	0	3	boats	2	correct	1.11356093778159
159674	1	stim049_animate_human_clown_1.png	49	animate	human	clown	1	0	3	boats	2	correct	1.11356093778159
159874	1	stim060_animate_human_sports_4.png	60	animate	human	sports	4	0	3	boats	2	correct	1.11356093778159
160074	1	stim055_animate_human_faces_3.png	55	animate	human	faces	3	0	3	boats	2	correct	1.11356093778159
160274	1	stim080_animate_insect_grasshopper_4.png	80	animate	insect	grasshopper	4	0	3	boats	2	correct	1.11356093778159
160474	1	stim105_inanimate_clothing_hat_1.png	105	inanimate	clothing	hat	1	0	3	boats	2	correct	1.11356093778159
160674	1	stim158_inanimate_furniture_table_2.png	158	inanimate	furniture	table	2	0	3	boats	2	correct	1.11356093778159
160874	1	stim051_animate_human_clown_3.png	51	animate	human	clown	3	0	3	boats	2	correct	1.11356093778159
161074	1	stim128_inanimate_fruits_banana_4.png	128	inanimate	fruits	banana	4	0	3	boats	2	correct	1.11356093778159
161274	1	stim151_inanimate_furniture_closet_3.png	151	inanimate	furniture	closet	3	0	3	boats	2	correct	1.11356093778159
161474	1	stim154_inanimate_furniture_sofa_2.png	154	inanimate	furniture	sofa	2	0	3	boats	2	correct	1.11356093778159
161674	1	stim135_inanimate_fruits_pineapple_3.png	135	inanimate	fruits	pineapple	3	0	3	boats	2	correct	1.11356093778159
161874	1	stim062_animate_insect_ant_2.png	62	animate	insect	ant	2	0	3	boats	2	correct	1.11356093778159
162074	1	stim089_animate_mammal_kangaroo_1.png	89	animate	mammal	kangaroo	1	0	3	boats	2	correct	1.11356093778159
162274	1	stim139_inanimate_fruits_strawberry_3.png	139	inanimate	fruits	strawberry	3	0	3	boats	2	correct	1.11356093778159
162474	1	stim176_inanimate_plants_tree_4.png	176	inanimate	plants	tree	4	0	3	boats	2	correct	1.11356093778159
162674	1	stim109_inanimate_clothing_jeans_1.png	109	inanimate	clothing	jeans	1	0	3	boats	2	correct	1.11356093778159
162874	1	stim033_animate_bird_peacock_1.png	33	animate	bird	peacock	1	0	3	boats	2	correct	1.11356093778159
163074	1	stim189_inanimate_tools_pan_1.png	189	inanimate	tools	pan	1	0	3	boats	2	correct	1.11356093778159
163274	1	stim015_animate_aquatic_shark_3.png	15	animate	aquatic	shark	3	0	3	boats	2	correct	1.11356093778159
163474	1	stim066_animate_insect_bug_2.png	66	animate	insect	bug	2	0	3	boats	2	correct	1.11356093778159
163674	1	stim160_inanimate_furniture_table_4.png	160	inanimate	furniture	table	4	0	3	boats	2	correct	1.11356093778159
163874	1	stim148_inanimate_furniture_chair_4.png	148	inanimate	furniture	chair	4	0	3	boats	2	correct	1.11356093778159
164074	1	stim079_animate_insect_grasshopper_3.png	79	animate	insect	grasshopper	3	0	3	boats	2	correct	1.11356093778159
164274	1	stim106_inanimate_clothing_hat_2.png	106	inanimate	clothing	hat	2	0	3	boats	2	correct	1.11356093778159
164474	1	stim197_inanimate_tools_wrench_1.png	197	inanimate	tools	wrench	1	0	3	boats	2	correct	1.11356093778159
164674	1	stim095_animate_mammal_monkey_3.png	95	animate	mammal	monkey	3	0	3	boats	2	correct	1.11356093778159
168441	1	stim198_inanimate_tools_wrench_2.png	198	inanimate	tools	wrench	2	0	4	stars	3	correct	1.40769829040801
168641	1	stim179_inanimate_plants_tulip_3.png	179	inanimate	plants	tulip	3	0	4	stars	3	correct	1.40769829040801
168841	1	stim125_inanimate_fruits_banana_1.png	125	inanimate	fruits	banana	1	0	4	stars	3	correct	1.40769829040801
169041	1	stim115_inanimate_clothing_shirt_3.png	115	inanimate	clothing	shirt	3	0	4	stars	3	correct	1.40769829040801
169241	1	stim064_animate_insect_ant_4.png	64	animate	insect	ant	4	0	4	stars	3	correct	1.40769829040801
169441	1	stim086_animate_mammal_giraffe_2.png	86	animate	mammal	giraffe	2	0	4	stars	3	correct	1.40769829040801
169641	1	stim200_inanimate_tools_wrench_4.png	200	inanimate	tools	wrench	4	0	4	stars	3	correct	1.40769829040801
169841	1	stim042_animate_human_baby_2.png	42	animate	human	baby	2	0	4	stars	3	correct	1.40769829040801
170041	1	stim132_inanimate_fruits_grape_4.png	132	inanimate	fruits	grape	4	0	4	stars	3	correct	1.40769829040801
170241	1	stim147_inanimate_furniture_chair_3.png	147	inanimate	furniture	chair	3	0	4	stars	3	correct	1.40769829040801
170441	1	stim118_inanimate_clothing_socks_2.png	118	inanimate	clothing	socks	2	0	4	stars	3	correct	1.40769829040801
170641	1	stim102_inanimate_clothing_gloves_2.png	102	inanimate	clothing	gloves	2	0	4	stars	3	correct	1.40769829040801
170841	1	stim158_inanimate_furniture_table_2.png	158	inanimate	furniture	table	2	0	4	stars	3	correct	1.40769829040801
171041	1	stim004_animate_aquatic_crab_4.png	4	animate	aquatic	crab	4	0	4	stars	3	correct	1.40769829040801
171241	1	stim092_animate_mammal_kangaroo_4.png	92	animate	mammal	kangaroo	4	0	4	stars	3	correct	1.40769829040801
171441	1	stim066_animate_insect_bug_2.png	66	animate	insect	bug	2	0	4	stars	3	correct	1.40769829040801
171641	1	stim162_inanimate_plants_bush_2.png	162	inanimate	plants	bush	2	0	4	stars	3	correct	1.40769829040801
171841	1	stim100_animate_mammal_rhino_4.png	100	animate	mammal	rhino	4	0	4	stars	3	correct	1.40769829040801
172041	1	stim020_animate_aquatic_shrimp_4.png	20	animate	aquatic	shrimp	4	0	4	stars	3	correct	1.40769829040801
172241	1	stim099_animate_mammal_rhino_3.png	99	animate	mammal	rhino	3	0	4	stars	3	correct	1.40769829040801
172441	1	stim019_animate_aquatic_shrimp_3.png	19	animate	aquatic	shrimp	3	0	4	stars	3	correct	1.40769829040801
172641	1	stim160_inanimate_furniture_table_4.png	160	inanimate	furniture	table	4	0	4	stars	3	correct	1.40769829040801
172841	1	stim018_animate_aquatic_shrimp_2.png	18	animate	aquatic	shrimp	2	0	4	stars	3	correct	1.40769829040801
173041	1	stim009_animate_aquatic_seahorse_1.png	9	animate	aquatic	seahorse	1	0	4	stars	3	correct	1.40769829040801
173241	1	stim051_animate_human_clown_3.png	51	animate	human	clown	3	0	4	stars	3	correct	1.40769829040801
173441	1	stim080_animate_insect_grasshopper_4.png	80	animate	insect	grasshopper	4	0	4	stars	3	correct	1.40769829040801
173641	1	stim152_inanimate_furniture_closet_4.png	152	inanimate	furniture	closet	4	0	4	stars	3	correct	1.40769829040801
173841	1	stim161_inanimate_plants_bush_1.png	161	inanimate	plants	bush	1	0	4	stars	3	correct	1.40769829040801
174041	1	stim026_animate_bird_duck_2.png	26	animate	bird	duck	2	0	4	stars	3	correct	1.40769829040801
174241	1	stim073_animate_insect_dragonfly_1.png	73	animate	insect	dragonfly	1	0	4	stars	3	correct	1.40769829040801
174441	1	stim148_inanimate_furniture_chair_4.png	148	inanimate	furniture	chair	4	0	4	stars	3	correct	1.40769829040801
174641	1	stim180_inanimate_plants_tulip_4.png	180	inanimate	plants	tulip	4	0	4	stars	3	correct	1.40769829040801
174841	1	stim184_inanimate_tools_broom_4.png	184	inanimate	tools	broom	4	0	4	stars	3	correct	1.40769829040801
175041	1	stim131_inanimate_fruits_grape_3.png	131	inanimate	fruits	grape	3	0	4	stars	3	correct	1.40769829040801
175241	1	stim084_animate_mammal_cow_4.png	84	animate	mammal	cow	4	0	4	stars	3	correct	1.40769829040801
175441	1	stim194_inanimate_tools_scissors_2.png	194	inanimate	tools	scissors	2	0	4	stars	3	correct	1.40769829040801
175641	1	stim032_animate_bird_parrot_4.png	32	animate	bird	parrot	4	0	4	stars	3	correct	1.40769829040801
175841	1	stim031_animate_bird_parrot_3.png	31	animate	bird	parrot	3	0	4	stars	3	correct	1.40769829040801
176041	1	stim104_inanimate_clothing_gloves_4.png	104	inanimate	clothing	gloves	4	0	4	stars	3	correct	1.40769829040801
176241	1	stim110_inanimate_clothing_jeans_2.png	110	inanimate	clothing	jeans	2	0	4	stars	3	correct	1.40769829040801
176441	1	stim037_animate_bird_penguin_1.png	37	animate	bird	penguin	1	0	4	stars	3	correct	1.40769829040801
176641	1	stim107_inanimate_clothing_hat_3.png	107	inanimate	clothing	hat	3	0	4	stars	3	correct	1.40769829040801
176841	1	stim002_animate_aquatic_crab_2.png	2	animate	aquatic	crab	2	0	4	stars	3	correct	1.40769829040801
177041	1	stim017_animate_aquatic_shrimp_1.png	17	animate	aquatic	shrimp	1	0	4	stars	3	correct	1.40769829040801
177241	1	stim139_inanimate_fruits_strawberry_3.png	139	inanimate	fruits	strawberry	3	0	4	stars	3	correct	1.40769829040801
177441	1	stim088_animate_mammal_giraffe_4.png	88	animate	mammal	giraffe	4	0	4	stars	3	correct	1.40769829040801
177641	1	stim069_animate_insect_butterfly_1.png	69	animate	insect	butterfly	1	0	4	stars	3	correct	1.40769829040801
177841	1	stim089_animate_mammal_kangaroo_1.png	89	animate	mammal	kangaroo	1	0	4	stars	3	correct	1.40769829040801
178041	1	stim023_animate_bird_chicken_3.png	23	animate	bird	chicken	3	0	4	stars	3	correct	1.40769829040801
178241	1	stim094_animate_mammal_monkey_2.png	94	animate	mammal	monkey	2	0	4	stars	3	correct	1.40769829040801
178441	1	stim183_inanimate_tools_broom_3.png	183	inanimate	tools	broom	3	0	4	stars	3	correct	1.40769829040801
178641	1	stim175_inanimate_plants_tree_3.png	175	inanimate	plants	tree	3	0	4	stars	3	correct	1.40769829040801
178841	1	stim068_animate_insect_bug_4.png	68	animate	insect	bug	4	0	4	stars	3	correct	1.40769829040801
179041	1	stim142_inanimate_furniture_bed_2.png	142	inanimate	furniture	bed	2	0	4	stars	3	correct	1.40769829040801
179241	1	stim015_animate_aquatic_shark_3.png	15	animate	aquatic	shark	3	0	4	stars	3	correct	1.40769829040801
179441	1	stim156_inanimate_furniture_sofa_4.png	156	inanimate	furniture	sofa	4	0	4	stars	3	correct	1.40769829040801
179641	1	stim166_inanimate_plants_cactus_2.png	166	inanimate	plants	cactus	2	0	4	stars	3	correct	1.40769829040801
179841	1	stim193_inanimate_tools_scissors_1.png	193	inanimate	tools	scissors	1	0	4	stars	3	correct	1.40769829040801
180041	1	stim046_animate_human_child_2.png	46	animate	human	child	2	0	4	stars	3	correct	1.40769829040801
180241	1	stim138_inanimate_fruits_strawberry_2.png	138	inanimate	fruits	strawberry	2	0	4	stars	3	correct	1.40769829040801
180441	1	stim212_targets_shapes_star_4.png	212	targets	shapes	star	4	1	4	stars	3	correct	1.40769829040801
180641	1	stim140_inanimate_fruits_strawberry_4.png	140	inanimate	fruits	strawberry	4	0	4	stars	3	correct	1.40769829040801
180841	1	stim164_inanimate_plants_bush_4.png	164	inanimate	plants	bush	4	0	4	stars	3	correct	1.40769829040801
181041	1	stim117_inanimate_clothing_socks_1.png	117	inanimate	clothing	socks	1	0	4	stars	3	correct	1.40769829040801
181241	1	stim097_animate_mammal_rhino_1.png	97	animate	mammal	rhino	1	0	4	stars	3	correct	1.40769829040801
181441	1	stim127_inanimate_fruits_banana_3.png	127	inanimate	fruits	banana	3	0	4	stars	3	correct	1.40769829040801
181641	1	stim024_animate_bird_chicken_4.png	24	animate	bird	chicken	4	0	4	stars	3	correct	1.40769829040801
181841	1	stim151_inanimate_furniture_closet_3.png	151	inanimate	furniture	closet	3	0	4	stars	3	correct	1.40769829040801
182041	1	stim028_animate_bird_duck_4.png	28	animate	bird	duck	4	0	4	stars	3	correct	1.40769829040801
182241	1	stim071_animate_insect_butterfly_3.png	71	animate	insect	butterfly	3	0	4	stars	3	correct	1.40769829040801
182441	1	stim188_inanimate_tools_hammer_4.png	188	inanimate	tools	hammer	4	0	4	stars	3	correct	1.40769829040801
182641	1	stim126_inanimate_fruits_banana_2.png	126	inanimate	fruits	banana	2	0	4	stars	3	correct	1.40769829040801
182841	1	stim144_inanimate_furniture_bed_4.png	144	inanimate	furniture	bed	4	0	4	stars	3	correct	1.40769829040801
183041	1	stim105_inanimate_clothing_hat_1.png	105	inanimate	clothing	hat	1	0	4	stars	3	correct	1.40769829040801
183241	1	stim048_animate_human_child_4.png	48	animate	human	child	4	0	4	stars	3	correct	1.40769829040801
183441	1	stim136_inanimate_fruits_pineapple_4.png	136	inanimate	fruits	pineapple	4	0	4	stars	3	correct	1.40769829040801
183641	1	stim065_animate_insect_bug_1.png	65	animate	insect	bug	1	0	4	stars	3	correct	1.40769829040801
183841	1	stim135_inanimate_fruits_pineapple_3.png	135	inanimate	fruits	pineapple	3	0	4	stars	3	correct	1.40769829040801
184041	1	stim038_animate_bird_penguin_2.png	38	animate	bird	penguin	2	0	4	stars	3	correct	1.40769829040801
184241	1	stim111_inanimate_clothing_jeans_3.png	111	inanimate	clothing	jeans	3	0	4	stars	3	correct	1.40769829040801
184441	1	stim134_inanimate_fruits_pineapple_2.png	134	inanimate	fruits	pineapple	2	0	4	stars	3	correct	1.40769829040801
184641	1	stim154_inanimate_furniture_sofa_2.png	154	inanimate	furniture	sofa	2	0	4	stars	3	correct	1.40769829040801
184841	1	stim034_animate_bird_peacock_2.png	34	animate	bird	peacock	2	0	4	stars	3	correct	1.40769829040801
185041	1	stim053_animate_human_faces_1.png	53	animate	human	faces	1	0	4	stars	3	correct	1.40769829040801
185241	1	stim195_inanimate_tools_scissors_3.png	195	inanimate	tools	scissors	3	0	4	stars	3	correct	1.40769829040801
185441	1	stim124_inanimate_fruits_apple_4.png	124	inanimate	fruits	apple	4	0	4	stars	3	correct	1.40769829040801
185641	1	stim155_inanimate_furniture_sofa_3.png	155	inanimate	furniture	sofa	3	0	4	stars	3	correct	1.40769829040801
185841	1	stim011_animate_aquatic_seahorse_3.png	11	animate	aquatic	seahorse	3	0	4	stars	3	correct	1.40769829040801
186041	1	stim103_inanimate_clothing_gloves_3.png	103	inanimate	clothing	gloves	3	0	4	stars	3	correct	1.40769829040801
186241	1	stim006_animate_aquatic_fish_2.png	6	animate	aquatic	fish	2	0	4	stars	3	correct	1.40769829040801
186441	1	stim214_targets_shapes_star_2.png	214	targets	shapes	star	2	1	4	stars	3	correct	1.40769829040801
186641	1	stim090_animate_mammal_kangaroo_2.png	90	animate	mammal	kangaroo	2	0	4	stars	3	correct	1.40769829040801
186841	1	stim035_animate_bird_peacock_3.png	35	animate	bird	peacock	3	0	4	stars	3	correct	1.40769829040801
187041	1	stim157_inanimate_furniture_table_1.png	157	inanimate	furniture	table	1	0	4	stars	3	correct	1.40769829040801
187241	1	stim098_animate_mammal_rhino_2.png	98	animate	mammal	rhino	2	0	4	stars	3	correct	1.40769829040801
187441	1	stim182_inanimate_tools_broom_2.png	182	inanimate	tools	broom	2	0	4	stars	3	correct	1.40769829040801
187641	1	stim082_animate_mammal_cow_2.png	82	animate	mammal	cow	2	0	4	stars	3	correct	1.40769829040801
187841	1	stim185_inanimate_tools_hammer_1.png	185	inanimate	tools	hammer	1	0	4	stars	3	correct	1.40769829040801
188041	1	stim159_inanimate_furniture_table_3.png	159	inanimate	furniture	table	3	0	4	stars	3	correct	1.40769829040801
188241	1	stim108_inanimate_clothing_hat_4.png	108	inanimate	clothing	hat	4	0	4	stars	3	correct	1.40769829040801
188441	1	stim058_animate_human_sports_2.png	58	animate	human	sports	2	0	4	stars	3	correct	1.40769829040801
188641	1	stim172_inanimate_plants_sunflower_4.png	172	inanimate	plants	sunflower	4	0	4	stars	3	correct	1.40769829040801
188841	1	stim063_animate_insect_ant_3.png	63	animate	insect	ant	3	0	4	stars	3	correct	1.40769829040801
189041	1	stim044_animate_human_baby_4.png	44	animate	human	baby	4	0	4	stars	3	correct	1.40769829040801
189241	1	stim101_inanimate_clothing_gloves_1.png	101	inanimate	clothing	gloves	1	0	4	stars	3	correct	1.40769829040801
189441	1	stim121_inanimate_fruits_apple_1.png	121	inanimate	fruits	apple	1	0	4	stars	3	correct	1.40769829040801
189641	1	stim167_inanimate_plants_cactus_3.png	167	inanimate	plants	cactus	3	0	4	stars	3	correct	1.40769829040801
189841	1	stim014_animate_aquatic_shark_2.png	14	animate	aquatic	shark	2	0	4	stars	3	correct	1.40769829040801
190041	1	stim050_animate_human_clown_2.png	50	animate	human	clown	2	0	4	stars	3	correct	1.40769829040801
190241	1	stim027_animate_bird_duck_3.png	27	animate	bird	duck	3	0	4	stars	3	correct	1.40769829040801
190441	1	stim057_animate_human_sports_1.png	57	animate	human	sports	1	0	4	stars	3	correct	1.40769829040801
190641	1	stim036_animate_bird_peacock_4.png	36	animate	bird	peacock	4	0	4	stars	3	correct	1.40769829040801
190841	1	stim021_animate_bird_chicken_1.png	21	animate	bird	chicken	1	0	4	stars	3	correct	1.40769829040801
191041	1	stim133_inanimate_fruits_pineapple_1.png	133	inanimate	fruits	pineapple	1	0	4	stars	3	correct	1.40769829040801
191241	1	stim030_animate_bird_parrot_2.png	30	animate	bird	parrot	2	0	4	stars	3	correct	1.40769829040801
191441	1	stim129_inanimate_fruits_grape_1.png	129	inanimate	fruits	grape	1	0	4	stars	3	correct	1.40769829040801
191641	1	stim106_inanimate_clothing_hat_2.png	106	inanimate	clothing	hat	2	0	4	stars	3	correct	1.40769829040801
191841	1	stim150_inanimate_furniture_closet_2.png	150	inanimate	furniture	closet	2	0	4	stars	3	correct	1.40769829040801
192041	1	stim078_animate_insect_grasshopper_2.png	78	animate	insect	grasshopper	2	0	4	stars	3	correct	1.40769829040801
192241	1	stim163_inanimate_plants_bush_3.png	163	inanimate	plants	bush	3	0	4	stars	3	correct	1.40769829040801
192441	1	stim192_inanimate_tools_pan_4.png	192	inanimate	tools	pan	4	0	4	stars	3	correct	1.40769829040801
192641	1	stim060_animate_human_sports_4.png	60	animate	human	sports	4	0	4	stars	3	correct	1.40769829040801
192841	1	stim109_inanimate_clothing_jeans_1.png	109	inanimate	clothing	jeans	1	0	4	stars	3	correct	1.40769829040801
193041	1	stim077_animate_insect_grasshopper_1.png	77	animate	insect	grasshopper	1	0	4	stars	3	correct	1.40769829040801
193241	1	stim045_animate_human_child_1.png	45	animate	human	child	1	0	4	stars	3	correct	1.40769829040801
193441	1	stim123_inanimate_fruits_apple_3.png	123	inanimate	fruits	apple	3	0	4	stars	3	correct	1.40769829040801
193641	1	stim119_inanimate_clothing_socks_3.png	119	inanimate	clothing	socks	3	0	4	stars	3	correct	1.40769829040801
193841	1	stim052_animate_human_clown_4.png	52	animate	human	clown	4	0	4	stars	3	correct	1.40769829040801
194041	1	stim091_animate_mammal_kangaroo_3.png	91	animate	mammal	kangaroo	3	0	4	stars	3	correct	1.40769829040801
194241	1	stim062_animate_insect_ant_2.png	62	animate	insect	ant	2	0	4	stars	3	correct	1.40769829040801
194441	1	stim165_inanimate_plants_cactus_1.png	165	inanimate	plants	cactus	1	0	4	stars	3	correct	1.40769829040801
194641	1	stim081_animate_mammal_cow_1.png	81	animate	mammal	cow	1	0	4	stars	3	correct	1.40769829040801
194841	1	stim049_animate_human_clown_1.png	49	animate	human	clown	1	0	4	stars	3	correct	1.40769829040801
195041	1	stim173_inanimate_plants_tree_1.png	173	inanimate	plants	tree	1	0	4	stars	3	correct	1.40769829040801
195241	1	stim056_animate_human_faces_4.png	56	animate	human	faces	4	0	4	stars	3	correct	1.40769829040801
195441	1	stim074_animate_insect_dragonfly_2.png	74	animate	insect	dragonfly	2	0	4	stars	3	correct	1.40769829040801
195641	1	stim001_animate_aquatic_crab_1.png	1	animate	aquatic	crab	1	0	4	stars	3	correct	1.40769829040801
195841	1	stim025_animate_bird_duck_1.png	25	animate	bird	duck	1	0	4	stars	3	correct	1.40769829040801
196041	1	stim170_inanimate_plants_sunflower_2.png	170	inanimate	plants	sunflower	2	0	4	stars	3	correct	1.40769829040801
196241	1	stim181_inanimate_tools_broom_1.png	181	inanimate	tools	broom	1	0	4	stars	3	correct	1.40769829040801
196441	1	stim186_inanimate_tools_hammer_2.png	186	inanimate	tools	hammer	2	0	4	stars	3	correct	1.40769829040801
196641	1	stim033_animate_bird_peacock_1.png	33	animate	bird	peacock	1	0	4	stars	3	correct	1.40769829040801
196841	1	stim168_inanimate_plants_cactus_4.png	168	inanimate	plants	cactus	4	0	4	stars	3	correct	1.40769829040801
197041	1	stim189_inanimate_tools_pan_1.png	189	inanimate	tools	pan	1	0	4	stars	3	correct	1.40769829040801
197241	1	stim072_animate_insect_butterfly_4.png	72	animate	insect	butterfly	4	0	4	stars	3	correct	1.40769829040801
197441	1	stim171_inanimate_plants_sunflower_3.png	171	inanimate	plants	sunflower	3	0	4	stars	3	correct	1.40769829040801
197641	1	stim191_inanimate_tools_pan_3.png	191	inanimate	tools	pan	3	0	4	stars	3	correct	1.40769829040801
197841	1	stim061_animate_insect_ant_1.png	61	animate	insect	ant	1	0	4	stars	3	correct	1.40769829040801
198041	1	stim209_targets_shapes_star_1.png	209	targets	shapes	star	1	1	4	stars	3	correct	1.40769829040801
198241	1	stim128_inanimate_fruits_banana_4.png	128	inanimate	fruits	banana	4	0	4	stars	3	correct	1.40769829040801
198441	1	stim116_inanimate_clothing_shirt_4.png	116	inanimate	clothing	shirt	4	0	4	stars	3	correct	1.40769829040801
198641	1	stim141_inanimate_furniture_bed_1.png	141	inanimate	furniture	bed	1	0	4	stars	3	correct	1.40769829040801
198841	1	stim120_inanimate_clothing_socks_4.png	120	inanimate	clothing	socks	4	0	4	stars	3	correct	1.40769829040801
199041	1	stim022_animate_bird_chicken_2.png	22	animate	bird	chicken	2	0	4	stars	3	correct	1.40769829040801
199241	1	stim043_animate_human_baby_3.png	43	animate	human	baby	3	0	4	stars	3	correct	1.40769829040801
199441	1	stim122_inanimate_fruits_apple_2.png	122	inanimate	fruits	apple	2	0	4	stars	3	correct	1.40769829040801
199641	1	stim093_animate_mammal_monkey_1.png	93	animate	mammal	monkey	1	0	4	stars	3	correct	1.40769829040801
199841	1	stim190_inanimate_tools_pan_2.png	190	inanimate	tools	pan	2	0	4	stars	3	correct	1.40769829040801
200041	1	stim153_inanimate_furniture_sofa_1.png	153	inanimate	furniture	sofa	1	0	4	stars	3	correct	1.40769829040801
200241	1	stim003_animate_aquatic_crab_3.png	3	animate	aquatic	crab	3	0	4	stars	3	correct	1.40769829040801
200441	1	stim137_inanimate_fruits_strawberry_1.png	137	inanimate	fruits	strawberry	1	0	4	stars	3	correct	1.40769829040801
200641	1	stim145_inanimate_furniture_chair_1.png	145	inanimate	furniture	chair	1	0	4	stars	3	correct	1.40769829040801
200841	1	stim047_animate_human_child_3.png	47	animate	human	child	3	0	4	stars	3	correct	1.40769829040801
201041	1	stim083_animate_mammal_cow_3.png	83	animate	mammal	cow	3	0	4	stars	3	correct	1.40769829040801
201241	1	stim178_inanimate_plants_tulip_2.png	178	inanimate	plants	tulip	2	0	4	stars	3	correct	1.40769829040801
201441	1	stim197_inanimate_tools_wrench_1.png	197	inanimate	tools	wrench	1	0	4	stars	3	correct	1.40769829040801
201641	1	stim041_animate_human_baby_1.png	41	animate	human	baby	1	0	4	stars	3	correct	1.40769829040801
201841	1	stim087_animate_mammal_giraffe_3.png	87	animate	mammal	giraffe	3	0	4	stars	3	correct	1.40769829040801
202041	1	stim096_animate_mammal_monkey_4.png	96	animate	mammal	monkey	4	0	4	stars	3	correct	1.40769829040801
202241	1	stim007_animate_aquatic_fish_3.png	7	animate	aquatic	fish	3	0	4	stars	3	correct	1.40769829040801
202441	1	stim070_animate_insect_butterfly_2.png	70	animate	insect	butterfly	2	0	4	stars	3	correct	1.40769829040801
202641	1	stim076_animate_insect_dragonfly_4.png	76	animate	insect	dragonfly	4	0	4	stars	3	correct	1.40769829040801
202841	1	stim143_inanimate_furniture_bed_3.png	143	inanimate	furniture	bed	3	0	4	stars	3	correct	1.40769829040801
203041	1	stim187_inanimate_tools_hammer_3.png	187	inanimate	tools	hammer	3	0	4	stars	3	correct	1.40769829040801
203241	1	stim040_animate_bird_penguin_4.png	40	animate	bird	penguin	4	0	4	stars	3	correct	1.40769829040801
203442	1	stim075_animate_insect_dragonfly_3.png	75	animate	insect	dragonfly	3	0	4	stars	3	correct	1.40769829040801
203642	1	stim085_animate_mammal_giraffe_1.png	85	animate	mammal	giraffe	1	0	4	stars	3	correct	1.40769829040801
203842	1	stim013_animate_aquatic_shark_1.png	13	animate	aquatic	shark	1	0	4	stars	3	correct	1.40769829040801
204042	1	stim029_animate_bird_parrot_1.png	29	animate	bird	parrot	1	0	4	stars	3	correct	1.40769829040801
204242	1	stim177_inanimate_plants_tulip_1.png	177	inanimate	plants	tulip	1	0	4	stars	3	correct	1.40769829040801
204442	1	stim067_animate_insect_bug_3.png	67	animate	insect	bug	3	0	4	stars	3	correct	1.40769829040801
204642	1	stim176_inanimate_plants_tree_4.png	176	inanimate	plants	tree	4	0	4	stars	3	correct	1.40769829040801
204842	1	stim196_inanimate_tools_scissors_4.png	196	inanimate	tools	scissors	4	0	4	stars	3	correct	1.40769829040801
205042	1	stim149_inanimate_furniture_closet_1.png	149	inanimate	furniture	closet	1	0	4	stars	3	correct	1.40769829040801
205242	1	stim005_animate_aquatic_fish_1.png	5	animate	aquatic	fish	1	0	4	stars	3	correct	1.40769829040801
205442	1	stim112_inanimate_clothing_jeans_4.png	112	inanimate	clothing	jeans	4	0	4	stars	3	correct	1.40769829040801
205642	1	stim054_animate_human_faces_2.png	54	animate	human	faces	2	0	4	stars	3	correct	1.40769829040801
205842	1	stim199_inanimate_tools_wrench_3.png	199	inanimate	tools	wrench	3	0	4	stars	3	correct	1.40769829040801
206042	1	stim079_animate_insect_grasshopper_3.png	79	animate	insect	grasshopper	3	0	4	stars	3	correct	1.40769829040801
206242	1	stim012_animate_aquatic_seahorse_4.png	12	animate	aquatic	seahorse	4	0	4	stars	3	correct	1.40769829040801
206442	1	stim114_inanimate_clothing_shirt_2.png	114	inanimate	clothing	shirt	2	0	4	stars	3	correct	1.40769829040801
206642	1	stim146_inanimate_furniture_chair_2.png	146	inanimate	furniture	chair	2	0	4	stars	3	correct	1.40769829040801
206842	1	stim055_animate_human_faces_3.png	55	animate	human	faces	3	0	4	stars	3	correct	1.40769829040801
207042	1	stim059_animate_human_sports_3.png	59	animate	human	sports	3	0	4	stars	3	correct	1.40769829040801
207242	1	stim010_animate_aquatic_seahorse_2.png	10	animate	aquatic	seahorse	2	0	4	stars	3	correct	1.40769829040801
207442	1	stim039_animate_bird_penguin_3.png	39	animate	bird	penguin	3	0	4	stars	3	correct	1.40769829040801
207642	1	stim095_animate_mammal_monkey_3.png	95	animate	mammal	monkey	3	0	4	stars	3	correct	1.40769829040801
207842	1	stim016_animate_aquatic_shark_4.png	16	animate	aquatic	shark	4	0	4	stars	3	correct	1.40769829040801
208042	1	stim008_animate_aquatic_fish_4.png	8	animate	aquatic	fish	4	0	4	stars	3	correct	1.40769829040801
208242	1	stim169_inanimate_plants_sunflower_1.png	169	inanimate	plants	sunflower	1	0	4	stars	3	correct	1.40769829040801
208442	1	stim113_inanimate_clothing_shirt_1.png	113	inanimate	clothing	shirt	1	0	4	stars	3	correct	1.40769829040801
208642	1	stim174_inanimate_plants_tree_2.png	174	inanimate	plants	tree	2	0	4	stars	3	correct	1.40769829040801
208842	1	stim130_inanimate_fruits_grape_2.png	130	inanimate	fruits	grape	2	0	4	stars	3	correct	1.40769829040801
213292	1	stim159_inanimate_furniture_table_3.png	159	inanimate	furniture	table	3	0	5	boats	1	correct	1.03908586000034
213492	1	stim096_animate_mammal_monkey_4.png	96	animate	mammal	monkey	4	0	5	boats	1	correct	1.03908586000034
213692	1	stim124_inanimate_fruits_apple_4.png	124	inanimate	fruits	apple	4	0	5	boats	1	correct	1.03908586000034
213892	1	stim136_inanimate_fruits_pineapple_4.png	136	inanimate	fruits	pineapple	4	0	5	boats	1	correct	1.03908586000034
214092	1	stim175_inanimate_plants_tree_3.png	175	inanimate	plants	tree	3	0	5	boats	1	correct	1.03908586000034
214292	1	stim043_animate_human_baby_3.png	43	animate	human	baby	3	0	5	boats	1	correct	1.03908586000034
214492	1	stim003_animate_aquatic_crab_3.png	3	animate	aquatic	crab	3	0	5	boats	1	correct	1.03908586000034
214692	1	stim084_animate_mammal_cow_4.png	84	animate	mammal	cow	4	0	5	boats	1	correct	1.03908586000034
214892	1	stim129_inanimate_fruits_grape_1.png	129	inanimate	fruits	grape	1	0	5	boats	1	correct	1.03908586000034
215092	1	stim087_animate_mammal_giraffe_3.png	87	animate	mammal	giraffe	3	0	5	boats	1	correct	1.03908586000034
215292	1	stim099_animate_mammal_rhino_3.png	99	animate	mammal	rhino	3	0	5	boats	1	correct	1.03908586000034
215492	1	stim004_animate_aquatic_crab_4.png	4	animate	aquatic	crab	4	0	5	boats	1	correct	1.03908586000034
215692	1	stim104_inanimate_clothing_gloves_4.png	104	inanimate	clothing	gloves	4	0	5	boats	1	correct	1.03908586000034
215892	1	stim078_animate_insect_grasshopper_2.png	78	animate	insect	grasshopper	2	0	5	boats	1	correct	1.03908586000034
216092	1	stim046_animate_human_child_2.png	46	animate	human	child	2	0	5	boats	1	correct	1.03908586000034
216292	1	stim026_animate_bird_duck_2.png	26	animate	bird	duck	2	0	5	boats	1	correct	1.03908586000034
216492	1	stim152_inanimate_furniture_closet_4.png	152	inanimate	furniture	closet	4	0	5	boats	1	correct	1.03908586000034
216692	1	stim186_inanimate_tools_hammer_2.png	186	inanimate	tools	hammer	2	0	5	boats	1	correct	1.03908586000034
216892	1	stim128_inanimate_fruits_banana_4.png	128	inanimate	fruits	banana	4	0	5	boats	1	correct	1.03908586000034
217092	1	stim178_inanimate_plants_tulip_2.png	178	inanimate	plants	tulip	2	0	5	boats	1	correct	1.03908586000034
217292	1	stim041_animate_human_baby_1.png	41	animate	human	baby	1	0	5	boats	1	correct	1.03908586000034
217492	1	stim166_inanimate_plants_cactus_2.png	166	inanimate	plants	cactus	2	0	5	boats	1	correct	1.03908586000034
217692	1	stim013_animate_aquatic_shark_1.png	13	animate	aquatic	shark	1	0	5	boats	1	correct	1.03908586000034
217892	1	stim069_animate_insect_butterfly_1.png	69	animate	insect	butterfly	1	0	5	boats	1	correct	1.03908586000034
218092	1	stim131_inanimate_fruits_grape_3.png	131	inanimate	fruits	grape	3	0	5	boats	1	correct	1.03908586000034
218292	1	stim063_animate_insect_ant_3.png	63	animate	insect	ant	3	0	5	boats	1	correct	1.03908586000034
218492	1	stim106_inanimate_clothing_hat_2.png	106	inanimate	clothing	hat	2	0	5	boats	1	correct	1.03908586000034
218692	1	stim045_animate_human_child_1.png	45	animate	human	child	1	0	5	boats	1	correct	1.03908586000034
218892	1	stim054_animate_human_faces_2.png	54	animate	human	faces	2	0	5	boats	1	correct	1.03908586000034
219092	1	stim173_inanimate_plants_tree_1.png	173	inanimate	plants	tree	1	0	5	boats	1	correct	1.03908586000034
219292	1	stim154_inanimate_furniture_sofa_2.png	154	inanimate	furniture	sofa	2	0	5	boats	1	correct	1.03908586000034
219492	1	stim120_inanimate_clothing_socks_4.png	120	inanimate	clothing	socks	4	0	5	boats	1	correct	1.03908586000034
219692	1	stim085_animate_mammal_giraffe_1.png	85	animate	mammal	giraffe	1	0	5	boats	1	correct	1.03908586000034
219892	1	stim150_inanimate_furniture_closet_2.png	150	inanimate	furniture	closet	2	0	5	boats	1	correct	1.03908586000034
220092	1	stim029_animate_bird_parrot_1.png	29	animate	bird	parrot	1	0	5	boats	1	correct	1.03908586000034
220292	1	stim048_animate_human_child_4.png	48	animate	human	child	4	0	5	boats	1	correct	1.03908586000034
220492	1	stim059_animate_human_sports_3.png	59	animate	human	sports	3	0	5	boats	1	correct	1.03908586000034
220692	1	stim060_animate_human_sports_4.png	60	animate	human	sports	4	0	5	boats	1	correct	1.03908586000034
220892	1	stim196_inanimate_tools_scissors_4.png	196	inanimate	tools	scissors	4	0	5	boats	1	correct	1.03908586000034
221092	1	stim100_animate_mammal_rhino_4.png	100	animate	mammal	rhino	4	0	5	boats	1	correct	1.03908586000034
221292	1	stim019_animate_aquatic_shrimp_3.png	19	animate	aquatic	shrimp	3	0	5	boats	1	correct	1.03908586000034
221492	1	stim014_animate_aquatic_shark_2.png	14	animate	aquatic	shark	2	0	5	boats	1	correct	1.03908586000034
221692	1	stim155_inanimate_furniture_sofa_3.png	155	inanimate	furniture	sofa	3	0	5	boats	1	correct	1.03908586000034
221892	1	stim028_animate_bird_duck_4.png	28	animate	bird	duck	4	0	5	boats	1	correct	1.03908586000034
222092	1	stim162_inanimate_plants_bush_2.png	162	inanimate	plants	bush	2	0	5	boats	1	correct	1.03908586000034
222292	1	stim068_animate_insect_bug_4.png	68	animate	insect	bug	4	0	5	boats	1	correct	1.03908586000034
222492	1	stim030_animate_bird_parrot_2.png	30	animate	bird	parrot	2	0	5	boats	1	correct	1.03908586000034
222692	1	stim187_inanimate_tools_hammer_3.png	187	inanimate	tools	hammer	3	0	5	boats	1	correct	1.03908586000034
222892	1	stim005_animate_aquatic_fish_1.png	5	animate	aquatic	fish	1	0	5	boats	1	correct	1.03908586000034
223092	1	stim125_inanimate_fruits_banana_1.png	125	inanimate	fruits	banana	1	0	5	boats	1	correct	1.03908586000034
223292	1	stim062_animate_insect_ant_2.png	62	animate	insect	ant	2	0	5	boats	1	correct	1.03908586000034
223492	1	stim160_inanimate_furniture_table_4.png	160	inanimate	furniture	table	4	0	5	boats	1	correct	1.03908586000034
223692	1	stim143_inanimate_furniture_bed_3.png	143	inanimate	furniture	bed	3	0	5	boats	1	correct	1.03908586000034
223892	1	stim132_inanimate_fruits_grape_4.png	132	inanimate	fruits	grape	4	0	5	boats	1	correct	1.03908586000034
224092	1	stim052_animate_human_clown_4.png	52	animate	human	clown	4	0	5	boats	1	correct	1.03908586000034
224292	1	stim144_inanimate_furniture_bed_4.png	144	inanimate	furniture	bed	4	0	5	boats	1	correct	1.03908586000034
224492	1	stim146_inanimate_furniture_chair_2.png	146	inanimate	furniture	chair	2	0	5	boats	1	correct	1.03908586000034
224692	1	stim103_inanimate_clothing_gloves_3.png	103	inanimate	clothing	gloves	3	0	5	boats	1	correct	1.03908586000034
224892	1	stim086_animate_mammal_giraffe_2.png	86	animate	mammal	giraffe	2	0	5	boats	1	correct	1.03908586000034
225092	1	stim109_inanimate_clothing_jeans_1.png	109	inanimate	clothing	jeans	1	0	5	boats	1	correct	1.03908586000034
225292	1	stim067_animate_insect_bug_3.png	67	animate	insect	bug	3	0	5	boats	1	correct	1.03908586000034
225492	1	stim083_animate_mammal_cow_3.png	83	animate	mammal	cow	3	0	5	boats	1	correct	1.03908586000034
225692	1	stim112_inanimate_clothing_jeans_4.png	112	inanimate	clothing	jeans	4	0	5	boats	1	correct	1.03908586000034
225892	1	stim033_animate_bird_peacock_1.png	33	animate	bird	peacock	1	0	5	boats	1	correct	1.03908586000034
226092	1	stim035_animate_bird_peacock_3.png	35	animate	bird	peacock	3	0	5	boats	1	correct	1.03908586000034
226292	1	stim140_inanimate_fruits_strawberry_4.png	140	inanimate	fruits	strawberry	4	0	5	boats	1	correct	1.03908586000034
226492	1	stim039_animate_bird_penguin_3.png	39	animate	bird	penguin	3	0	5	boats	1	correct	1.03908586000034
226692	1	stim182_inanimate_tools_broom_2.png	182	inanimate	tools	broom	2	0	5	boats	1	correct	1.03908586000034
226892	1	stim190_inanimate_tools_pan_2.png	190	inanimate	tools	pan	2	0	5	boats	1	correct	1.03908586000034
227092	1	stim001_animate_aquatic_crab_1.png	1	animate	aquatic	crab	1	0	5	boats	1	correct	1.03908586000034
227292	1	stim122_inanimate_fruits_apple_2.png	122	inanimate	fruits	apple	2	0	5	boats	1	correct	1.03908586000034
227492	1	stim123_inanimate_fruits_apple_3.png	123	inanimate	fruits	apple	3	0	5	boats	1	correct	1.03908586000034
227692	1	stim027_animate_bird_duck_3.png	27	animate	bird	duck	3	0	5	boats	1	correct	1.03908586000034
227892	1	stim114_inanimate_clothing_shirt_2.png	114	inanimate	clothing	shirt	2	0	5	boats	1	correct	1.03908586000034
228092	1	stim174_inanimate_plants_tree_2.png	174	inanimate	plants	tree	2	0	5	boats	1	correct	1.03908586000034
228292	1	stim185_inanimate_tools_hammer_1.png	185	inanimate	tools	hammer	1	0	5	boats	1	correct	1.03908586000034
228492	1	stim089_animate_mammal_kangaroo_1.png	89	animate	mammal	kangaroo	1	0	5	boats	1	correct	1.03908586000034
228692	1	stim141_inanimate_furniture_bed_1.png	141	inanimate	furniture	bed	1	0	5	boats	1	correct	1.03908586000034
228892	1	stim126_inanimate_fruits_banana_2.png	126	inanimate	fruits	banana	2	0	5	boats	1	correct	1.03908586000034
229092	1	stim180_inanimate_plants_tulip_4.png	180	inanimate	plants	tulip	4	0	5	boats	1	correct	1.03908586000034
229292	1	stim149_inanimate_furniture_closet_1.png	149	inanimate	furniture	closet	1	0	5	boats	1	correct	1.03908586000034
229492	1	stim072_animate_insect_butterfly_4.png	72	animate	insect	butterfly	4	0	5	boats	1	correct	1.03908586000034
229692	1	stim169_inanimate_plants_sunflower_1.png	169	inanimate	plants	sunflower	1	0	5	boats	1	correct	1.03908586000034
229892	1	stim065_animate_insect_bug_1.png	65	animate	insect	bug	1	0	5	boats	1	correct	1.03908586000034
230092	1	stim163_inanimate_plants_bush_3.png	163	inanimate	plants	bush	3	0	5	boats	1	correct	1.03908586000034
230292	1	stim135_inanimate_fruits_pineapple_3.png	135	inanimate	fruits	pineapple	3	0	5	boats	1	correct	1.03908586000034
