onset	duration	stimulusname	stimulusnumber	levelA	levelB	levelC	withinexemplarnumber	istarget	trialnumber	condition	response	correct	rt
25279	1	stim153_inanimate_furniture_sofa_1.png	153	inanimate	furniture	sofa	1	0	1	stars	1	correct	0.915482645621523
25329	1	stim155_inanimate_furniture_sofa_3.png	155	inanimate	furniture	sofa	3	0	1	stars	1	correct	0.915482645621523
25379	1	stim066_animate_insect_bug_2.png	66	animate	insect	bug	2	0	1	stars	1	correct	0.915482645621523
25429	1	stim151_inanimate_furniture_closet_3.png	151	inanimate	furniture	closet	3	0	1	stars	1	correct	0.915482645621523
25479	1	stim134_inanimate_fruits_pineapple_2.png	134	inanimate	fruits	pineapple	2	0	1	stars	1	correct	0.915482645621523
25529	1	stim096_animate_mammal_monkey_4.png	96	animate	mammal	monkey	4	0	1	stars	1	correct	0.915482645621523
25579	1	stim006_animate_aquatic_fish_2.png	6	animate	aquatic	fish	2	0	1	stars	1	correct	0.915482645621523
25629	1	stim168_inanimate_plants_cactus_4.png	168	inanimate	plants	cactus	4	0	1	stars	1	correct	0.915482645621523
25679	1	stim112_inanimate_clothing_jeans_4.png	112	inanimate	clothing	jeans	4	0	1	stars	1	correct	0.915482645621523
25729	1	stim177_inanimate_plants_tulip_1.png	177	inanimate	plants	tulip	1	0	1	stars	1	correct	0.915482645621523
25779	1	stim079_animate_insect_grasshopper_3.png	79	animate	insect	grasshopper	3	0	1	stars	1	correct	0.915482645621523
25829	1	stim199_inanimate_tools_wrench_3.png	199	inanimate	tools	wrench	3	0	1	stars	1	correct	0.915482645621523
25879	1	stim163_inanimate_plants_bush_3.png	163	inanimate	plants	bush	3	0	1	stars	1	correct	0.915482645621523
25929	1	stim067_animate_insect_bug_3.png	67	animate	insect	bug	3	0	1	stars	1	correct	0.915482645621523
25979	1	stim193_inanimate_tools_scissors_1.png	193	inanimate	tools	scissors	1	0	1	stars	1	correct	0.915482645621523
26029	1	stim145_inanimate_furniture_chair_1.png	145	inanimate	furniture	chair	1	0	1	stars	1	correct	0.915482645621523
26079	1	stim124_inanimate_fruits_apple_4.png	124	inanimate	fruits	apple	4	0	1	stars	1	correct	0.915482645621523
26129	1	stim148_inanimate_furniture_chair_4.png	148	inanimate	furniture	chair	4	0	1	stars	1	correct	0.915482645621523
26179	1	stim114_inanimate_clothing_shirt_2.png	114	inanimate	clothing	shirt	2	0	1	stars	1	correct	0.915482645621523
26229	1	stim128_inanimate_fruits_banana_4.png	128	inanimate	fruits	banana	4	0	1	stars	1	correct	0.915482645621523
26279	1	stim182_inanimate_tools_broom_2.png	182	inanimate	tools	broom	2	0	1	stars	1	correct	0.915482645621523
26329	1	stim043_animate_human_baby_3.png	43	animate	human	baby	3	0	1	stars	1	correct	0.915482645621523
26379	1	stim123_inanimate_fruits_apple_3.png	123	inanimate	fruits	apple	3	0	1	stars	1	correct	0.915482645621523
26429	1	stim184_inanimate_tools_broom_4.png	184	inanimate	tools	broom	4	0	1	stars	1	correct	0.915482645621523
26479	1	stim062_animate_insect_ant_2.png	62	animate	insect	ant	2	0	1	stars	1	correct	0.915482645621523
26529	1	stim187_inanimate_tools_hammer_3.png	187	inanimate	tools	hammer	3	0	1	stars	1	correct	0.915482645621523
26579	1	stim111_inanimate_clothing_jeans_3.png	111	inanimate	clothing	jeans	3	0	1	stars	1	correct	0.915482645621523
26629	1	stim137_inanimate_fruits_strawberry_1.png	137	inanimate	fruits	strawberry	1	0	1	stars	1	correct	0.915482645621523
26679	1	stim149_inanimate_furniture_closet_1.png	149	inanimate	furniture	closet	1	0	1	stars	1	correct	0.915482645621523
26729	1	stim090_animate_mammal_kangaroo_2.png	90	animate	mammal	kangaroo	2	0	1	stars	1	correct	0.915482645621523
26779	1	stim139_inanimate_fruits_strawberry_3.png	139	inanimate	fruits	strawberry	3	0	1	stars	1	correct	0.915482645621523
26829	1	stim031_animate_bird_parrot_3.png	31	animate	bird	parrot	3	0	1	stars	1	correct	0.915482645621523
26879	1	stim089_animate_mammal_kangaroo_1.png	89	animate	mammal	kangaroo	1	0	1	stars	1	correct	0.915482645621523
26929	1	stim037_animate_bird_penguin_1.png	37	animate	bird	penguin	1	0	1	stars	1	correct	0.915482645621523
26979	1	stim002_animate_aquatic_crab_2.png	2	animate	aquatic	crab	2	0	1	stars	1	correct	0.915482645621523
27029	1	stim097_animate_mammal_rhino_1.png	97	animate	mammal	rhino	1	0	1	stars	1	correct	0.915482645621523
27079	1	stim069_animate_insect_butterfly_1.png	69	animate	insect	butterfly	1	0	1	stars	1	correct	0.915482645621523
27129	1	stim073_animate_insect_dragonfly_1.png	73	animate	insect	dragonfly	1	0	1	stars	1	correct	0.915482645621523
27179	1	stim007_animate_aquatic_fish_3.png	7	animate	aquatic	fish	3	0	1	stars	1	correct	0.915482645621523
27229	1	stim102_inanimate_clothing_gloves_2.png	102	inanimate	clothing	gloves	2	0	1	stars	1	correct	0.915482645621523
27279	1	stim169_inanimate_plants_sunflower_1.png	169	inanimate	plants	sunflower	1	0	1	stars	1	correct	0.915482645621523
27329	1	stim057_animate_human_sports_1.png	57	animate	human	sports	1	0	1	stars	1	correct	0.915482645621523
27379	1	stim143_inanimate_furniture_bed_3.png	143	inanimate	furniture	bed	3	0	1	stars	1	correct	0.915482645621523
27429	1	stim179_inanimate_plants_tulip_3.png	179	inanimate	plants	tulip	3	0	1	stars	1	correct	0.915482645621523
27479	1	stim167_inanimate_plants_cactus_3.png	167	inanimate	plants	cactus	3	0	1	stars	1	correct	0.915482645621523
27529	1	stim064_animate_insect_ant_4.png	64	animate	insect	ant	4	0	1	stars	1	correct	0.915482645621523
27579	1	stim108_inanimate_clothing_hat_4.png	108	inanimate	clothing	hat	4	0	1	stars	1	correct	0.915482645621523
27629	1	stim133_inanimate_fruits_pineapple_1.png	133	inanimate	fruits	pineapple	1	0	1	stars	1	correct	0.915482645621523
27679	1	stim161_inanimate_plants_bush_1.png	161	inanimate	plants	bush	1	0	1	stars	1	correct	0.915482645621523
27729	1	stim141_inanimate_furniture_bed_1.png	141	inanimate	furniture	bed	1	0	1	stars	1	correct	0.915482645621523
27779	1	stim024_animate_bird_chicken_4.png	24	animate	bird	chicken	4	0	1	stars	1	correct	0.915482645621523
27829	1	stim159_inanimate_furniture_table_3.png	159	inanimate	furniture	table	3	0	1	stars	1	correct	0.915482645621523
27879	1	stim010_animate_aquatic_seahorse_2.png	10	animate	aquatic	seahorse	2	0	1	stars	1	correct	0.915482645621523
27929	1	stim055_animate_human_faces_3.png	55	animate	human	faces	3	0	1	stars	1	correct	0.915482645621523
27979	1	stim127_inanimate_fruits_banana_3.png	127	inanimate	fruits	banana	3	0	1	stars	1	correct	0.915482645621523
28029	1	stim173_inanimate_plants_tree_1.png	173	inanimate	plants	tree	1	0	1	stars	1	correct	0.915482645621523
28079	1	stim013_animate_aquatic_shark_1.png	13	animate	aquatic	shark	1	0	1	stars	1	correct	0.915482645621523
28129	1	stim075_animate_insect_dragonfly_3.png	75	animate	insect	dragonfly	3	0	1	stars	1	correct	0.915482645621523
28179	1	stim084_animate_mammal_cow_4.png	84	animate	mammal	cow	4	0	1	stars	1	correct	0.915482645621523
28229	1	stim076_animate_insect_dragonfly_4.png	76	animate	insect	dragonfly	4	0	1	stars	1	correct	0.915482645621523
28279	1	stim078_animate_insect_grasshopper_2.png	78	animate	insect	grasshopper	2	0	1	stars	1	correct	0.915482645621523
28329	1	stim191_inanimate_tools_pan_3.png	191	inanimate	tools	pan	3	0	1	stars	1	correct	0.915482645621523
28379	1	stim130_inanimate_fruits_grape_2.png	130	inanimate	fruits	grape	2	0	1	stars	1	correct	0.915482645621523
28429	1	stim008_animate_aquatic_fish_4.png	8	animate	aquatic	fish	4	0	1	stars	1	correct	0.915482645621523
28479	1	stim185_inanimate_tools_hammer_1.png	185	inanimate	tools	hammer	1	0	1	stars	1	correct	0.915482645621523
28529	1	stim132_inanimate_fruits_grape_4.png	132	inanimate	fruits	grape	4	0	1	stars	1	correct	0.915482645621523
28579	1	stim074_animate_insect_dragonfly_2.png	74	animate	insect	dragonfly	2	0	1	stars	1	correct	0.915482645621523
28629	1	stim118_inanimate_clothing_socks_2.png	118	inanimate	clothing	socks	2	0	1	stars	1	correct	0.915482645621523
28679	1	stim065_animate_insect_bug_1.png	65	animate	insect	bug	1	0	1	stars	1	correct	0.915482645621523
28729	1	stim172_inanimate_plants_sunflower_4.png	172	inanimate	plants	sunflower	4	0	1	stars	1	correct	0.915482645621523
28779	1	stim119_inanimate_clothing_socks_3.png	119	inanimate	clothing	socks	3	0	1	stars	1	correct	0.915482645621523
28829	1	stim190_inanimate_tools_pan_2.png	190	inanimate	tools	pan	2	0	1	stars	1	correct	0.915482645621523
28879	1	stim038_animate_bird_penguin_2.png	38	animate	bird	penguin	2	0	1	stars	1	correct	0.915482645621523
28929	1	stim200_inanimate_tools_wrench_4.png	200	inanimate	tools	wrench	4	0	1	stars	1	correct	0.915482645621523
28979	1	stim054_animate_human_faces_2.png	54	animate	human	faces	2	0	1	stars	1	correct	0.915482645621523
29029	1	stim023_animate_bird_chicken_3.png	23	animate	bird	chicken	3	0	1	stars	1	correct	0.915482645621523
29079	1	stim117_inanimate_clothing_socks_1.png	117	inanimate	clothing	socks	1	0	1	stars	1	correct	0.915482645621523
29129	1	stim101_inanimate_clothing_gloves_1.png	101	inanimate	clothing	gloves	1	0	1	stars	1	correct	0.915482645621523
29179	1	stim019_animate_aquatic_shrimp_3.png	19	animate	aquatic	shrimp	3	0	1	stars	1	correct	0.915482645621523
29229	1	stim082_animate_mammal_cow_2.png	82	animate	mammal	cow	2	0	1	stars	1	correct	0.915482645621523
29279	1	stim150_inanimate_furniture_closet_2.png	150	inanimate	furniture	closet	2	0	1	stars	1	correct	0.915482645621523
29329	1	stim044_animate_human_baby_4.png	44	animate	human	baby	4	0	1	stars	1	correct	0.915482645621523
29379	1	stim197_inanimate_tools_wrench_1.png	197	inanimate	tools	wrench	1	0	1	stars	1	correct	0.915482645621523
29429	1	stim022_animate_bird_chicken_2.png	22	animate	bird	chicken	2	0	1	stars	1	correct	0.915482645621523
29479	1	stim095_animate_mammal_monkey_3.png	95	animate	mammal	monkey	3	0	1	stars	1	correct	0.915482645621523
29529	1	stim029_animate_bird_parrot_1.png	29	animate	bird	parrot	1	0	1	stars	1	correct	0.915482645621523
29579	1	stim100_animate_mammal_rhino_4.png	100	animate	mammal	rhino	4	0	1	stars	1	correct	0.915482645621523
29629	1	stim176_inanimate_plants_tree_4.png	176	inanimate	plants	tree	4	0	1	stars	1	correct	0.915482645621523
29679	1	stim138_inanimate_fruits_strawberry_2.png	138	inanimate	fruits	strawberry	2	0	1	stars	1	correct	0.915482645621523
29729	1	stim216_targets_shapes_star_4.png	216	targets	shapes	star	4	1	1	stars	1	correct	0.915482645621523
29779	1	stim081_animate_mammal_cow_1.png	81	animate	mammal	cow	1	0	1	stars	1	correct	0.915482645621523
29829	1	stim046_animate_human_child_2.png	46	animate	human	child	2	0	1	stars	1	correct	0.915482645621523
29879	1	stim135_inanimate_fruits_pineapple_3.png	135	inanimate	fruits	pineapple	3	0	1	stars	1	correct	0.915482645621523
29929	1	stim107_inanimate_clothing_hat_3.png	107	inanimate	clothing	hat	3	0	1	stars	1	correct	0.915482645621523
29979	1	stim180_inanimate_plants_tulip_4.png	180	inanimate	plants	tulip	4	0	1	stars	1	correct	0.915482645621523
30029	1	stim156_inanimate_furniture_sofa_4.png	156	inanimate	furniture	sofa	4	0	1	stars	1	correct	0.915482645621523
30079	1	stim120_inanimate_clothing_socks_4.png	120	inanimate	clothing	socks	4	0	1	stars	1	correct	0.915482645621523
30129	1	stim015_animate_aquatic_shark_3.png	15	animate	aquatic	shark	3	0	1	stars	1	correct	0.915482645621523
30179	1	stim142_inanimate_furniture_bed_2.png	142	inanimate	furniture	bed	2	0	1	stars	1	correct	0.915482645621523
30229	1	stim144_inanimate_furniture_bed_4.png	144	inanimate	furniture	bed	4	0	1	stars	1	correct	0.915482645621523
30279	1	stim050_animate_human_clown_2.png	50	animate	human	clown	2	0	1	stars	1	correct	0.915482645621523
30329	1	stim088_animate_mammal_giraffe_4.png	88	animate	mammal	giraffe	4	0	1	stars	1	correct	0.915482645621523
30379	1	stim061_animate_insect_ant_1.png	61	animate	insect	ant	1	0	1	stars	1	correct	0.915482645621523
30429	1	stim175_inanimate_plants_tree_3.png	175	inanimate	plants	tree	3	0	1	stars	1	correct	0.915482645621523
30479	1	stim092_animate_mammal_kangaroo_4.png	92	animate	mammal	kangaroo	4	0	1	stars	1	correct	0.915482645621523
30529	1	stim009_animate_aquatic_seahorse_1.png	9	animate	aquatic	seahorse	1	0	1	stars	1	correct	0.915482645621523
30579	1	stim026_animate_bird_duck_2.png	26	animate	bird	duck	2	0	1	stars	1	correct	0.915482645621523
30629	1	stim122_inanimate_fruits_apple_2.png	122	inanimate	fruits	apple	2	0	1	stars	1	correct	0.915482645621523
30679	1	stim189_inanimate_tools_pan_1.png	189	inanimate	tools	pan	1	0	1	stars	1	correct	0.915482645621523
30729	1	stim070_animate_insect_butterfly_2.png	70	animate	insect	butterfly	2	0	1	stars	1	correct	0.915482645621523
30779	1	stim071_animate_insect_butterfly_3.png	71	animate	insect	butterfly	3	0	1	stars	1	correct	0.915482645621523
30829	1	stim053_animate_human_faces_1.png	53	animate	human	faces	1	0	1	stars	1	correct	0.915482645621523
30879	1	stim136_inanimate_fruits_pineapple_4.png	136	inanimate	fruits	pineapple	4	0	1	stars	1	correct	0.915482645621523
30929	1	stim146_inanimate_furniture_chair_2.png	146	inanimate	furniture	chair	2	0	1	stars	1	correct	0.915482645621523
30979	1	stim140_inanimate_fruits_strawberry_4.png	140	inanimate	fruits	strawberry	4	0	1	stars	1	correct	0.915482645621523
31029	1	stim034_animate_bird_peacock_2.png	34	animate	bird	peacock	2	0	1	stars	1	correct	0.915482645621523
31079	1	stim171_inanimate_plants_sunflower_3.png	171	inanimate	plants	sunflower	3	0	1	stars	1	correct	0.915482645621523
31129	1	stim125_inanimate_fruits_banana_1.png	125	inanimate	fruits	banana	1	0	1	stars	1	correct	0.915482645621523
31179	1	stim077_animate_insect_grasshopper_1.png	77	animate	insect	grasshopper	1	0	1	stars	1	correct	0.915482645621523
31229	1	stim004_animate_aquatic_crab_4.png	4	animate	aquatic	crab	4	0	1	stars	1	correct	0.915482645621523
31279	1	stim154_inanimate_furniture_sofa_2.png	154	inanimate	furniture	sofa	2	0	1	stars	1	correct	0.915482645621523
31329	1	stim033_animate_bird_peacock_1.png	33	animate	bird	peacock	1	0	1	stars	1	correct	0.915482645621523
31379	1	stim003_animate_aquatic_crab_3.png	3	animate	aquatic	crab	3	0	1	stars	1	correct	0.915482645621523
31429	1	stim087_animate_mammal_giraffe_3.png	87	animate	mammal	giraffe	3	0	1	stars	1	correct	0.915482645621523
31479	1	stim032_animate_bird_parrot_4.png	32	animate	bird	parrot	4	0	1	stars	1	correct	0.915482645621523
31529	1	stim048_animate_human_child_4.png	48	animate	human	child	4	0	1	stars	1	correct	0.915482645621523
31579	1	stim192_inanimate_tools_pan_4.png	192	inanimate	tools	pan	4	0	1	stars	1	correct	0.915482645621523
31629	1	stim093_animate_mammal_monkey_1.png	93	animate	mammal	monkey	1	0	1	stars	1	correct	0.915482645621523
31679	1	stim021_animate_bird_chicken_1.png	21	animate	bird	chicken	1	0	1	stars	1	correct	0.915482645621523
31729	1	stim164_inanimate_plants_bush_4.png	164	inanimate	plants	bush	4	0	1	stars	1	correct	0.915482645621523
31779	1	stim056_animate_human_faces_4.png	56	animate	human	faces	4	0	1	stars	1	correct	0.915482645621523
31829	1	stim035_animate_bird_peacock_3.png	35	animate	bird	peacock	3	0	1	stars	1	correct	0.915482645621523
31879	1	stim047_animate_human_child_3.png	47	animate	human	child	3	0	1	stars	1	correct	0.915482645621523
31929	1	stim083_animate_mammal_cow_3.png	83	animate	mammal	cow	3	0	1	stars	1	correct	0.915482645621523
31979	1	stim028_animate_bird_duck_4.png	28	animate	bird	duck	4	0	1	stars	1	correct	0.915482645621523
32029	1	stim080_animate_insect_grasshopper_4.png	80	animate	insect	grasshopper	4	0	1	stars	1	correct	0.915482645621523
32079	1	stim106_inanimate_clothing_hat_2.png	106	inanimate	clothing	hat	2	0	1	stars	1	correct	0.915482645621523
32129	1	stim198_inanimate_tools_wrench_2.png	198	inanimate	tools	wrench	2	0	1	stars	1	correct	0.915482645621523
32179	1	stim027_animate_bird_duck_3.png	27	animate	bird	duck	3	0	1	stars	1	correct	0.915482645621523
32229	1	stim109_inanimate_clothing_jeans_1.png	109	inanimate	clothing	jeans	1	0	1	stars	1	correct	0.915482645621523
32279	1	stim091_animate_mammal_kangaroo_3.png	91	animate	mammal	kangaroo	3	0	1	stars	1	correct	0.915482645621523
32329	1	stim105_inanimate_clothing_hat_1.png	105	inanimate	clothing	hat	1	0	1	stars	1	correct	0.915482645621523
32379	1	stim121_inanimate_fruits_apple_1.png	121	inanimate	fruits	apple	1	0	1	stars	1	correct	0.915482645621523
32429	1	stim051_animate_human_clown_3.png	51	animate	human	clown	3	0	1	stars	1	correct	0.915482645621523
32479	1	stim147_inanimate_furniture_chair_3.png	147	inanimate	furniture	chair	3	0	1	stars	1	correct	0.915482645621523
32529	1	stim068_animate_insect_bug_4.png	68	animate	insect	bug	4	0	1	stars	1	correct	0.915482645621523
32579	1	stim042_animate_human_baby_2.png	42	animate	human	baby	2	0	1	stars	1	correct	0.915482645621523
32629	1	stim058_animate_human_sports_2.png	58	animate	human	sports	2	0	1	stars	1	correct	0.915482645621523
32679	1	stim157_inanimate_furniture_table_1.png	157	inanimate	furniture	table	1	0	1	stars	1	correct	0.915482645621523
32729	1	stim166_inanimate_plants_cactus_2.png	166	inanimate	plants	cactus	2	0	1	stars	1	correct	0.915482645621523
32779	1	stim039_animate_bird_penguin_3.png	39	animate	bird	penguin	3	0	1	stars	1	correct	0.915482645621523
32829	1	stim170_inanimate_plants_sunflower_2.png	170	inanimate	plants	sunflower	2	0	1	stars	1	correct	0.915482645621523
32879	1	stim099_animate_mammal_rhino_3.png	99	animate	mammal	rhino	3	0	1	stars	1	correct	0.915482645621523
32929	1	stim181_inanimate_tools_broom_1.png	181	inanimate	tools	broom	1	0	1	stars	1	correct	0.915482645621523
32979	1	stim188_inanimate_tools_hammer_4.png	188	inanimate	tools	hammer	4	0	1	stars	1	correct	0.915482645621523
33029	1	stim020_animate_aquatic_shrimp_4.png	20	animate	aquatic	shrimp	4	0	1	stars	1	correct	0.915482645621523
33079	1	stim165_inanimate_plants_cactus_1.png	165	inanimate	plants	cactus	1	0	1	stars	1	correct	0.915482645621523
33129	1	stim126_inanimate_fruits_banana_2.png	126	inanimate	fruits	banana	2	0	1	stars	1	correct	0.915482645621523
33179	1	stim030_animate_bird_parrot_2.png	30	animate	bird	parrot	2	0	1	stars	1	correct	0.915482645621523
33229	1	stim059_animate_human_sports_3.png	59	animate	human	sports	3	0	1	stars	1	correct	0.915482645621523
33279	1	stim195_inanimate_tools_scissors_3.png	195	inanimate	tools	scissors	3	0	1	stars	1	correct	0.915482645621523
33329	1	stim103_inanimate_clothing_gloves_3.png	103	inanimate	clothing	gloves	3	0	1	stars	1	correct	0.915482645621523
33379	1	stim005_animate_aquatic_fish_1.png	5	animate	aquatic	fish	1	0	1	stars	1	correct	0.915482645621523
33429	1	stim012_animate_aquatic_seahorse_4.png	12	animate	aquatic	seahorse	4	0	1	stars	1	correct	0.915482645621523
33479	1	stim129_inanimate_fruits_grape_1.png	129	inanimate	fruits	grape	1	0	1	stars	1	correct	0.915482645621523
33529	1	stim178_inanimate_plants_tulip_2.png	178	inanimate	plants	tulip	2	0	1	stars	1	correct	0.915482645621523
33579	1	stim016_animate_aquatic_shark_4.png	16	animate	aquatic	shark	4	0	1	stars	1	correct	0.915482645621523
33629	1	stim186_inanimate_tools_hammer_2.png	186	inanimate	tools	hammer	2	0	1	stars	1	correct	0.915482645621523
33679	1	stim194_inanimate_tools_scissors_2.png	194	inanimate	tools	scissors	2	0	1	stars	1	correct	0.915482645621523
33729	1	stim060_animate_human_sports_4.png	60	animate	human	sports	4	0	1	stars	1	correct	0.915482645621523
33779	1	stim085_animate_mammal_giraffe_1.png	85	animate	mammal	giraffe	1	0	1	stars	1	correct	0.915482645621523
33829	1	stim025_animate_bird_duck_1.png	25	animate	bird	duck	1	0	1	stars	1	correct	0.915482645621523
33879	1	stim110_inanimate_clothing_jeans_2.png	110	inanimate	clothing	jeans	2	0	1	stars	1	correct	0.915482645621523
33929	1	stim001_animate_aquatic_crab_1.png	1	animate	aquatic	crab	1	0	1	stars	1	correct	0.915482645621523
33979	1	stim049_animate_human_clown_1.png	49	animate	human	clown	1	0	1	stars	1	correct	0.915482645621523
34029	1	stim160_inanimate_furniture_table_4.png	160	inanimate	furniture	table	4	0	1	stars	1	correct	0.915482645621523
34079	1	stim036_animate_bird_peacock_4.png	36	animate	bird	peacock	4	0	1	stars	1	correct	0.915482645621523
34129	1	stim113_inanimate_clothing_shirt_1.png	113	inanimate	clothing	shirt	1	0	1	stars	1	correct	0.915482645621523
34179	1	stim094_animate_mammal_monkey_2.png	94	animate	mammal	monkey	2	0	1	stars	1	correct	0.915482645621523
34229	1	stim158_inanimate_furniture_table_2.png	158	inanimate	furniture	table	2	0	1	stars	1	correct	0.915482645621523
34279	1	stim072_animate_insect_butterfly_4.png	72	animate	insect	butterfly	4	0	1	stars	1	correct	0.915482645621523
34329	1	stim174_inanimate_plants_tree_2.png	174	inanimate	plants	tree	2	0	1	stars	1	correct	0.915482645621523
34379	1	stim196_inanimate_tools_scissors_4.png	196	inanimate	tools	scissors	4	0	1	stars	1	correct	0.915482645621523
34429	1	stim017_animate_aquatic_shrimp_1.png	17	animate	aquatic	shrimp	1	0	1	stars	1	correct	0.915482645621523
34479	1	stim018_animate_aquatic_shrimp_2.png	18	animate	aquatic	shrimp	2	0	1	stars	1	correct	0.915482645621523
34529	1	stim045_animate_human_child_1.png	45	animate	human	child	1	0	1	stars	1	correct	0.915482645621523
34579	1	stim115_inanimate_clothing_shirt_3.png	115	inanimate	clothing	shirt	3	0	1	stars	1	correct	0.915482645621523
34629	1	stim086_animate_mammal_giraffe_2.png	86	animate	mammal	giraffe	2	0	1	stars	1	correct	0.915482645621523
34679	1	stim098_animate_mammal_rhino_2.png	98	animate	mammal	rhino	2	0	1	stars	1	correct	0.915482645621523
34729	1	stim052_animate_human_clown_4.png	52	animate	human	clown	4	0	1	stars	1	correct	0.915482645621523
34779	1	stim183_inanimate_tools_broom_3.png	183	inanimate	tools	broom	3	0	1	stars	1	correct	0.915482645621523
34829	1	stim041_animate_human_baby_1.png	41	animate	human	baby	1	0	1	stars	1	correct	0.915482645621523
34879	1	stim152_inanimate_furniture_closet_4.png	152	inanimate	furniture	closet	4	0	1	stars	1	correct	0.915482645621523
34929	1	stim063_animate_insect_ant_3.png	63	animate	insect	ant	3	0	1	stars	1	correct	0.915482645621523
34979	1	stim014_animate_aquatic_shark_2.png	14	animate	aquatic	shark	2	0	1	stars	1	correct	0.915482645621523
35029	1	stim104_inanimate_clothing_gloves_4.png	104	inanimate	clothing	gloves	4	0	1	stars	1	correct	0.915482645621523
35079	1	stim131_inanimate_fruits_grape_3.png	131	inanimate	fruits	grape	3	0	1	stars	1	correct	0.915482645621523
35129	1	stim040_animate_bird_penguin_4.png	40	animate	bird	penguin	4	0	1	stars	1	correct	0.915482645621523
35179	1	stim116_inanimate_clothing_shirt_4.png	116	inanimate	clothing	shirt	4	0	1	stars	1	correct	0.915482645621523
35229	1	stim162_inanimate_plants_bush_2.png	162	inanimate	plants	bush	2	0	1	stars	1	correct	0.915482645621523
35279	1	stim011_animate_aquatic_seahorse_3.png	11	animate	aquatic	seahorse	3	0	1	stars	1	correct	0.915482645621523
43379	1	stim133_inanimate_fruits_pineapple_1.png	133	inanimate	fruits	pineapple	1	0	2	boats	2	correct	0.774702064576559
43429	1	stim016_animate_aquatic_shark_4.png	16	animate	aquatic	shark	4	0	2	boats	2	correct	0.774702064576559
43479	1	stim088_animate_mammal_giraffe_4.png	88	animate	mammal	giraffe	4	0	2	boats	2	correct	0.774702064576559
43529	1	stim130_inanimate_fruits_grape_2.png	130	inanimate	fruits	grape	2	0	2	boats	2	correct	0.774702064576559
43579	1	stim180_inanimate_plants_tulip_4.png	180	inanimate	plants	tulip	4	0	2	boats	2	correct	0.774702064576559
43629	1	stim034_animate_bird_peacock_2.png	34	animate	bird	peacock	2	0	2	boats	2	correct	0.774702064576559
43679	1	stim023_animate_bird_chicken_3.png	23	animate	bird	chicken	3	0	2	boats	2	correct	0.774702064576559
43729	1	stim195_inanimate_tools_scissors_3.png	195	inanimate	tools	scissors	3	0	2	boats	2	correct	0.774702064576559
43779	1	stim052_animate_human_clown_4.png	52	animate	human	clown	4	0	2	boats	2	correct	0.774702064576559
43829	1	stim110_inanimate_clothing_jeans_2.png	110	inanimate	clothing	jeans	2	0	2	boats	2	correct	0.774702064576559
43879	1	stim087_animate_mammal_giraffe_3.png	87	animate	mammal	giraffe	3	0	2	boats	2	correct	0.774702064576559
43929	1	stim156_inanimate_furniture_sofa_4.png	156	inanimate	furniture	sofa	4	0	2	boats	2	correct	0.774702064576559
43979	1	stim165_inanimate_plants_cactus_1.png	165	inanimate	plants	cactus	1	0	2	boats	2	correct	0.774702064576559
44029	1	stim193_inanimate_tools_scissors_1.png	193	inanimate	tools	scissors	1	0	2	boats	2	correct	0.774702064576559
44079	1	stim197_inanimate_tools_wrench_1.png	197	inanimate	tools	wrench	1	0	2	boats	2	correct	0.774702064576559
44129	1	stim186_inanimate_tools_hammer_2.png	186	inanimate	tools	hammer	2	0	2	boats	2	correct	0.774702064576559
44179	1	stim062_animate_insect_ant_2.png	62	animate	insect	ant	2	0	2	boats	2	correct	0.774702064576559
44229	1	stim107_inanimate_clothing_hat_3.png	107	inanimate	clothing	hat	3	0	2	boats	2	correct	0.774702064576559
44279	1	stim106_inanimate_clothing_hat_2.png	106	inanimate	clothing	hat	2	0	2	boats	2	correct	0.774702064576559
44329	1	stim086_animate_mammal_giraffe_2.png	86	animate	mammal	giraffe	2	0	2	boats	2	correct	0.774702064576559
44379	1	stim183_inanimate_tools_broom_3.png	183	inanimate	tools	broom	3	0	2	boats	2	correct	0.774702064576559
44429	1	stim085_animate_mammal_giraffe_1.png	85	animate	mammal	giraffe	1	0	2	boats	2	correct	0.774702064576559
44479	1	stim136_inanimate_fruits_pineapple_4.png	136	inanimate	fruits	pineapple	4	0	2	boats	2	correct	0.774702064576559
44529	1	stim056_animate_human_faces_4.png	56	animate	human	faces	4	0	2	boats	2	correct	0.774702064576559
44579	1	stim076_animate_insect_dragonfly_4.png	76	animate	insect	dragonfly	4	0	2	boats	2	correct	0.774702064576559
44629	1	stim101_inanimate_clothing_gloves_1.png	101	inanimate	clothing	gloves	1	0	2	boats	2	correct	0.774702064576559
44679	1	stim105_inanimate_clothing_hat_1.png	105	inanimate	clothing	hat	1	0	2	boats	2	correct	0.774702064576559
44729	1	stim006_animate_aquatic_fish_2.png	6	animate	aquatic	fish	2	0	2	boats	2	correct	0.774702064576559
44779	1	stim022_animate_bird_chicken_2.png	22	animate	bird	chicken	2	0	2	boats	2	correct	0.774702064576559
44829	1	stim071_animate_insect_butterfly_3.png	71	animate	insect	butterfly	3	0	2	boats	2	correct	0.774702064576559
44879	1	stim021_animate_bird_chicken_1.png	21	animate	bird	chicken	1	0	2	boats	2	correct	0.774702064576559
44929	1	stim198_inanimate_tools_wrench_2.png	198	inanimate	tools	wrench	2	0	2	boats	2	correct	0.774702064576559
44979	1	stim200_inanimate_tools_wrench_4.png	200	inanimate	tools	wrench	4	0	2	boats	2	correct	0.774702064576559
45029	1	stim117_inanimate_clothing_socks_1.png	117	inanimate	clothing	socks	1	0	2	boats	2	correct	0.774702064576559
45079	1	stim126_inanimate_fruits_banana_2.png	126	inanimate	fruits	banana	2	0	2	boats	2	correct	0.774702064576559
45129	1	stim185_inanimate_tools_hammer_1.png	185	inanimate	tools	hammer	1	0	2	boats	2	correct	0.774702064576559
45179	1	stim171_inanimate_plants_sunflower_3.png	171	inanimate	plants	sunflower	3	0	2	boats	2	correct	0.774702064576559
45229	1	stim061_animate_insect_ant_1.png	61	animate	insect	ant	1	0	2	boats	2	correct	0.774702064576559
45279	1	stim114_inanimate_clothing_shirt_2.png	114	inanimate	clothing	shirt	2	0	2	boats	2	correct	0.774702064576559
45329	1	stim143_inanimate_furniture_bed_3.png	143	inanimate	furniture	bed	3	0	2	boats	2	correct	0.774702064576559
45379	1	stim042_animate_human_baby_2.png	42	animate	human	baby	2	0	2	boats	2	correct	0.774702064576559
45429	1	stim134_inanimate_fruits_pineapple_2.png	134	inanimate	fruits	pineapple	2	0	2	boats	2	correct	0.774702064576559
45479	1	stim116_inanimate_clothing_shirt_4.png	116	inanimate	clothing	shirt	4	0	2	boats	2	correct	0.774702064576559
45529	1	stim073_animate_insect_dragonfly_1.png	73	animate	insect	dragonfly	1	0	2	boats	2	correct	0.774702064576559
45579	1	stim019_animate_aquatic_shrimp_3.png	19	animate	aquatic	shrimp	3	0	2	boats	2	correct	0.774702064576559
45629	1	stim008_animate_aquatic_fish_4.png	8	animate	aquatic	fish	4	0	2	boats	2	correct	0.774702064576559
45679	1	stim007_animate_aquatic_fish_3.png	7	animate	aquatic	fish	3	0	2	boats	2	correct	0.774702064576559
45729	1	stim191_inanimate_tools_pan_3.png	191	inanimate	tools	pan	3	0	2	boats	2	correct	0.774702064576559
45779	1	stim151_inanimate_furniture_closet_3.png	151	inanimate	furniture	closet	3	0	2	boats	2	correct	0.774702064576559
45829	1	stim057_animate_human_sports_1.png	57	animate	human	sports	1	0	2	boats	2	correct	0.774702064576559
45879	1	stim094_animate_mammal_monkey_2.png	94	animate	mammal	monkey	2	0	2	boats	2	correct	0.774702064576559
45929	1	stim177_inanimate_plants_tulip_1.png	177	inanimate	plants	tulip	1	0	2	boats	2	correct	0.774702064576559
45979	1	stim111_inanimate_clothing_jeans_3.png	111	inanimate	clothing	jeans	3	0	2	boats	2	correct	0.774702064576559
46029	1	stim102_inanimate_clothing_gloves_2.png	102	inanimate	clothing	gloves	2	0	2	boats	2	correct	0.774702064576559
46079	1	stim104_inanimate_clothing_gloves_4.png	104	inanimate	clothing	gloves	4	0	2	boats	2	correct	0.774702064576559
46129	1	stim026_animate_bird_duck_2.png	26	animate	bird	duck	2	0	2	boats	2	correct	0.774702064576559
46179	1	stim103_inanimate_clothing_gloves_3.png	103	inanimate	clothing	gloves	3	0	2	boats	2	correct	0.774702064576559
46229	1	stim189_inanimate_tools_pan_1.png	189	inanimate	tools	pan	1	0	2	boats	2	correct	0.774702064576559
46279	1	stim161_inanimate_plants_bush_1.png	161	inanimate	plants	bush	1	0	2	boats	2	correct	0.774702064576559
46329	1	stim035_animate_bird_peacock_3.png	35	animate	bird	peacock	3	0	2	boats	2	correct	0.774702064576559
46379	1	stim018_animate_aquatic_shrimp_2.png	18	animate	aquatic	shrimp	2	0	2	boats	2	correct	0.774702064576559
46429	1	stim163_inanimate_plants_bush_3.png	163	inanimate	plants	bush	3	0	2	boats	2	correct	0.774702064576559
46479	1	stim202_targets_object_boats_2.png	202	targets	object	boats	2	1	2	boats	2	correct	0.774702064576559
46529	1	stim069_animate_insect_butterfly_1.png	69	animate	insect	butterfly	1	0	2	boats	2	correct	0.774702064576559
46579	1	stim059_animate_human_sports_3.png	59	animate	human	sports	3	0	2	boats	2	correct	0.774702064576559
46629	1	stim013_animate_aquatic_shark_1.png	13	animate	aquatic	shark	1	0	2	boats	2	correct	0.774702064576559
46679	1	stim176_inanimate_plants_tree_4.png	176	inanimate	plants	tree	4	0	2	boats	2	correct	0.774702064576559
46729	1	stim146_inanimate_furniture_chair_2.png	146	inanimate	furniture	chair	2	0	2	boats	2	correct	0.774702064576559
46779	1	stim068_animate_insect_bug_4.png	68	animate	insect	bug	4	0	2	boats	2	correct	0.774702064576559
46829	1	stim148_inanimate_furniture_chair_4.png	148	inanimate	furniture	chair	4	0	2	boats	2	correct	0.774702064576559
46879	1	stim154_inanimate_furniture_sofa_2.png	154	inanimate	furniture	sofa	2	0	2	boats	2	correct	0.774702064576559
46929	1	stim054_animate_human_faces_2.png	54	animate	human	faces	2	0	2	boats	2	correct	0.774702064576559
46979	1	stim162_inanimate_plants_bush_2.png	162	inanimate	plants	bush	2	0	2	boats	2	correct	0.774702064576559
47029	1	stim108_inanimate_clothing_hat_4.png	108	inanimate	clothing	hat	4	0	2	boats	2	correct	0.774702064576559
47079	1	stim014_animate_aquatic_shark_2.png	14	animate	aquatic	shark	2	0	2	boats	2	correct	0.774702064576559
47129	1	stim017_animate_aquatic_shrimp_1.png	17	animate	aquatic	shrimp	1	0	2	boats	2	correct	0.774702064576559
47179	1	stim080_animate_insect_grasshopper_4.png	80	animate	insect	grasshopper	4	0	2	boats	2	correct	0.774702064576559
47229	1	stim049_animate_human_clown_1.png	49	animate	human	clown	1	0	2	boats	2	correct	0.774702064576559
47279	1	stim065_animate_insect_bug_1.png	65	animate	insect	bug	1	0	2	boats	2	correct	0.774702064576559
47329	1	stim174_inanimate_plants_tree_2.png	174	inanimate	plants	tree	2	0	2	boats	2	correct	0.774702064576559
47379	1	stim078_animate_insect_grasshopper_2.png	78	animate	insect	grasshopper	2	0	2	boats	2	correct	0.774702064576559
47429	1	stim036_animate_bird_peacock_4.png	36	animate	bird	peacock	4	0	2	boats	2	correct	0.774702064576559
47479	1	stim138_inanimate_fruits_strawberry_2.png	138	inanimate	fruits	strawberry	2	0	2	boats	2	correct	0.774702064576559
47529	1	stim153_inanimate_furniture_sofa_1.png	153	inanimate	furniture	sofa	1	0	2	boats	2	correct	0.774702064576559
47579	1	stim128_inanimate_fruits_banana_4.png	128	inanimate	fruits	banana	4	0	2	boats	2	correct	0.774702064576559
47629	1	stim112_inanimate_clothing_jeans_4.png	112	inanimate	clothing	jeans	4	0	2	boats	2	correct	0.774702064576559
47679	1	stim072_animate_insect_butterfly_4.png	72	animate	insect	butterfly	4	0	2	boats	2	correct	0.774702064576559
47729	1	stim039_animate_bird_penguin_3.png	39	animate	bird	penguin	3	0	2	boats	2	correct	0.774702064576559
47779	1	stim150_inanimate_furniture_closet_2.png	150	inanimate	furniture	closet	2	0	2	boats	2	correct	0.774702064576559
47829	1	stim081_animate_mammal_cow_1.png	81	animate	mammal	cow	1	0	2	boats	2	correct	0.774702064576559
47879	1	stim092_animate_mammal_kangaroo_4.png	92	animate	mammal	kangaroo	4	0	2	boats	2	correct	0.774702064576559
47929	1	stim024_animate_bird_chicken_4.png	24	animate	bird	chicken	4	0	2	boats	2	correct	0.774702064576559
47979	1	stim044_animate_human_baby_4.png	44	animate	human	baby	4	0	2	boats	2	correct	0.774702064576559
48029	1	stim115_inanimate_clothing_shirt_3.png	115	inanimate	clothing	shirt	3	0	2	boats	2	correct	0.774702064576559
48079	1	stim004_animate_aquatic_crab_4.png	4	animate	aquatic	crab	4	0	2	boats	2	correct	0.774702064576559
48129	1	stim109_inanimate_clothing_jeans_1.png	109	inanimate	clothing	jeans	1	0	2	boats	2	correct	0.774702064576559
48179	1	stim141_inanimate_furniture_bed_1.png	141	inanimate	furniture	bed	1	0	2	boats	2	correct	0.774702064576559
48229	1	stim166_inanimate_plants_cactus_2.png	166	inanimate	plants	cactus	2	0	2	boats	2	correct	0.774702064576559
48279	1	stim009_animate_aquatic_seahorse_1.png	9	animate	aquatic	seahorse	1	0	2	boats	2	correct	0.774702064576559
48329	1	stim158_inanimate_furniture_table_2.png	158	inanimate	furniture	table	2	0	2	boats	2	correct	0.774702064576559
48379	1	stim045_animate_human_child_1.png	45	animate	human	child	1	0	2	boats	2	correct	0.774702064576559
48429	1	stim084_animate_mammal_cow_4.png	84	animate	mammal	cow	4	0	2	boats	2	correct	0.774702064576559
48479	1	stim011_animate_aquatic_seahorse_3.png	11	animate	aquatic	seahorse	3	0	2	boats	2	correct	0.774702064576559
48529	1	stim139_inanimate_fruits_strawberry_3.png	139	inanimate	fruits	strawberry	3	0	2	boats	2	correct	0.774702064576559
48579	1	stim140_inanimate_fruits_strawberry_4.png	140	inanimate	fruits	strawberry	4	0	2	boats	2	correct	0.774702064576559
48629	1	stim098_animate_mammal_rhino_2.png	98	animate	mammal	rhino	2	0	2	boats	2	correct	0.774702064576559
48679	1	stim145_inanimate_furniture_chair_1.png	145	inanimate	furniture	chair	1	0	2	boats	2	correct	0.774702064576559
48729	1	stim137_inanimate_fruits_strawberry_1.png	137	inanimate	fruits	strawberry	1	0	2	boats	2	correct	0.774702064576559
48779	1	stim015_animate_aquatic_shark_3.png	15	animate	aquatic	shark	3	0	2	boats	2	correct	0.774702064576559
48829	1	stim033_animate_bird_peacock_1.png	33	animate	bird	peacock	1	0	2	boats	2	correct	0.774702064576559
48879	1	stim190_inanimate_tools_pan_2.png	190	inanimate	tools	pan	2	0	2	boats	2	correct	0.774702064576559
48929	1	stim168_inanimate_plants_cactus_4.png	168	inanimate	plants	cactus	4	0	2	boats	2	correct	0.774702064576559
48979	1	stim167_inanimate_plants_cactus_3.png	167	inanimate	plants	cactus	3	0	2	boats	2	correct	0.774702064576559
49029	1	stim124_inanimate_fruits_apple_4.png	124	inanimate	fruits	apple	4	0	2	boats	2	correct	0.774702064576559
49079	1	stim003_animate_aquatic_crab_3.png	3	animate	aquatic	crab	3	0	2	boats	2	correct	0.774702064576559
49129	1	stim152_inanimate_furniture_closet_4.png	152	inanimate	furniture	closet	4	0	2	boats	2	correct	0.774702064576559
49179	1	stim066_animate_insect_bug_2.png	66	animate	insect	bug	2	0	2	boats	2	correct	0.774702064576559
49229	1	stim194_inanimate_tools_scissors_2.png	194	inanimate	tools	scissors	2	0	2	boats	2	correct	0.774702064576559
49279	1	stim121_inanimate_fruits_apple_1.png	121	inanimate	fruits	apple	1	0	2	boats	2	correct	0.774702064576559
49329	1	stim120_inanimate_clothing_socks_4.png	120	inanimate	clothing	socks	4	0	2	boats	2	correct	0.774702064576559
49379	1	stim208_targets_object_boats_4.png	208	targets	object	boats	4	1	2	boats	2	correct	0.774702064576559
49429	1	stim063_animate_insect_ant_3.png	63	animate	insect	ant	3	0	2	boats	2	correct	0.774702064576559
49479	1	stim082_animate_mammal_cow_2.png	82	animate	mammal	cow	2	0	2	boats	2	correct	0.774702064576559
49529	1	stim123_inanimate_fruits_apple_3.png	123	inanimate	fruits	apple	3	0	2	boats	2	correct	0.774702064576559
49579	1	stim048_animate_human_child_4.png	48	animate	human	child	4	0	2	boats	2	correct	0.774702064576559
49629	1	stim178_inanimate_plants_tulip_2.png	178	inanimate	plants	tulip	2	0	2	boats	2	correct	0.774702064576559
49679	1	stim025_animate_bird_duck_1.png	25	animate	bird	duck	1	0	2	boats	2	correct	0.774702064576559
49729	1	stim179_inanimate_plants_tulip_3.png	179	inanimate	plants	tulip	3	0	2	boats	2	correct	0.774702064576559
49779	1	stim027_animate_bird_duck_3.png	27	animate	bird	duck	3	0	2	boats	2	correct	0.774702064576559
49829	1	stim135_inanimate_fruits_pineapple_3.png	135	inanimate	fruits	pineapple	3	0	2	boats	2	correct	0.774702064576559
49879	1	stim188_inanimate_tools_hammer_4.png	188	inanimate	tools	hammer	4	0	2	boats	2	correct	0.774702064576559
49929	1	stim060_animate_human_sports_4.png	60	animate	human	sports	4	0	2	boats	2	correct	0.774702064576559
49979	1	stim142_inanimate_furniture_bed_2.png	142	inanimate	furniture	bed	2	0	2	boats	2	correct	0.774702064576559
50029	1	stim005_animate_aquatic_fish_1.png	5	animate	aquatic	fish	1	0	2	boats	2	correct	0.774702064576559
50079	1	stim050_animate_human_clown_2.png	50	animate	human	clown	2	0	2	boats	2	correct	0.774702064576559
50129	1	stim099_animate_mammal_rhino_3.png	99	animate	mammal	rhino	3	0	2	boats	2	correct	0.774702064576559
50179	1	stim055_animate_human_faces_3.png	55	animate	human	faces	3	0	2	boats	2	correct	0.774702064576559
50229	1	stim173_inanimate_plants_tree_1.png	173	inanimate	plants	tree	1	0	2	boats	2	correct	0.774702064576559
50279	1	stim012_animate_aquatic_seahorse_4.png	12	animate	aquatic	seahorse	4	0	2	boats	2	correct	0.774702064576559
50329	1	stim047_animate_human_child_3.png	47	animate	human	child	3	0	2	boats	2	correct	0.774702064576559
50379	1	stim079_animate_insect_grasshopper_3.png	79	animate	insect	grasshopper	3	0	2	boats	2	correct	0.774702064576559
50429	1	stim043_animate_human_baby_3.png	43	animate	human	baby	3	0	2	boats	2	correct	0.774702064576559
50479	1	stim182_inanimate_tools_broom_2.png	182	inanimate	tools	broom	2	0	2	boats	2	correct	0.774702064576559
50529	1	stim096_animate_mammal_monkey_4.png	96	animate	mammal	monkey	4	0	2	boats	2	correct	0.774702064576559
50579	1	stim172_inanimate_plants_sunflower_4.png	172	inanimate	plants	sunflower	4	0	2	boats	2	correct	0.774702064576559
50629	1	stim032_animate_bird_parrot_4.png	32	animate	bird	parrot	4	0	2	boats	2	correct	0.774702064576559
50679	1	stim091_animate_mammal_kangaroo_3.png	91	animate	mammal	kangaroo	3	0	2	boats	2	correct	0.774702064576559
50729	1	stim028_animate_bird_duck_4.png	28	animate	bird	duck	4	0	2	boats	2	correct	0.774702064576559
50779	1	stim129_inanimate_fruits_grape_1.png	129	inanimate	fruits	grape	1	0	2	boats	2	correct	0.774702064576559
50829	1	stim095_animate_mammal_monkey_3.png	95	animate	mammal	monkey	3	0	2	boats	2	correct	0.774702064576559
50879	1	stim100_animate_mammal_rhino_4.png	100	animate	mammal	rhino	4	0	2	boats	2	correct	0.774702064576559
50929	1	stim075_animate_insect_dragonfly_3.png	75	animate	insect	dragonfly	3	0	2	boats	2	correct	0.774702064576559
50979	1	stim199_inanimate_tools_wrench_3.png	199	inanimate	tools	wrench	3	0	2	boats	2	correct	0.774702064576559
51029	1	stim118_inanimate_clothing_socks_2.png	118	inanimate	clothing	socks	2	0	2	boats	2	correct	0.774702064576559
51079	1	stim090_animate_mammal_kangaroo_2.png	90	animate	mammal	kangaroo	2	0	2	boats	2	correct	0.774702064576559
51129	1	stim155_inanimate_furniture_sofa_3.png	155	inanimate	furniture	sofa	3	0	2	boats	2	correct	0.774702064576559
51179	1	stim067_animate_insect_bug_3.png	67	animate	insect	bug	3	0	2	boats	2	correct	0.774702064576559
51229	1	stim010_animate_aquatic_seahorse_2.png	10	animate	aquatic	seahorse	2	0	2	boats	2	correct	0.774702064576559
51279	1	stim144_inanimate_furniture_bed_4.png	144	inanimate	furniture	bed	4	0	2	boats	2	correct	0.774702064576559
51329	1	stim169_inanimate_plants_sunflower_1.png	169	inanimate	plants	sunflower	1	0	2	boats	2	correct	0.774702064576559
51379	1	stim046_animate_human_child_2.png	46	animate	human	child	2	0	2	boats	2	correct	0.774702064576559
51429	1	stim031_animate_bird_parrot_3.png	31	animate	bird	parrot	3	0	2	boats	2	correct	0.774702064576559
51479	1	stim051_animate_human_clown_3.png	51	animate	human	clown	3	0	2	boats	2	correct	0.774702064576559
51529	1	stim038_animate_bird_penguin_2.png	38	animate	bird	penguin	2	0	2	boats	2	correct	0.774702064576559
51579	1	stim040_animate_bird_penguin_4.png	40	animate	bird	penguin	4	0	2	boats	2	correct	0.774702064576559
51629	1	stim132_inanimate_fruits_grape_4.png	132	inanimate	fruits	grape	4	0	2	boats	2	correct	0.774702064576559
51679	1	stim002_animate_aquatic_crab_2.png	2	animate	aquatic	crab	2	0	2	boats	2	correct	0.774702064576559
51729	1	stim029_animate_bird_parrot_1.png	29	animate	bird	parrot	1	0	2	boats	2	correct	0.774702064576559
51779	1	stim001_animate_aquatic_crab_1.png	1	animate	aquatic	crab	1	0	2	boats	2	correct	0.774702064576559
51829	1	stim077_animate_insect_grasshopper_1.png	77	animate	insect	grasshopper	1	0	2	boats	2	correct	0.774702064576559
51879	1	stim181_inanimate_tools_broom_1.png	181	inanimate	tools	broom	1	0	2	boats	2	correct	0.774702064576559
51929	1	stim157_inanimate_furniture_table_1.png	157	inanimate	furniture	table	1	0	2	boats	2	correct	0.774702064576559
51979	1	stim074_animate_insect_dragonfly_2.png	74	animate	insect	dragonfly	2	0	2	boats	2	correct	0.774702064576559
52029	1	stim083_animate_mammal_cow_3.png	83	animate	mammal	cow	3	0	2	boats	2	correct	0.774702064576559
52079	1	stim119_inanimate_clothing_socks_3.png	119	inanimate	clothing	socks	3	0	2	boats	2	correct	0.774702064576559
52129	1	stim089_animate_mammal_kangaroo_1.png	89	animate	mammal	kangaroo	1	0	2	boats	2	correct	0.774702064576559
52179	1	stim125_inanimate_fruits_banana_1.png	125	inanimate	fruits	banana	1	0	2	boats	2	correct	0.774702064576559
52229	1	stim196_inanimate_tools_scissors_4.png	196	inanimate	tools	scissors	4	0	2	boats	2	correct	0.774702064576559
52279	1	stim053_animate_human_faces_1.png	53	animate	human	faces	1	0	2	boats	2	correct	0.774702064576559
52329	1	stim149_inanimate_furniture_closet_1.png	149	inanimate	furniture	closet	1	0	2	boats	2	correct	0.774702064576559
52379	1	stim058_animate_human_sports_2.png	58	animate	human	sports	2	0	2	boats	2	correct	0.774702064576559
52429	1	stim187_inanimate_tools_hammer_3.png	187	inanimate	tools	hammer	3	0	2	boats	2	correct	0.774702064576559
52479	1	stim037_animate_bird_penguin_1.png	37	animate	bird	penguin	1	0	2	boats	2	correct	0.774702064576559
52529	1	stim093_animate_mammal_monkey_1.png	93	animate	mammal	monkey	1	0	2	boats	2	correct	0.774702064576559
52579	1	stim192_inanimate_tools_pan_4.png	192	inanimate	tools	pan	4	0	2	boats	2	correct	0.774702064576559
52629	1	stim164_inanimate_plants_bush_4.png	164	inanimate	plants	bush	4	0	2	boats	2	correct	0.774702064576559
52679	1	stim113_inanimate_clothing_shirt_1.png	113	inanimate	clothing	shirt	1	0	2	boats	2	correct	0.774702064576559
52729	1	stim170_inanimate_plants_sunflower_2.png	170	inanimate	plants	sunflower	2	0	2	boats	2	correct	0.774702064576559
52779	1	stim147_inanimate_furniture_chair_3.png	147	inanimate	furniture	chair	3	0	2	boats	2	correct	0.774702064576559
52829	1	stim131_inanimate_fruits_grape_3.png	131	inanimate	fruits	grape	3	0	2	boats	2	correct	0.774702064576559
52879	1	stim097_animate_mammal_rhino_1.png	97	animate	mammal	rhino	1	0	2	boats	2	correct	0.774702064576559
52929	1	stim030_animate_bird_parrot_2.png	30	animate	bird	parrot	2	0	2	boats	2	correct	0.774702064576559
52979	1	stim020_animate_aquatic_shrimp_4.png	20	animate	aquatic	shrimp	4	0	2	boats	2	correct	0.774702064576559
53029	1	stim064_animate_insect_ant_4.png	64	animate	insect	ant	4	0	2	boats	2	correct	0.774702064576559
53079	1	stim070_animate_insect_butterfly_2.png	70	animate	insect	butterfly	2	0	2	boats	2	correct	0.774702064576559
53129	1	stim122_inanimate_fruits_apple_2.png	122	inanimate	fruits	apple	2	0	2	boats	2	correct	0.774702064576559
53179	1	stim160_inanimate_furniture_table_4.png	160	inanimate	furniture	table	4	0	2	boats	2	correct	0.774702064576559
53229	1	stim127_inanimate_fruits_banana_3.png	127	inanimate	fruits	banana	3	0	2	boats	2	correct	0.774702064576559
53279	1	stim041_animate_human_baby_1.png	41	animate	human	baby	1	0	2	boats	2	correct	0.774702064576559
53329	1	stim175_inanimate_plants_tree_3.png	175	inanimate	plants	tree	3	0	2	boats	2	correct	0.774702064576559
53379	1	stim184_inanimate_tools_broom_4.png	184	inanimate	tools	broom	4	0	2	boats	2	correct	0.774702064576559
53429	1	stim159_inanimate_furniture_table_3.png	159	inanimate	furniture	table	3	0	2	boats	2	correct	0.774702064576559
56363	1	stim015_animate_aquatic_shark_3.png	15	animate	aquatic	shark	3	0	3	boats	3	incorrect	0.527507582475664
56413	1	stim198_inanimate_tools_wrench_2.png	198	inanimate	tools	wrench	2	0	3	boats	3	incorrect	0.527507582475664
56463	1	stim045_animate_human_child_1.png	45	animate	human	child	1	0	3	boats	3	incorrect	0.527507582475664
56513	1	stim012_animate_aquatic_seahorse_4.png	12	animate	aquatic	seahorse	4	0	3	boats	3	incorrect	0.527507582475664
56563	1	stim169_inanimate_plants_sunflower_1.png	169	inanimate	plants	sunflower	1	0	3	boats	3	incorrect	0.527507582475664
56613	1	stim183_inanimate_tools_broom_3.png	183	inanimate	tools	broom	3	0	3	boats	3	incorrect	0.527507582475664
56663	1	stim074_animate_insect_dragonfly_2.png	74	animate	insect	dragonfly	2	0	3	boats	3	incorrect	0.527507582475664
56713	1	stim173_inanimate_plants_tree_1.png	173	inanimate	plants	tree	1	0	3	boats	3	incorrect	0.527507582475664
56763	1	stim059_animate_human_sports_3.png	59	animate	human	sports	3	0	3	boats	3	incorrect	0.527507582475664
56813	1	stim133_inanimate_fruits_pineapple_1.png	133	inanimate	fruits	pineapple	1	0	3	boats	3	incorrect	0.527507582475664
56863	1	stim175_inanimate_plants_tree_3.png	175	inanimate	plants	tree	3	0	3	boats	3	incorrect	0.527507582475664
56913	1	stim081_animate_mammal_cow_1.png	81	animate	mammal	cow	1	0	3	boats	3	incorrect	0.527507582475664
56963	1	stim122_inanimate_fruits_apple_2.png	122	inanimate	fruits	apple	2	0	3	boats	3	incorrect	0.527507582475664
57013	1	stim121_inanimate_fruits_apple_1.png	121	inanimate	fruits	apple	1	0	3	boats	3	incorrect	0.527507582475664
57063	1	stim193_inanimate_tools_scissors_1.png	193	inanimate	tools	scissors	1	0	3	boats	3	incorrect	0.527507582475664
57113	1	stim128_inanimate_fruits_banana_4.png	128	inanimate	fruits	banana	4	0	3	boats	3	incorrect	0.527507582475664
57163	1	stim069_animate_insect_butterfly_1.png	69	animate	insect	butterfly	1	0	3	boats	3	incorrect	0.527507582475664
57213	1	stim131_inanimate_fruits_grape_3.png	131	inanimate	fruits	grape	3	0	3	boats	3	incorrect	0.527507582475664
57263	1	stim010_animate_aquatic_seahorse_2.png	10	animate	aquatic	seahorse	2	0	3	boats	3	incorrect	0.527507582475664
57313	1	stim168_inanimate_plants_cactus_4.png	168	inanimate	plants	cactus	4	0	3	boats	3	incorrect	0.527507582475664
57363	1	stim109_inanimate_clothing_jeans_1.png	109	inanimate	clothing	jeans	1	0	3	boats	3	incorrect	0.527507582475664
57413	1	stim078_animate_insect_grasshopper_2.png	78	animate	insect	grasshopper	2	0	3	boats	3	incorrect	0.527507582475664
57463	1	stim079_animate_insect_grasshopper_3.png	79	animate	insect	grasshopper	3	0	3	boats	3	incorrect	0.527507582475664
57513	1	stim185_inanimate_tools_hammer_1.png	185	inanimate	tools	hammer	1	0	3	boats	3	incorrect	0.527507582475664
57563	1	stim005_animate_aquatic_fish_1.png	5	animate	aquatic	fish	1	0	3	boats	3	incorrect	0.527507582475664
57613	1	stim162_inanimate_plants_bush_2.png	162	inanimate	plants	bush	2	0	3	boats	3	incorrect	0.527507582475664
57663	1	stim111_inanimate_clothing_jeans_3.png	111	inanimate	clothing	jeans	3	0	3	boats	3	incorrect	0.527507582475664
57713	1	stim101_inanimate_clothing_gloves_1.png	101	inanimate	clothing	gloves	1	0	3	boats	3	incorrect	0.527507582475664
57763	1	stim066_animate_insect_bug_2.png	66	animate	insect	bug	2	0	3	boats	3	incorrect	0.527507582475664
57813	1	stim140_inanimate_fruits_strawberry_4.png	140	inanimate	fruits	strawberry	4	0	3	boats	3	incorrect	0.527507582475664
57863	1	stim037_animate_bird_penguin_1.png	37	animate	bird	penguin	1	0	3	boats	3	incorrect	0.527507582475664
57913	1	stim052_animate_human_clown_4.png	52	animate	human	clown	4	0	3	boats	3	incorrect	0.527507582475664
57963	1	stim154_inanimate_furniture_sofa_2.png	154	inanimate	furniture	sofa	2	0	3	boats	3	incorrect	0.527507582475664
58013	1	stim020_animate_aquatic_shrimp_4.png	20	animate	aquatic	shrimp	4	0	3	boats	3	incorrect	0.527507582475664
58063	1	stim112_inanimate_clothing_jeans_4.png	112	inanimate	clothing	jeans	4	0	3	boats	3	incorrect	0.527507582475664
58113	1	stim196_inanimate_tools_scissors_4.png	196	inanimate	tools	scissors	4	0	3	boats	3	incorrect	0.527507582475664
58163	1	stim083_animate_mammal_cow_3.png	83	animate	mammal	cow	3	0	3	boats	3	incorrect	0.527507582475664
58213	1	stim146_inanimate_furniture_chair_2.png	146	inanimate	furniture	chair	2	0	3	boats	3	incorrect	0.527507582475664
58263	1	stim089_animate_mammal_kangaroo_1.png	89	animate	mammal	kangaroo	1	0	3	boats	3	incorrect	0.527507582475664
58313	1	stim115_inanimate_clothing_shirt_3.png	115	inanimate	clothing	shirt	3	0	3	boats	3	incorrect	0.527507582475664
58363	1	stim014_animate_aquatic_shark_2.png	14	animate	aquatic	shark	2	0	3	boats	3	incorrect	0.527507582475664
58413	1	stim042_animate_human_baby_2.png	42	animate	human	baby	2	0	3	boats	3	incorrect	0.527507582475664
58463	1	stim176_inanimate_plants_tree_4.png	176	inanimate	plants	tree	4	0	3	boats	3	incorrect	0.527507582475664
58513	1	stim006_animate_aquatic_fish_2.png	6	animate	aquatic	fish	2	0	3	boats	3	incorrect	0.527507582475664
58563	1	stim177_inanimate_plants_tulip_1.png	177	inanimate	plants	tulip	1	0	3	boats	3	incorrect	0.527507582475664
58613	1	stim019_animate_aquatic_shrimp_3.png	19	animate	aquatic	shrimp	3	0	3	boats	3	incorrect	0.527507582475664
58663	1	stim090_animate_mammal_kangaroo_2.png	90	animate	mammal	kangaroo	2	0	3	boats	3	incorrect	0.527507582475664
58713	1	stim027_animate_bird_duck_3.png	27	animate	bird	duck	3	0	3	boats	3	incorrect	0.527507582475664
58763	1	stim032_animate_bird_parrot_4.png	32	animate	bird	parrot	4	0	3	boats	3	incorrect	0.527507582475664
58813	1	stim076_animate_insect_dragonfly_4.png	76	animate	insect	dragonfly	4	0	3	boats	3	incorrect	0.527507582475664
58863	1	stim067_animate_insect_bug_3.png	67	animate	insect	bug	3	0	3	boats	3	incorrect	0.527507582475664
58913	1	stim088_animate_mammal_giraffe_4.png	88	animate	mammal	giraffe	4	0	3	boats	3	incorrect	0.527507582475664
58963	1	stim049_animate_human_clown_1.png	49	animate	human	clown	1	0	3	boats	3	incorrect	0.527507582475664
59013	1	stim071_animate_insect_butterfly_3.png	71	animate	insect	butterfly	3	0	3	boats	3	incorrect	0.527507582475664
59063	1	stim197_inanimate_tools_wrench_1.png	197	inanimate	tools	wrench	1	0	3	boats	3	incorrect	0.527507582475664
59113	1	stim105_inanimate_clothing_hat_1.png	105	inanimate	clothing	hat	1	0	3	boats	3	incorrect	0.527507582475664
59163	1	stim113_inanimate_clothing_shirt_1.png	113	inanimate	clothing	shirt	1	0	3	boats	3	incorrect	0.527507582475664
59213	1	stim195_inanimate_tools_scissors_3.png	195	inanimate	tools	scissors	3	0	3	boats	3	incorrect	0.527507582475664
59263	1	stim126_inanimate_fruits_banana_2.png	126	inanimate	fruits	banana	2	0	3	boats	3	incorrect	0.527507582475664
59313	1	stim106_inanimate_clothing_hat_2.png	106	inanimate	clothing	hat	2	0	3	boats	3	incorrect	0.527507582475664
59363	1	stim204_targets_object_boats_4.png	204	targets	object	boats	4	1	3	boats	3	incorrect	0.527507582475664
59413	1	stim157_inanimate_furniture_table_1.png	157	inanimate	furniture	table	1	0	3	boats	3	incorrect	0.527507582475664
59463	1	stim036_animate_bird_peacock_4.png	36	animate	bird	peacock	4	0	3	boats	3	incorrect	0.527507582475664
59513	1	stim060_animate_human_sports_4.png	60	animate	human	sports	4	0	3	boats	3	incorrect	0.527507582475664
59563	1	stim135_inanimate_fruits_pineapple_3.png	135	inanimate	fruits	pineapple	3	0	3	boats	3	incorrect	0.527507582475664
59613	1	stim100_animate_mammal_rhino_4.png	100	animate	mammal	rhino	4	0	3	boats	3	incorrect	0.527507582475664
59663	1	stim072_animate_insect_butterfly_4.png	72	animate	insect	butterfly	4	0	3	boats	3	incorrect	0.527507582475664
59713	1	stim013_animate_aquatic_shark_1.png	13	animate	aquatic	shark	1	0	3	boats	3	incorrect	0.527507582475664
59763	1	stim152_inanimate_furniture_closet_4.png	152	inanimate	furniture	closet	4	0	3	boats	3	incorrect	0.527507582475664
59813	1	stim068_animate_insect_bug_4.png	68	animate	insect	bug	4	0	3	boats	3	incorrect	0.527507582475664
59863	1	stim160_inanimate_furniture_table_4.png	160	inanimate	furniture	table	4	0	3	boats	3	incorrect	0.527507582475664
59913	1	stim039_animate_bird_penguin_3.png	39	animate	bird	penguin	3	0	3	boats	3	incorrect	0.527507582475664
59963	1	stim171_inanimate_plants_sunflower_3.png	171	inanimate	plants	sunflower	3	0	3	boats	3	incorrect	0.527507582475664
60013	1	stim104_inanimate_clothing_gloves_4.png	104	inanimate	clothing	gloves	4	0	3	boats	3	incorrect	0.527507582475664
60063	1	stim150_inanimate_furniture_closet_2.png	150	inanimate	furniture	closet	2	0	3	boats	3	incorrect	0.527507582475664
60113	1	stim149_inanimate_furniture_closet_1.png	149	inanimate	furniture	closet	1	0	3	boats	3	incorrect	0.527507582475664
60163	1	stim093_animate_mammal_monkey_1.png	93	animate	mammal	monkey	1	0	3	boats	3	incorrect	0.527507582475664
60213	1	stim003_animate_aquatic_crab_3.png	3	animate	aquatic	crab	3	0	3	boats	3	incorrect	0.527507582475664
60263	1	stim055_animate_human_faces_3.png	55	animate	human	faces	3	0	3	boats	3	incorrect	0.527507582475664
60313	1	stim125_inanimate_fruits_banana_1.png	125	inanimate	fruits	banana	1	0	3	boats	3	incorrect	0.527507582475664
60363	1	stim207_targets_object_boats_3.png	207	targets	object	boats	3	1	3	boats	3	incorrect	0.527507582475664
60413	1	stim073_animate_insect_dragonfly_1.png	73	animate	insect	dragonfly	1	0	3	boats	3	incorrect	0.527507582475664
60463	1	stim070_animate_insect_butterfly_2.png	70	animate	insect	butterfly	2	0	3	boats	3	incorrect	0.527507582475664
60513	1	stim034_animate_bird_peacock_2.png	34	animate	bird	peacock	2	0	3	boats	3	incorrect	0.527507582475664
60563	1	stim116_inanimate_clothing_shirt_4.png	116	inanimate	clothing	shirt	4	0	3	boats	3	incorrect	0.527507582475664
60613	1	stim136_inanimate_fruits_pineapple_4.png	136	inanimate	fruits	pineapple	4	0	3	boats	3	incorrect	0.527507582475664
60663	1	stim007_animate_aquatic_fish_3.png	7	animate	aquatic	fish	3	0	3	boats	3	incorrect	0.527507582475664
60713	1	stim178_inanimate_plants_tulip_2.png	178	inanimate	plants	tulip	2	0	3	boats	3	incorrect	0.527507582475664
60763	1	stim098_animate_mammal_rhino_2.png	98	animate	mammal	rhino	2	0	3	boats	3	incorrect	0.527507582475664
60813	1	stim156_inanimate_furniture_sofa_4.png	156	inanimate	furniture	sofa	4	0	3	boats	3	incorrect	0.527507582475664
60863	1	stim033_animate_bird_peacock_1.png	33	animate	bird	peacock	1	0	3	boats	3	incorrect	0.527507582475664
60913	1	stim117_inanimate_clothing_socks_1.png	117	inanimate	clothing	socks	1	0	3	boats	3	incorrect	0.527507582475664
60963	1	stim158_inanimate_furniture_table_2.png	158	inanimate	furniture	table	2	0	3	boats	3	incorrect	0.527507582475664
61013	1	stim161_inanimate_plants_bush_1.png	161	inanimate	plants	bush	1	0	3	boats	3	incorrect	0.527507582475664
61063	1	stim099_animate_mammal_rhino_3.png	99	animate	mammal	rhino	3	0	3	boats	3	incorrect	0.527507582475664
61113	1	stim047_animate_human_child_3.png	47	animate	human	child	3	0	3	boats	3	incorrect	0.527507582475664
61163	1	stim200_inanimate_tools_wrench_4.png	200	inanimate	tools	wrench	4	0	3	boats	3	incorrect	0.527507582475664
61213	1	stim065_animate_insect_bug_1.png	65	animate	insect	bug	1	0	3	boats	3	incorrect	0.527507582475664
61263	1	stim159_inanimate_furniture_table_3.png	159	inanimate	furniture	table	3	0	3	boats	3	incorrect	0.527507582475664
61313	1	stim130_inanimate_fruits_grape_2.png	130	inanimate	fruits	grape	2	0	3	boats	3	incorrect	0.527507582475664
61363	1	stim044_animate_human_baby_4.png	44	animate	human	baby	4	0	3	boats	3	incorrect	0.527507582475664
61413	1	stim046_animate_human_child_2.png	46	animate	human	child	2	0	3	boats	3	incorrect	0.527507582475664
61463	1	stim009_animate_aquatic_seahorse_1.png	9	animate	aquatic	seahorse	1	0	3	boats	3	incorrect	0.527507582475664
61513	1	stim016_animate_aquatic_shark_4.png	16	animate	aquatic	shark	4	0	3	boats	3	incorrect	0.527507582475664
61563	1	stim031_animate_bird_parrot_3.png	31	animate	bird	parrot	3	0	3	boats	3	incorrect	0.527507582475664
61613	1	stim164_inanimate_plants_bush_4.png	164	inanimate	plants	bush	4	0	3	boats	3	incorrect	0.527507582475664
61663	1	stim151_inanimate_furniture_closet_3.png	151	inanimate	furniture	closet	3	0	3	boats	3	incorrect	0.527507582475664
61713	1	stim143_inanimate_furniture_bed_3.png	143	inanimate	furniture	bed	3	0	3	boats	3	incorrect	0.527507582475664
61763	1	stim057_animate_human_sports_1.png	57	animate	human	sports	1	0	3	boats	3	incorrect	0.527507582475664
61813	1	stim181_inanimate_tools_broom_1.png	181	inanimate	tools	broom	1	0	3	boats	3	incorrect	0.527507582475664
61863	1	stim166_inanimate_plants_cactus_2.png	166	inanimate	plants	cactus	2	0	3	boats	3	incorrect	0.527507582475664
61913	1	stim138_inanimate_fruits_strawberry_2.png	138	inanimate	fruits	strawberry	2	0	3	boats	3	incorrect	0.527507582475664
61963	1	stim147_inanimate_furniture_chair_3.png	147	inanimate	furniture	chair	3	0	3	boats	3	incorrect	0.527507582475664
62013	1	stim064_animate_insect_ant_4.png	64	animate	insect	ant	4	0	3	boats	3	incorrect	0.527507582475664
62063	1	stim170_inanimate_plants_sunflower_2.png	170	inanimate	plants	sunflower	2	0	3	boats	3	incorrect	0.527507582475664
62113	1	stim002_animate_aquatic_crab_2.png	2	animate	aquatic	crab	2	0	3	boats	3	incorrect	0.527507582475664
62163	1	stim208_targets_object_boats_4.png	208	targets	object	boats	4	1	3	boats	3	incorrect	0.527507582475664
62213	1	stim179_inanimate_plants_tulip_3.png	179	inanimate	plants	tulip	3	0	3	boats	3	incorrect	0.527507582475664
62263	1	stim165_inanimate_plants_cactus_1.png	165	inanimate	plants	cactus	1	0	3	boats	3	incorrect	0.527507582475664
62313	1	stim107_inanimate_clothing_hat_3.png	107	inanimate	clothing	hat	3	0	3	boats	3	incorrect	0.527507582475664
62363	1	stim050_animate_human_clown_2.png	50	animate	human	clown	2	0	3	boats	3	incorrect	0.527507582475664
62413	1	stim191_inanimate_tools_pan_3.png	191	inanimate	tools	pan	3	0	3	boats	3	incorrect	0.527507582475664
62463	1	stim048_animate_human_child_4.png	48	animate	human	child	4	0	3	boats	3	incorrect	0.527507582475664
62513	1	stim182_inanimate_tools_broom_2.png	182	inanimate	tools	broom	2	0	3	boats	3	incorrect	0.527507582475664
62563	1	stim085_animate_mammal_giraffe_1.png	85	animate	mammal	giraffe	1	0	3	boats	3	incorrect	0.527507582475664
62613	1	stim091_animate_mammal_kangaroo_3.png	91	animate	mammal	kangaroo	3	0	3	boats	3	incorrect	0.527507582475664
62663	1	stim096_animate_mammal_monkey_4.png	96	animate	mammal	monkey	4	0	3	boats	3	incorrect	0.527507582475664
62713	1	stim139_inanimate_fruits_strawberry_3.png	139	inanimate	fruits	strawberry	3	0	3	boats	3	incorrect	0.527507582475664
62763	1	stim192_inanimate_tools_pan_4.png	192	inanimate	tools	pan	4	0	3	boats	3	incorrect	0.527507582475664
62813	1	stim011_animate_aquatic_seahorse_3.png	11	animate	aquatic	seahorse	3	0	3	boats	3	incorrect	0.527507582475664
62863	1	stim017_animate_aquatic_shrimp_1.png	17	animate	aquatic	shrimp	1	0	3	boats	3	incorrect	0.527507582475664
62913	1	stim082_animate_mammal_cow_2.png	82	animate	mammal	cow	2	0	3	boats	3	incorrect	0.527507582475664
62963	1	stim040_animate_bird_penguin_4.png	40	animate	bird	penguin	4	0	3	boats	3	incorrect	0.527507582475664
63013	1	stim087_animate_mammal_giraffe_3.png	87	animate	mammal	giraffe	3	0	3	boats	3	incorrect	0.527507582475664
63063	1	stim028_animate_bird_duck_4.png	28	animate	bird	duck	4	0	3	boats	3	incorrect	0.527507582475664
63113	1	stim092_animate_mammal_kangaroo_4.png	92	animate	mammal	kangaroo	4	0	3	boats	3	incorrect	0.527507582475664
63163	1	stim051_animate_human_clown_3.png	51	animate	human	clown	3	0	3	boats	3	incorrect	0.527507582475664
63213	1	stim058_animate_human_sports_2.png	58	animate	human	sports	2	0	3	boats	3	incorrect	0.527507582475664
63263	1	stim029_animate_bird_parrot_1.png	29	animate	bird	parrot	1	0	3	boats	3	incorrect	0.527507582475664
63313	1	stim148_inanimate_furniture_chair_4.png	148	inanimate	furniture	chair	4	0	3	boats	3	incorrect	0.527507582475664
63363	1	stim186_inanimate_tools_hammer_2.png	186	inanimate	tools	hammer	2	0	3	boats	3	incorrect	0.527507582475664
63413	1	stim054_animate_human_faces_2.png	54	animate	human	faces	2	0	3	boats	3	incorrect	0.527507582475664
63463	1	stim038_animate_bird_penguin_2.png	38	animate	bird	penguin	2	0	3	boats	3	incorrect	0.527507582475664
63513	1	stim132_inanimate_fruits_grape_4.png	132	inanimate	fruits	grape	4	0	3	boats	3	incorrect	0.527507582475664
63563	1	stim103_inanimate_clothing_gloves_3.png	103	inanimate	clothing	gloves	3	0	3	boats	3	incorrect	0.527507582475664
63613	1	stim110_inanimate_clothing_jeans_2.png	110	inanimate	clothing	jeans	2	0	3	boats	3	incorrect	0.527507582475664
63663	1	stim123_inanimate_fruits_apple_3.png	123	inanimate	fruits	apple	3	0	3	boats	3	incorrect	0.527507582475664
63713	1	stim180_inanimate_plants_tulip_4.png	180	inanimate	plants	tulip	4	0	3	boats	3	incorrect	0.527507582475664
63763	1	stim188_inanimate_tools_hammer_4.png	188	inanimate	tools	hammer	4	0	3	boats	3	incorrect	0.527507582475664
63813	1	stim097_animate_mammal_rhino_1.png	97	animate	mammal	rhino	1	0	3	boats	3	incorrect	0.527507582475664
63863	1	stim094_animate_mammal_monkey_2.png	94	animate	mammal	monkey	2	0	3	boats	3	incorrect	0.527507582475664
63913	1	stim043_animate_human_baby_3.png	43	animate	human	baby	3	0	3	boats	3	incorrect	0.527507582475664
63963	1	stim024_animate_bird_chicken_4.png	24	animate	bird	chicken	4	0	3	boats	3	incorrect	0.527507582475664
64013	1	stim163_inanimate_plants_bush_3.png	163	inanimate	plants	bush	3	0	3	boats	3	incorrect	0.527507582475664
64063	1	stim120_inanimate_clothing_socks_4.png	120	inanimate	clothing	socks	4	0	3	boats	3	incorrect	0.527507582475664
64113	1	stim056_animate_human_faces_4.png	56	animate	human	faces	4	0	3	boats	3	incorrect	0.527507582475664
64163	1	stim206_targets_object_boats_2.png	206	targets	object	boats	2	1	3	boats	3	incorrect	0.527507582475664
64213	1	stim134_inanimate_fruits_pineapple_2.png	134	inanimate	fruits	pineapple	2	0	3	boats	3	incorrect	0.527507582475664
64263	1	stim194_inanimate_tools_scissors_2.png	194	inanimate	tools	scissors	2	0	3	boats	3	incorrect	0.527507582475664
64313	1	stim153_inanimate_furniture_sofa_1.png	153	inanimate	furniture	sofa	1	0	3	boats	3	incorrect	0.527507582475664
64363	1	stim030_animate_bird_parrot_2.png	30	animate	bird	parrot	2	0	3	boats	3	incorrect	0.527507582475664
64413	1	stim026_animate_bird_duck_2.png	26	animate	bird	duck	2	0	3	boats	3	incorrect	0.527507582475664
64463	1	stim084_animate_mammal_cow_4.png	84	animate	mammal	cow	4	0	3	boats	3	incorrect	0.527507582475664
64513	1	stim102_inanimate_clothing_gloves_2.png	102	inanimate	clothing	gloves	2	0	3	boats	3	incorrect	0.527507582475664
64563	1	stim142_inanimate_furniture_bed_2.png	142	inanimate	furniture	bed	2	0	3	boats	3	incorrect	0.527507582475664
64613	1	stim119_inanimate_clothing_socks_3.png	119	inanimate	clothing	socks	3	0	3	boats	3	incorrect	0.527507582475664
64663	1	stim063_animate_insect_ant_3.png	63	animate	insect	ant	3	0	3	boats	3	incorrect	0.527507582475664
64713	1	stim004_animate_aquatic_crab_4.png	4	animate	aquatic	crab	4	0	3	boats	3	incorrect	0.527507582475664
64763	1	stim167_inanimate_plants_cactus_3.png	167	inanimate	plants	cactus	3	0	3	boats	3	incorrect	0.527507582475664
64813	1	stim155_inanimate_furniture_sofa_3.png	155	inanimate	furniture	sofa	3	0	3	boats	3	incorrect	0.527507582475664
64863	1	stim061_animate_insect_ant_1.png	61	animate	insect	ant	1	0	3	boats	3	incorrect	0.527507582475664
64913	1	stim080_animate_insect_grasshopper_4.png	80	animate	insect	grasshopper	4	0	3	boats	3	incorrect	0.527507582475664
64963	1	stim077_animate_insect_grasshopper_1.png	77	animate	insect	grasshopper	1	0	3	boats	3	incorrect	0.527507582475664
65013	1	stim129_inanimate_fruits_grape_1.png	129	inanimate	fruits	grape	1	0	3	boats	3	incorrect	0.527507582475664
65063	1	stim095_animate_mammal_monkey_3.png	95	animate	mammal	monkey	3	0	3	boats	3	incorrect	0.527507582475664
65113	1	stim075_animate_insect_dragonfly_3.png	75	animate	insect	dragonfly	3	0	3	boats	3	incorrect	0.527507582475664
65163	1	stim145_inanimate_furniture_chair_1.png	145	inanimate	furniture	chair	1	0	3	boats	3	incorrect	0.527507582475664
65213	1	stim187_inanimate_tools_hammer_3.png	187	inanimate	tools	hammer	3	0	3	boats	3	incorrect	0.527507582475664
65263	1	stim127_inanimate_fruits_banana_3.png	127	inanimate	fruits	banana	3	0	3	boats	3	incorrect	0.527507582475664
65313	1	stim001_animate_aquatic_crab_1.png	1	animate	aquatic	crab	1	0	3	boats	3	incorrect	0.527507582475664
65363	1	stim137_inanimate_fruits_strawberry_1.png	137	inanimate	fruits	strawberry	1	0	3	boats	3	incorrect	0.527507582475664
65413	1	stim141_inanimate_furniture_bed_1.png	141	inanimate	furniture	bed	1	0	3	boats	3	incorrect	0.527507582475664
65463	1	stim189_inanimate_tools_pan_1.png	189	inanimate	tools	pan	1	0	3	boats	3	incorrect	0.527507582475664
65513	1	stim008_animate_aquatic_fish_4.png	8	animate	aquatic	fish	4	0	3	boats	3	incorrect	0.527507582475664
65563	1	stim022_animate_bird_chicken_2.png	22	animate	bird	chicken	2	0	3	boats	3	incorrect	0.527507582475664
65613	1	stim190_inanimate_tools_pan_2.png	190	inanimate	tools	pan	2	0	3	boats	3	incorrect	0.527507582475664
65663	1	stim144_inanimate_furniture_bed_4.png	144	inanimate	furniture	bed	4	0	3	boats	3	incorrect	0.527507582475664
65713	1	stim174_inanimate_plants_tree_2.png	174	inanimate	plants	tree	2	0	3	boats	3	incorrect	0.527507582475664
65763	1	stim035_animate_bird_peacock_3.png	35	animate	bird	peacock	3	0	3	boats	3	incorrect	0.527507582475664
65813	1	stim199_inanimate_tools_wrench_3.png	199	inanimate	tools	wrench	3	0	3	boats	3	incorrect	0.527507582475664
65863	1	stim114_inanimate_clothing_shirt_2.png	114	inanimate	clothing	shirt	2	0	3	boats	3	incorrect	0.527507582475664
65913	1	stim118_inanimate_clothing_socks_2.png	118	inanimate	clothing	socks	2	0	3	boats	3	incorrect	0.527507582475664
65963	1	stim023_animate_bird_chicken_3.png	23	animate	bird	chicken	3	0	3	boats	3	incorrect	0.527507582475664
66013	1	stim041_animate_human_baby_1.png	41	animate	human	baby	1	0	3	boats	3	incorrect	0.527507582475664
66063	1	stim172_inanimate_plants_sunflower_4.png	172	inanimate	plants	sunflower	4	0	3	boats	3	incorrect	0.527507582475664
66113	1	stim053_animate_human_faces_1.png	53	animate	human	faces	1	0	3	boats	3	incorrect	0.527507582475664
66163	1	stim062_animate_insect_ant_2.png	62	animate	insect	ant	2	0	3	boats	3	incorrect	0.527507582475664
66213	1	stim108_inanimate_clothing_hat_4.png	108	inanimate	clothing	hat	4	0	3	boats	3	incorrect	0.527507582475664
66263	1	stim025_animate_bird_duck_1.png	25	animate	bird	duck	1	0	3	boats	3	incorrect	0.527507582475664
66313	1	stim021_animate_bird_chicken_1.png	21	animate	bird	chicken	1	0	3	boats	3	incorrect	0.527507582475664
66363	1	stim018_animate_aquatic_shrimp_2.png	18	animate	aquatic	shrimp	2	0	3	boats	3	incorrect	0.527507582475664
66413	1	stim086_animate_mammal_giraffe_2.png	86	animate	mammal	giraffe	2	0	3	boats	3	incorrect	0.527507582475664
66463	1	stim184_inanimate_tools_broom_4.png	184	inanimate	tools	broom	4	0	3	boats	3	incorrect	0.527507582475664
66513	1	stim124_inanimate_fruits_apple_4.png	124	inanimate	fruits	apple	4	0	3	boats	3	incorrect	0.527507582475664
69397	1	stim028_animate_bird_duck_4.png	28	animate	bird	duck	4	0	4	boats	1	incorrect	0.872484859428369
69447	1	stim185_inanimate_tools_hammer_1.png	185	inanimate	tools	hammer	1	0	4	boats	1	incorrect	0.872484859428369
69497	1	stim089_animate_mammal_kangaroo_1.png	89	animate	mammal	kangaroo	1	0	4	boats	1	incorrect	0.872484859428369
69547	1	stim117_inanimate_clothing_socks_1.png	117	inanimate	clothing	socks	1	0	4	boats	1	incorrect	0.872484859428369
69597	1	stim039_animate_bird_penguin_3.png	39	animate	bird	penguin	3	0	4	boats	1	incorrect	0.872484859428369
69647	1	stim191_inanimate_tools_pan_3.png	191	inanimate	tools	pan	3	0	4	boats	1	incorrect	0.872484859428369
69697	1	stim095_animate_mammal_monkey_3.png	95	animate	mammal	monkey	3	0	4	boats	1	incorrect	0.872484859428369
69747	1	stim130_inanimate_fruits_grape_2.png	130	inanimate	fruits	grape	2	0	4	boats	1	incorrect	0.872484859428369
69797	1	stim032_animate_bird_parrot_4.png	32	animate	bird	parrot	4	0	4	boats	1	incorrect	0.872484859428369
69847	1	stim097_animate_mammal_rhino_1.png	97	animate	mammal	rhino	1	0	4	boats	1	incorrect	0.872484859428369
69897	1	stim126_inanimate_fruits_banana_2.png	126	inanimate	fruits	banana	2	0	4	boats	1	incorrect	0.872484859428369
69947	1	stim073_animate_insect_dragonfly_1.png	73	animate	insect	dragonfly	1	0	4	boats	1	incorrect	0.872484859428369
69997	1	stim156_inanimate_furniture_sofa_4.png	156	inanimate	furniture	sofa	4	0	4	boats	1	incorrect	0.872484859428369
70047	1	stim113_inanimate_clothing_shirt_1.png	113	inanimate	clothing	shirt	1	0	4	boats	1	incorrect	0.872484859428369
70097	1	stim027_animate_bird_duck_3.png	27	animate	bird	duck	3	0	4	boats	1	incorrect	0.872484859428369
70147	1	stim176_inanimate_plants_tree_4.png	176	inanimate	plants	tree	4	0	4	boats	1	incorrect	0.872484859428369
70197	1	stim108_inanimate_clothing_hat_4.png	108	inanimate	clothing	hat	4	0	4	boats	1	incorrect	0.872484859428369
70247	1	stim092_animate_mammal_kangaroo_4.png	92	animate	mammal	kangaroo	4	0	4	boats	1	incorrect	0.872484859428369
70297	1	stim174_inanimate_plants_tree_2.png	174	inanimate	plants	tree	2	0	4	boats	1	incorrect	0.872484859428369
70347	1	stim062_animate_insect_ant_2.png	62	animate	insect	ant	2	0	4	boats	1	incorrect	0.872484859428369
70397	1	stim083_animate_mammal_cow_3.png	83	animate	mammal	cow	3	0	4	boats	1	incorrect	0.872484859428369
70447	1	stim147_inanimate_furniture_chair_3.png	147	inanimate	furniture	chair	3	0	4	boats	1	incorrect	0.872484859428369
70497	1	stim198_inanimate_tools_wrench_2.png	198	inanimate	tools	wrench	2	0	4	boats	1	incorrect	0.872484859428369
70547	1	stim190_inanimate_tools_pan_2.png	190	inanimate	tools	pan	2	0	4	boats	1	incorrect	0.872484859428369
70597	1	stim118_inanimate_clothing_socks_2.png	118	inanimate	clothing	socks	2	0	4	boats	1	incorrect	0.872484859428369
70647	1	stim129_inanimate_fruits_grape_1.png	129	inanimate	fruits	grape	1	0	4	boats	1	incorrect	0.872484859428369
70697	1	stim150_inanimate_furniture_closet_2.png	150	inanimate	furniture	closet	2	0	4	boats	1	incorrect	0.872484859428369
70747	1	stim102_inanimate_clothing_gloves_2.png	102	inanimate	clothing	gloves	2	0	4	boats	1	incorrect	0.872484859428369
70797	1	stim009_animate_aquatic_seahorse_1.png	9	animate	aquatic	seahorse	1	0	4	boats	1	incorrect	0.872484859428369
70847	1	stim013_animate_aquatic_shark_1.png	13	animate	aquatic	shark	1	0	4	boats	1	incorrect	0.872484859428369
70897	1	stim096_animate_mammal_monkey_4.png	96	animate	mammal	monkey	4	0	4	boats	1	incorrect	0.872484859428369
70947	1	stim124_inanimate_fruits_apple_4.png	124	inanimate	fruits	apple	4	0	4	boats	1	incorrect	0.872484859428369
70997	1	stim134_inanimate_fruits_pineapple_2.png	134	inanimate	fruits	pineapple	2	0	4	boats	1	incorrect	0.872484859428369
71047	1	stim172_inanimate_plants_sunflower_4.png	172	inanimate	plants	sunflower	4	0	4	boats	1	incorrect	0.872484859428369
71097	1	stim175_inanimate_plants_tree_3.png	175	inanimate	plants	tree	3	0	4	boats	1	incorrect	0.872484859428369
71147	1	stim138_inanimate_fruits_strawberry_2.png	138	inanimate	fruits	strawberry	2	0	4	boats	1	incorrect	0.872484859428369
71197	1	stim142_inanimate_furniture_bed_2.png	142	inanimate	furniture	bed	2	0	4	boats	1	incorrect	0.872484859428369
71247	1	stim179_inanimate_plants_tulip_3.png	179	inanimate	plants	tulip	3	0	4	boats	1	incorrect	0.872484859428369
71297	1	stim166_inanimate_plants_cactus_2.png	166	inanimate	plants	cactus	2	0	4	boats	1	incorrect	0.872484859428369
71347	1	stim106_inanimate_clothing_hat_2.png	106	inanimate	clothing	hat	2	0	4	boats	1	incorrect	0.872484859428369
71397	1	stim187_inanimate_tools_hammer_3.png	187	inanimate	tools	hammer	3	0	4	boats	1	incorrect	0.872484859428369
71447	1	stim017_animate_aquatic_shrimp_1.png	17	animate	aquatic	shrimp	1	0	4	boats	1	incorrect	0.872484859428369
71497	1	stim123_inanimate_fruits_apple_3.png	123	inanimate	fruits	apple	3	0	4	boats	1	incorrect	0.872484859428369
71547	1	stim055_animate_human_faces_3.png	55	animate	human	faces	3	0	4	boats	1	incorrect	0.872484859428369
71597	1	stim041_animate_human_baby_1.png	41	animate	human	baby	1	0	4	boats	1	incorrect	0.872484859428369
71647	1	stim146_inanimate_furniture_chair_2.png	146	inanimate	furniture	chair	2	0	4	boats	1	incorrect	0.872484859428369
71697	1	stim031_animate_bird_parrot_3.png	31	animate	bird	parrot	3	0	4	boats	1	incorrect	0.872484859428369
71747	1	stim091_animate_mammal_kangaroo_3.png	91	animate	mammal	kangaroo	3	0	4	boats	1	incorrect	0.872484859428369
71797	1	stim167_inanimate_plants_cactus_3.png	167	inanimate	plants	cactus	3	0	4	boats	1	incorrect	0.872484859428369
71847	1	stim183_inanimate_tools_broom_3.png	183	inanimate	tools	broom	3	0	4	boats	1	incorrect	0.872484859428369
71897	1	stim042_animate_human_baby_2.png	42	animate	human	baby	2	0	4	boats	1	incorrect	0.872484859428369
71947	1	stim020_animate_aquatic_shrimp_4.png	20	animate	aquatic	shrimp	4	0	4	boats	1	incorrect	0.872484859428369
71997	1	stim168_inanimate_plants_cactus_4.png	168	inanimate	plants	cactus	4	0	4	boats	1	incorrect	0.872484859428369
72047	1	stim195_inanimate_tools_scissors_3.png	195	inanimate	tools	scissors	3	0	4	boats	1	incorrect	0.872484859428369
72097	1	stim007_animate_aquatic_fish_3.png	7	animate	aquatic	fish	3	0	4	boats	1	incorrect	0.872484859428369
72147	1	stim088_animate_mammal_giraffe_4.png	88	animate	mammal	giraffe	4	0	4	boats	1	incorrect	0.872484859428369
72197	1	stim056_animate_human_faces_4.png	56	animate	human	faces	4	0	4	boats	1	incorrect	0.872484859428369
72247	1	stim169_inanimate_plants_sunflower_1.png	169	inanimate	plants	sunflower	1	0	4	boats	1	incorrect	0.872484859428369
72297	1	stim040_animate_bird_penguin_4.png	40	animate	bird	penguin	4	0	4	boats	1	incorrect	0.872484859428369
72347	1	stim140_inanimate_fruits_strawberry_4.png	140	inanimate	fruits	strawberry	4	0	4	boats	1	incorrect	0.872484859428369
72397	1	stim120_inanimate_clothing_socks_4.png	120	inanimate	clothing	socks	4	0	4	boats	1	incorrect	0.872484859428369
72447	1	stim165_inanimate_plants_cactus_1.png	165	inanimate	plants	cactus	1	0	4	boats	1	incorrect	0.872484859428369
72497	1	stim203_targets_object_boats_3.png	203	targets	object	boats	3	1	4	boats	1	incorrect	0.872484859428369
72547	1	stim133_inanimate_fruits_pineapple_1.png	133	inanimate	fruits	pineapple	1	0	4	boats	1	incorrect	0.872484859428369
72597	1	stim199_inanimate_tools_wrench_3.png	199	inanimate	tools	wrench	3	0	4	boats	1	incorrect	0.872484859428369
72647	1	stim001_animate_aquatic_crab_1.png	1	animate	aquatic	crab	1	0	4	boats	1	incorrect	0.872484859428369
72697	1	stim153_inanimate_furniture_sofa_1.png	153	inanimate	furniture	sofa	1	0	4	boats	1	incorrect	0.872484859428369
72747	1	stim112_inanimate_clothing_jeans_4.png	112	inanimate	clothing	jeans	4	0	4	boats	1	incorrect	0.872484859428369
72797	1	stim029_animate_bird_parrot_1.png	29	animate	bird	parrot	1	0	4	boats	1	incorrect	0.872484859428369
72847	1	stim018_animate_aquatic_shrimp_2.png	18	animate	aquatic	shrimp	2	0	4	boats	1	incorrect	0.872484859428369
72897	1	stim178_inanimate_plants_tulip_2.png	178	inanimate	plants	tulip	2	0	4	boats	1	incorrect	0.872484859428369
72947	1	stim069_animate_insect_butterfly_1.png	69	animate	insect	butterfly	1	0	4	boats	1	incorrect	0.872484859428369
72997	1	stim035_animate_bird_peacock_3.png	35	animate	bird	peacock	3	0	4	boats	1	incorrect	0.872484859428369
73047	1	stim050_animate_human_clown_2.png	50	animate	human	clown	2	0	4	boats	1	incorrect	0.872484859428369
73097	1	stim047_animate_human_child_3.png	47	animate	human	child	3	0	4	boats	1	incorrect	0.872484859428369
73147	1	stim098_animate_mammal_rhino_2.png	98	animate	mammal	rhino	2	0	4	boats	1	incorrect	0.872484859428369
73197	1	stim026_animate_bird_duck_2.png	26	animate	bird	duck	2	0	4	boats	1	incorrect	0.872484859428369
73247	1	stim151_inanimate_furniture_closet_3.png	151	inanimate	furniture	closet	3	0	4	boats	1	incorrect	0.872484859428369
73297	1	stim180_inanimate_plants_tulip_4.png	180	inanimate	plants	tulip	4	0	4	boats	1	incorrect	0.872484859428369
73347	1	stim159_inanimate_furniture_table_3.png	159	inanimate	furniture	table	3	0	4	boats	1	incorrect	0.872484859428369
73397	1	stim139_inanimate_fruits_strawberry_3.png	139	inanimate	fruits	strawberry	3	0	4	boats	1	incorrect	0.872484859428369
73447	1	stim061_animate_insect_ant_1.png	61	animate	insect	ant	1	0	4	boats	1	incorrect	0.872484859428369
73497	1	stim107_inanimate_clothing_hat_3.png	107	inanimate	clothing	hat	3	0	4	boats	1	incorrect	0.872484859428369
73547	1	stim143_inanimate_furniture_bed_3.png	143	inanimate	furniture	bed	3	0	4	boats	1	incorrect	0.872484859428369
73597	1	stim182_inanimate_tools_broom_2.png	182	inanimate	tools	broom	2	0	4	boats	1	incorrect	0.872484859428369
73647	1	stim116_inanimate_clothing_shirt_4.png	116	inanimate	clothing	shirt	4	0	4	boats	1	incorrect	0.872484859428369
73697	1	stim094_animate_mammal_monkey_2.png	94	animate	mammal	monkey	2	0	4	boats	1	incorrect	0.872484859428369
73747	1	stim103_inanimate_clothing_gloves_3.png	103	inanimate	clothing	gloves	3	0	4	boats	1	incorrect	0.872484859428369
73797	1	stim131_inanimate_fruits_grape_3.png	131	inanimate	fruits	grape	3	0	4	boats	1	incorrect	0.872484859428369
73847	1	stim158_inanimate_furniture_table_2.png	158	inanimate	furniture	table	2	0	4	boats	1	incorrect	0.872484859428369
73897	1	stim127_inanimate_fruits_banana_3.png	127	inanimate	fruits	banana	3	0	4	boats	1	incorrect	0.872484859428369
73947	1	stim005_animate_aquatic_fish_1.png	5	animate	aquatic	fish	1	0	4	boats	1	incorrect	0.872484859428369
73997	1	stim181_inanimate_tools_broom_1.png	181	inanimate	tools	broom	1	0	4	boats	1	incorrect	0.872484859428369
74047	1	stim052_animate_human_clown_4.png	52	animate	human	clown	4	0	4	boats	1	incorrect	0.872484859428369
74097	1	stim016_animate_aquatic_shark_4.png	16	animate	aquatic	shark	4	0	4	boats	1	incorrect	0.872484859428369
74147	1	stim128_inanimate_fruits_banana_4.png	128	inanimate	fruits	banana	4	0	4	boats	1	incorrect	0.872484859428369
74197	1	stim163_inanimate_plants_bush_3.png	163	inanimate	plants	bush	3	0	4	boats	1	incorrect	0.872484859428369
74247	1	stim015_animate_aquatic_shark_3.png	15	animate	aquatic	shark	3	0	4	boats	1	incorrect	0.872484859428369
74297	1	stim025_animate_bird_duck_1.png	25	animate	bird	duck	1	0	4	boats	1	incorrect	0.872484859428369
74347	1	stim119_inanimate_clothing_socks_3.png	119	inanimate	clothing	socks	3	0	4	boats	1	incorrect	0.872484859428369
74397	1	stim037_animate_bird_penguin_1.png	37	animate	bird	penguin	1	0	4	boats	1	incorrect	0.872484859428369
74447	1	stim109_inanimate_clothing_jeans_1.png	109	inanimate	clothing	jeans	1	0	4	boats	1	incorrect	0.872484859428369
74497	1	stim207_targets_object_boats_3.png	207	targets	object	boats	3	1	4	boats	1	incorrect	0.872484859428369
74547	1	stim152_inanimate_furniture_closet_4.png	152	inanimate	furniture	closet	4	0	4	boats	1	incorrect	0.872484859428369
74597	1	stim200_inanimate_tools_wrench_4.png	200	inanimate	tools	wrench	4	0	4	boats	1	incorrect	0.872484859428369
74647	1	stim060_animate_human_sports_4.png	60	animate	human	sports	4	0	4	boats	1	incorrect	0.872484859428369
74697	1	stim054_animate_human_faces_2.png	54	animate	human	faces	2	0	4	boats	1	incorrect	0.872484859428369
74747	1	stim045_animate_human_child_1.png	45	animate	human	child	1	0	4	boats	1	incorrect	0.872484859428369
74797	1	stim193_inanimate_tools_scissors_1.png	193	inanimate	tools	scissors	1	0	4	boats	1	incorrect	0.872484859428369
74847	1	stim149_inanimate_furniture_closet_1.png	149	inanimate	furniture	closet	1	0	4	boats	1	incorrect	0.872484859428369
74897	1	stim110_inanimate_clothing_jeans_2.png	110	inanimate	clothing	jeans	2	0	4	boats	1	incorrect	0.872484859428369
74947	1	stim044_animate_human_baby_4.png	44	animate	human	baby	4	0	4	boats	1	incorrect	0.872484859428369
74997	1	stim077_animate_insect_grasshopper_1.png	77	animate	insect	grasshopper	1	0	4	boats	1	incorrect	0.872484859428369
75047	1	stim160_inanimate_furniture_table_4.png	160	inanimate	furniture	table	4	0	4	boats	1	incorrect	0.872484859428369
75097	1	stim011_animate_aquatic_seahorse_3.png	11	animate	aquatic	seahorse	3	0	4	boats	1	incorrect	0.872484859428369
75147	1	stim144_inanimate_furniture_bed_4.png	144	inanimate	furniture	bed	4	0	4	boats	1	incorrect	0.872484859428369
75197	1	stim010_animate_aquatic_seahorse_2.png	10	animate	aquatic	seahorse	2	0	4	boats	1	incorrect	0.872484859428369
75247	1	stim046_animate_human_child_2.png	46	animate	human	child	2	0	4	boats	1	incorrect	0.872484859428369
75297	1	stim063_animate_insect_ant_3.png	63	animate	insect	ant	3	0	4	boats	1	incorrect	0.872484859428369
75347	1	stim171_inanimate_plants_sunflower_3.png	171	inanimate	plants	sunflower	3	0	4	boats	1	incorrect	0.872484859428369
75397	1	stim033_animate_bird_peacock_1.png	33	animate	bird	peacock	1	0	4	boats	1	incorrect	0.872484859428369
75447	1	stim057_animate_human_sports_1.png	57	animate	human	sports	1	0	4	boats	1	incorrect	0.872484859428369
75497	1	stim002_animate_aquatic_crab_2.png	2	animate	aquatic	crab	2	0	4	boats	1	incorrect	0.872484859428369
75547	1	stim085_animate_mammal_giraffe_1.png	85	animate	mammal	giraffe	1	0	4	boats	1	incorrect	0.872484859428369
75597	1	stim177_inanimate_plants_tulip_1.png	177	inanimate	plants	tulip	1	0	4	boats	1	incorrect	0.872484859428369
75647	1	stim093_animate_mammal_monkey_1.png	93	animate	mammal	monkey	1	0	4	boats	1	incorrect	0.872484859428369
75697	1	stim087_animate_mammal_giraffe_3.png	87	animate	mammal	giraffe	3	0	4	boats	1	incorrect	0.872484859428369
75747	1	stim049_animate_human_clown_1.png	49	animate	human	clown	1	0	4	boats	1	incorrect	0.872484859428369
75797	1	stim071_animate_insect_butterfly_3.png	71	animate	insect	butterfly	3	0	4	boats	1	incorrect	0.872484859428369
75847	1	stim074_animate_insect_dragonfly_2.png	74	animate	insect	dragonfly	2	0	4	boats	1	incorrect	0.872484859428369
75897	1	stim135_inanimate_fruits_pineapple_3.png	135	inanimate	fruits	pineapple	3	0	4	boats	1	incorrect	0.872484859428369
75947	1	stim084_animate_mammal_cow_4.png	84	animate	mammal	cow	4	0	4	boats	1	incorrect	0.872484859428369
75997	1	stim058_animate_human_sports_2.png	58	animate	human	sports	2	0	4	boats	1	incorrect	0.872484859428369
76047	1	stim014_animate_aquatic_shark_2.png	14	animate	aquatic	shark	2	0	4	boats	1	incorrect	0.872484859428369
76097	1	stim051_animate_human_clown_3.png	51	animate	human	clown	3	0	4	boats	1	incorrect	0.872484859428369
76147	1	stim192_inanimate_tools_pan_4.png	192	inanimate	tools	pan	4	0	4	boats	1	incorrect	0.872484859428369
76197	1	stim078_animate_insect_grasshopper_2.png	78	animate	insect	grasshopper	2	0	4	boats	1	incorrect	0.872484859428369
76247	1	stim019_animate_aquatic_shrimp_3.png	19	animate	aquatic	shrimp	3	0	4	boats	1	incorrect	0.872484859428369
76297	1	stim076_animate_insect_dragonfly_4.png	76	animate	insect	dragonfly	4	0	4	boats	1	incorrect	0.872484859428369
76347	1	stim075_animate_insect_dragonfly_3.png	75	animate	insect	dragonfly	3	0	4	boats	1	incorrect	0.872484859428369
76397	1	stim170_inanimate_plants_sunflower_2.png	170	inanimate	plants	sunflower	2	0	4	boats	1	incorrect	0.872484859428369
76447	1	stim157_inanimate_furniture_table_1.png	157	inanimate	furniture	table	1	0	4	boats	1	incorrect	0.872484859428369
76497	1	stim164_inanimate_plants_bush_4.png	164	inanimate	plants	bush	4	0	4	boats	1	incorrect	0.872484859428369
76547	1	stim064_animate_insect_ant_4.png	64	animate	insect	ant	4	0	4	boats	1	incorrect	0.872484859428369
76597	1	stim099_animate_mammal_rhino_3.png	99	animate	mammal	rhino	3	0	4	boats	1	incorrect	0.872484859428369
76647	1	stim202_targets_object_boats_2.png	202	targets	object	boats	2	1	4	boats	1	incorrect	0.872484859428369
76697	1	stim030_animate_bird_parrot_2.png	30	animate	bird	parrot	2	0	4	boats	1	incorrect	0.872484859428369
76747	1	stim189_inanimate_tools_pan_1.png	189	inanimate	tools	pan	1	0	4	boats	1	incorrect	0.872484859428369
76797	1	stim141_inanimate_furniture_bed_1.png	141	inanimate	furniture	bed	1	0	4	boats	1	incorrect	0.872484859428369
76847	1	stim105_inanimate_clothing_hat_1.png	105	inanimate	clothing	hat	1	0	4	boats	1	incorrect	0.872484859428369
76897	1	stim070_animate_insect_butterfly_2.png	70	animate	insect	butterfly	2	0	4	boats	1	incorrect	0.872484859428369
76947	1	stim081_animate_mammal_cow_1.png	81	animate	mammal	cow	1	0	4	boats	1	incorrect	0.872484859428369
76997	1	stim155_inanimate_furniture_sofa_3.png	155	inanimate	furniture	sofa	3	0	4	boats	1	incorrect	0.872484859428369
77047	1	stim065_animate_insect_bug_1.png	65	animate	insect	bug	1	0	4	boats	1	incorrect	0.872484859428369
77097	1	stim101_inanimate_clothing_gloves_1.png	101	inanimate	clothing	gloves	1	0	4	boats	1	incorrect	0.872484859428369
77147	1	stim079_animate_insect_grasshopper_3.png	79	animate	insect	grasshopper	3	0	4	boats	1	incorrect	0.872484859428369
77197	1	stim072_animate_insect_butterfly_4.png	72	animate	insect	butterfly	4	0	4	boats	1	incorrect	0.872484859428369
77247	1	stim184_inanimate_tools_broom_4.png	184	inanimate	tools	broom	4	0	4	boats	1	incorrect	0.872484859428369
77297	1	stim194_inanimate_tools_scissors_2.png	194	inanimate	tools	scissors	2	0	4	boats	1	incorrect	0.872484859428369
77347	1	stim162_inanimate_plants_bush_2.png	162	inanimate	plants	bush	2	0	4	boats	1	incorrect	0.872484859428369
77397	1	stim104_inanimate_clothing_gloves_4.png	104	inanimate	clothing	gloves	4	0	4	boats	1	incorrect	0.872484859428369
77447	1	stim086_animate_mammal_giraffe_2.png	86	animate	mammal	giraffe	2	0	4	boats	1	incorrect	0.872484859428369
77497	1	stim161_inanimate_plants_bush_1.png	161	inanimate	plants	bush	1	0	4	boats	1	incorrect	0.872484859428369
77547	1	stim006_animate_aquatic_fish_2.png	6	animate	aquatic	fish	2	0	4	boats	1	incorrect	0.872484859428369
77597	1	stim021_animate_bird_chicken_1.png	21	animate	bird	chicken	1	0	4	boats	1	incorrect	0.872484859428369
77647	1	stim082_animate_mammal_cow_2.png	82	animate	mammal	cow	2	0	4	boats	1	incorrect	0.872484859428369
77697	1	stim036_animate_bird_peacock_4.png	36	animate	bird	peacock	4	0	4	boats	1	incorrect	0.872484859428369
77747	1	stim114_inanimate_clothing_shirt_2.png	114	inanimate	clothing	shirt	2	0	4	boats	1	incorrect	0.872484859428369
77797	1	stim186_inanimate_tools_hammer_2.png	186	inanimate	tools	hammer	2	0	4	boats	1	incorrect	0.872484859428369
77847	1	stim068_animate_insect_bug_4.png	68	animate	insect	bug	4	0	4	boats	1	incorrect	0.872484859428369
77897	1	stim080_animate_insect_grasshopper_4.png	80	animate	insect	grasshopper	4	0	4	boats	1	incorrect	0.872484859428369
77947	1	stim034_animate_bird_peacock_2.png	34	animate	bird	peacock	2	0	4	boats	1	incorrect	0.872484859428369
77997	1	stim053_animate_human_faces_1.png	53	animate	human	faces	1	0	4	boats	1	incorrect	0.872484859428369
78047	1	stim137_inanimate_fruits_strawberry_1.png	137	inanimate	fruits	strawberry	1	0	4	boats	1	incorrect	0.872484859428369
78097	1	stim012_animate_aquatic_seahorse_4.png	12	animate	aquatic	seahorse	4	0	4	boats	1	incorrect	0.872484859428369
78147	1	stim008_animate_aquatic_fish_4.png	8	animate	aquatic	fish	4	0	4	boats	1	incorrect	0.872484859428369
78197	1	stim100_animate_mammal_rhino_4.png	100	animate	mammal	rhino	4	0	4	boats	1	incorrect	0.872484859428369
78247	1	stim059_animate_human_sports_3.png	59	animate	human	sports	3	0	4	boats	1	incorrect	0.872484859428369
78297	1	stim145_inanimate_furniture_chair_1.png	145	inanimate	furniture	chair	1	0	4	boats	1	incorrect	0.872484859428369
78347	1	stim148_inanimate_furniture_chair_4.png	148	inanimate	furniture	chair	4	0	4	boats	1	incorrect	0.872484859428369
78397	1	stim090_animate_mammal_kangaroo_2.png	90	animate	mammal	kangaroo	2	0	4	boats	1	incorrect	0.872484859428369
78447	1	stim023_animate_bird_chicken_3.png	23	animate	bird	chicken	3	0	4	boats	1	incorrect	0.872484859428369
78497	1	stim173_inanimate_plants_tree_1.png	173	inanimate	plants	tree	1	0	4	boats	1	incorrect	0.872484859428369
78547	1	stim022_animate_bird_chicken_2.png	22	animate	bird	chicken	2	0	4	boats	1	incorrect	0.872484859428369
78597	1	stim188_inanimate_tools_hammer_4.png	188	inanimate	tools	hammer	4	0	4	boats	1	incorrect	0.872484859428369
78647	1	stim111_inanimate_clothing_jeans_3.png	111	inanimate	clothing	jeans	3	0	4	boats	1	incorrect	0.872484859428369
78697	1	stim125_inanimate_fruits_banana_1.png	125	inanimate	fruits	banana	1	0	4	boats	1	incorrect	0.872484859428369
78747	1	stim048_animate_human_child_4.png	48	animate	human	child	4	0	4	boats	1	incorrect	0.872484859428369
78797	1	stim197_inanimate_tools_wrench_1.png	197	inanimate	tools	wrench	1	0	4	boats	1	incorrect	0.872484859428369
78847	1	stim066_animate_insect_bug_2.png	66	animate	insect	bug	2	0	4	boats	1	incorrect	0.872484859428369
78897	1	stim043_animate_human_baby_3.png	43	animate	human	baby	3	0	4	boats	1	incorrect	0.872484859428369
78947	1	stim122_inanimate_fruits_apple_2.png	122	inanimate	fruits	apple	2	0	4	boats	1	incorrect	0.872484859428369
78997	1	stim115_inanimate_clothing_shirt_3.png	115	inanimate	clothing	shirt	3	0	4	boats	1	incorrect	0.872484859428369
79047	1	stim121_inanimate_fruits_apple_1.png	121	inanimate	fruits	apple	1	0	4	boats	1	incorrect	0.872484859428369
79097	1	stim067_animate_insect_bug_3.png	67	animate	insect	bug	3	0	4	boats	1	incorrect	0.872484859428369
79147	1	stim136_inanimate_fruits_pineapple_4.png	136	inanimate	fruits	pineapple	4	0	4	boats	1	incorrect	0.872484859428369
79197	1	stim004_animate_aquatic_crab_4.png	4	animate	aquatic	crab	4	0	4	boats	1	incorrect	0.872484859428369
79247	1	stim024_animate_bird_chicken_4.png	24	animate	bird	chicken	4	0	4	boats	1	incorrect	0.872484859428369
79297	1	stim132_inanimate_fruits_grape_4.png	132	inanimate	fruits	grape	4	0	4	boats	1	incorrect	0.872484859428369
79347	1	stim003_animate_aquatic_crab_3.png	3	animate	aquatic	crab	3	0	4	boats	1	incorrect	0.872484859428369
79397	1	stim154_inanimate_furniture_sofa_2.png	154	inanimate	furniture	sofa	2	0	4	boats	1	incorrect	0.872484859428369
79447	1	stim038_animate_bird_penguin_2.png	38	animate	bird	penguin	2	0	4	boats	1	incorrect	0.872484859428369
79497	1	stim196_inanimate_tools_scissors_4.png	196	inanimate	tools	scissors	4	0	4	boats	1	incorrect	0.872484859428369
83514	1	stim030_animate_bird_parrot_2.png	30	animate	bird	parrot	2	0	5	stars	3	correct	0.566201884153998
83564	1	stim046_animate_human_child_2.png	46	animate	human	child	2	0	5	stars	3	correct	0.566201884153998
83614	1	stim146_inanimate_furniture_chair_2.png	146	inanimate	furniture	chair	2	0	5	stars	3	correct	0.566201884153998
83664	1	stim121_inanimate_fruits_apple_1.png	121	inanimate	fruits	apple	1	0	5	stars	3	correct	0.566201884153998
83714	1	stim090_animate_mammal_kangaroo_2.png	90	animate	mammal	kangaroo	2	0	5	stars	3	correct	0.566201884153998
83764	1	stim057_animate_human_sports_1.png	57	animate	human	sports	1	0	5	stars	3	correct	0.566201884153998
83814	1	stim079_animate_insect_grasshopper_3.png	79	animate	insect	grasshopper	3	0	5	stars	3	correct	0.566201884153998
83864	1	stim137_inanimate_fruits_strawberry_1.png	137	inanimate	fruits	strawberry	1	0	5	stars	3	correct	0.566201884153998
83914	1	stim093_animate_mammal_monkey_1.png	93	animate	mammal	monkey	1	0	5	stars	3	correct	0.566201884153998
83964	1	stim010_animate_aquatic_seahorse_2.png	10	animate	aquatic	seahorse	2	0	5	stars	3	correct	0.566201884153998
84014	1	stim039_animate_bird_penguin_3.png	39	animate	bird	penguin	3	0	5	stars	3	correct	0.566201884153998
84064	1	stim028_animate_bird_duck_4.png	28	animate	bird	duck	4	0	5	stars	3	correct	0.566201884153998
84114	1	stim125_inanimate_fruits_banana_1.png	125	inanimate	fruits	banana	1	0	5	stars	3	correct	0.566201884153998
84164	1	stim173_inanimate_plants_tree_1.png	173	inanimate	plants	tree	1	0	5	stars	3	correct	0.566201884153998
84214	1	stim032_animate_bird_parrot_4.png	32	animate	bird	parrot	4	0	5	stars	3	correct	0.566201884153998
84264	1	stim053_animate_human_faces_1.png	53	animate	human	faces	1	0	5	stars	3	correct	0.566201884153998
84314	1	stim105_inanimate_clothing_hat_1.png	105	inanimate	clothing	hat	1	0	5	stars	3	correct	0.566201884153998
84364	1	stim199_inanimate_tools_wrench_3.png	199	inanimate	tools	wrench	3	0	5	stars	3	correct	0.566201884153998
84414	1	stim072_animate_insect_butterfly_4.png	72	animate	insect	butterfly	4	0	5	stars	3	correct	0.566201884153998
84464	1	stim009_animate_aquatic_seahorse_1.png	9	animate	aquatic	seahorse	1	0	5	stars	3	correct	0.566201884153998
84514	1	stim102_inanimate_clothing_gloves_2.png	102	inanimate	clothing	gloves	2	0	5	stars	3	correct	0.566201884153998
84564	1	stim071_animate_insect_butterfly_3.png	71	animate	insect	butterfly	3	0	5	stars	3	correct	0.566201884153998
84614	1	stim135_inanimate_fruits_pineapple_3.png	135	inanimate	fruits	pineapple	3	0	5	stars	3	correct	0.566201884153998
84664	1	stim001_animate_aquatic_crab_1.png	1	animate	aquatic	crab	1	0	5	stars	3	correct	0.566201884153998
84714	1	stim006_animate_aquatic_fish_2.png	6	animate	aquatic	fish	2	0	5	stars	3	correct	0.566201884153998
84764	1	stim064_animate_insect_ant_4.png	64	animate	insect	ant	4	0	5	stars	3	correct	0.566201884153998
84814	1	stim162_inanimate_plants_bush_2.png	162	inanimate	plants	bush	2	0	5	stars	3	correct	0.566201884153998
84864	1	stim129_inanimate_fruits_grape_1.png	129	inanimate	fruits	grape	1	0	5	stars	3	correct	0.566201884153998
84914	1	stim182_inanimate_tools_broom_2.png	182	inanimate	tools	broom	2	0	5	stars	3	correct	0.566201884153998
84964	1	stim168_inanimate_plants_cactus_4.png	168	inanimate	plants	cactus	4	0	5	stars	3	correct	0.566201884153998
85014	1	stim193_inanimate_tools_scissors_1.png	193	inanimate	tools	scissors	1	0	5	stars	3	correct	0.566201884153998
85064	1	stim015_animate_aquatic_shark_3.png	15	animate	aquatic	shark	3	0	5	stars	3	correct	0.566201884153998
85114	1	stim181_inanimate_tools_broom_1.png	181	inanimate	tools	broom	1	0	5	stars	3	correct	0.566201884153998
85164	1	stim187_inanimate_tools_hammer_3.png	187	inanimate	tools	hammer	3	0	5	stars	3	correct	0.566201884153998
85214	1	stim094_animate_mammal_monkey_2.png	94	animate	mammal	monkey	2	0	5	stars	3	correct	0.566201884153998
85264	1	stim076_animate_insect_dragonfly_4.png	76	animate	insect	dragonfly	4	0	5	stars	3	correct	0.566201884153998
85314	1	stim191_inanimate_tools_pan_3.png	191	inanimate	tools	pan	3	0	5	stars	3	correct	0.566201884153998
85364	1	stim074_animate_insect_dragonfly_2.png	74	animate	insect	dragonfly	2	0	5	stars	3	correct	0.566201884153998
85414	1	stim116_inanimate_clothing_shirt_4.png	116	inanimate	clothing	shirt	4	0	5	stars	3	correct	0.566201884153998
85464	1	stim131_inanimate_fruits_grape_3.png	131	inanimate	fruits	grape	3	0	5	stars	3	correct	0.566201884153998
85514	1	stim122_inanimate_fruits_apple_2.png	122	inanimate	fruits	apple	2	0	5	stars	3	correct	0.566201884153998
85564	1	stim185_inanimate_tools_hammer_1.png	185	inanimate	tools	hammer	1	0	5	stars	3	correct	0.566201884153998
85614	1	stim045_animate_human_child_1.png	45	animate	human	child	1	0	5	stars	3	correct	0.566201884153998
85664	1	stim183_inanimate_tools_broom_3.png	183	inanimate	tools	broom	3	0	5	stars	3	correct	0.566201884153998
85714	1	stim155_inanimate_furniture_sofa_3.png	155	inanimate	furniture	sofa	3	0	5	stars	3	correct	0.566201884153998
85764	1	stim136_inanimate_fruits_pineapple_4.png	136	inanimate	fruits	pineapple	4	0	5	stars	3	correct	0.566201884153998
85814	1	stim178_inanimate_plants_tulip_2.png	178	inanimate	plants	tulip	2	0	5	stars	3	correct	0.566201884153998
85864	1	stim024_animate_bird_chicken_4.png	24	animate	bird	chicken	4	0	5	stars	3	correct	0.566201884153998
85914	1	stim059_animate_human_sports_3.png	59	animate	human	sports	3	0	5	stars	3	correct	0.566201884153998
85964	1	stim216_targets_shapes_star_4.png	216	targets	shapes	star	4	1	5	stars	3	correct	0.566201884153998
86014	1	stim008_animate_aquatic_fish_4.png	8	animate	aquatic	fish	4	0	5	stars	3	correct	0.566201884153998
86064	1	stim097_animate_mammal_rhino_1.png	97	animate	mammal	rhino	1	0	5	stars	3	correct	0.566201884153998
86114	1	stim107_inanimate_clothing_hat_3.png	107	inanimate	clothing	hat	3	0	5	stars	3	correct	0.566201884153998
86164	1	stim123_inanimate_fruits_apple_3.png	123	inanimate	fruits	apple	3	0	5	stars	3	correct	0.566201884153998
86214	1	stim035_animate_bird_peacock_3.png	35	animate	bird	peacock	3	0	5	stars	3	correct	0.566201884153998
86264	1	stim166_inanimate_plants_cactus_2.png	166	inanimate	plants	cactus	2	0	5	stars	3	correct	0.566201884153998
86314	1	stim060_animate_human_sports_4.png	60	animate	human	sports	4	0	5	stars	3	correct	0.566201884153998
86364	1	stim091_animate_mammal_kangaroo_3.png	91	animate	mammal	kangaroo	3	0	5	stars	3	correct	0.566201884153998
86414	1	stim195_inanimate_tools_scissors_3.png	195	inanimate	tools	scissors	3	0	5	stars	3	correct	0.566201884153998
86464	1	stim084_animate_mammal_cow_4.png	84	animate	mammal	cow	4	0	5	stars	3	correct	0.566201884153998
86514	1	stim096_animate_mammal_monkey_4.png	96	animate	mammal	monkey	4	0	5	stars	3	correct	0.566201884153998
86564	1	stim140_inanimate_fruits_strawberry_4.png	140	inanimate	fruits	strawberry	4	0	5	stars	3	correct	0.566201884153998
86614	1	stim158_inanimate_furniture_table_2.png	158	inanimate	furniture	table	2	0	5	stars	3	correct	0.566201884153998
86664	1	stim148_inanimate_furniture_chair_4.png	148	inanimate	furniture	chair	4	0	5	stars	3	correct	0.566201884153998
86714	1	stim200_inanimate_tools_wrench_4.png	200	inanimate	tools	wrench	4	0	5	stars	3	correct	0.566201884153998
86764	1	stim150_inanimate_furniture_closet_2.png	150	inanimate	furniture	closet	2	0	5	stars	3	correct	0.566201884153998
86814	1	stim110_inanimate_clothing_jeans_2.png	110	inanimate	clothing	jeans	2	0	5	stars	3	correct	0.566201884153998
86864	1	stim066_animate_insect_bug_2.png	66	animate	insect	bug	2	0	5	stars	3	correct	0.566201884153998
86914	1	stim113_inanimate_clothing_shirt_1.png	113	inanimate	clothing	shirt	1	0	5	stars	3	correct	0.566201884153998
86964	1	stim033_animate_bird_peacock_1.png	33	animate	bird	peacock	1	0	5	stars	3	correct	0.566201884153998
87014	1	stim054_animate_human_faces_2.png	54	animate	human	faces	2	0	5	stars	3	correct	0.566201884153998
87064	1	stim019_animate_aquatic_shrimp_3.png	19	animate	aquatic	shrimp	3	0	5	stars	3	correct	0.566201884153998
87114	1	stim005_animate_aquatic_fish_1.png	5	animate	aquatic	fish	1	0	5	stars	3	correct	0.566201884153998
87164	1	stim044_animate_human_baby_4.png	44	animate	human	baby	4	0	5	stars	3	correct	0.566201884153998
87214	1	stim115_inanimate_clothing_shirt_3.png	115	inanimate	clothing	shirt	3	0	5	stars	3	correct	0.566201884153998
87264	1	stim169_inanimate_plants_sunflower_1.png	169	inanimate	plants	sunflower	1	0	5	stars	3	correct	0.566201884153998
87314	1	stim161_inanimate_plants_bush_1.png	161	inanimate	plants	bush	1	0	5	stars	3	correct	0.566201884153998
87364	1	stim170_inanimate_plants_sunflower_2.png	170	inanimate	plants	sunflower	2	0	5	stars	3	correct	0.566201884153998
87414	1	stim029_animate_bird_parrot_1.png	29	animate	bird	parrot	1	0	5	stars	3	correct	0.566201884153998
87464	1	stim126_inanimate_fruits_banana_2.png	126	inanimate	fruits	banana	2	0	5	stars	3	correct	0.566201884153998
