onset	duration	stimulusname	stimulusnumber	levelA	levelB	levelC	withinexemplarnumber	istarget	trialnumber	condition	response	correct	rt
6032	1	stim030_animate_bird_parrot_2.png	30	animate	bird	parrot	2	0	1	stars	2	correct	5.08420166186988
6232	1	stim158_inanimate_furniture_table_2.png	158	inanimate	furniture	table	2	0	1	stars	2	correct	5.08420166186988
6432	1	stim150_inanimate_furniture_closet_2.png	150	inanimate	furniture	closet	2	0	1	stars	2	correct	5.08420166186988
6632	1	stim169_inanimate_plants_sunflower_1.png	169	inanimate	plants	sunflower	1	0	1	stars	2	correct	5.08420166186988
6832	1	stim126_inanimate_fruits_banana_2.png	126	inanimate	fruits	banana	2	0	1	stars	2	correct	5.08420166186988
7032	1	stim097_animate_mammal_rhino_1.png	97	animate	mammal	rhino	1	0	1	stars	2	correct	5.08420166186988
7232	1	stim059_animate_human_sports_3.png	59	animate	human	sports	3	0	1	stars	2	correct	5.08420166186988
7432	1	stim156_inanimate_furniture_sofa_4.png	156	inanimate	furniture	sofa	4	0	1	stars	2	correct	5.08420166186988
7632	1	stim043_animate_human_baby_3.png	43	animate	human	baby	3	0	1	stars	2	correct	5.08420166186988
7832	1	stim189_inanimate_tools_pan_1.png	189	inanimate	tools	pan	1	0	1	stars	2	correct	5.08420166186988
8032	1	stim191_inanimate_tools_pan_3.png	191	inanimate	tools	pan	3	0	1	stars	2	correct	5.08420166186988
8232	1	stim065_animate_insect_bug_1.png	65	animate	insect	bug	1	0	1	stars	2	correct	5.08420166186988
8432	1	stim100_animate_mammal_rhino_4.png	100	animate	mammal	rhino	4	0	1	stars	2	correct	5.08420166186988
8632	1	stim114_inanimate_clothing_shirt_2.png	114	inanimate	clothing	shirt	2	0	1	stars	2	correct	5.08420166186988
8832	1	stim190_inanimate_tools_pan_2.png	190	inanimate	tools	pan	2	0	1	stars	2	correct	5.08420166186988
9032	1	stim157_inanimate_furniture_table_1.png	157	inanimate	furniture	table	1	0	1	stars	2	correct	5.08420166186988
9232	1	stim155_inanimate_furniture_sofa_3.png	155	inanimate	furniture	sofa	3	0	1	stars	2	correct	5.08420166186988
9432	1	stim161_inanimate_plants_bush_1.png	161	inanimate	plants	bush	1	0	1	stars	2	correct	5.08420166186988
9632	1	stim123_inanimate_fruits_apple_3.png	123	inanimate	fruits	apple	3	0	1	stars	2	correct	5.08420166186988
9832	1	stim152_inanimate_furniture_closet_4.png	152	inanimate	furniture	closet	4	0	1	stars	2	correct	5.08420166186988
10032	1	stim087_animate_mammal_giraffe_3.png	87	animate	mammal	giraffe	3	0	1	stars	2	correct	5.08420166186988
10232	1	stim038_animate_bird_penguin_2.png	38	animate	bird	penguin	2	0	1	stars	2	correct	5.08420166186988
10432	1	stim118_inanimate_clothing_socks_2.png	118	inanimate	clothing	socks	2	0	1	stars	2	correct	5.08420166186988
10632	1	stim173_inanimate_plants_tree_1.png	173	inanimate	plants	tree	1	0	1	stars	2	correct	5.08420166186988
10832	1	stim069_animate_insect_butterfly_1.png	69	animate	insect	butterfly	1	0	1	stars	2	correct	5.08420166186988
11032	1	stim188_inanimate_tools_hammer_4.png	188	inanimate	tools	hammer	4	0	1	stars	2	correct	5.08420166186988
11232	1	stim092_animate_mammal_kangaroo_4.png	92	animate	mammal	kangaroo	4	0	1	stars	2	correct	5.08420166186988
11432	1	stim085_animate_mammal_giraffe_1.png	85	animate	mammal	giraffe	1	0	1	stars	2	correct	5.08420166186988
11632	1	stim187_inanimate_tools_hammer_3.png	187	inanimate	tools	hammer	3	0	1	stars	2	correct	5.08420166186988
11832	1	stim074_animate_insect_dragonfly_2.png	74	animate	insect	dragonfly	2	0	1	stars	2	correct	5.08420166186988
12032	1	stim107_inanimate_clothing_hat_3.png	107	inanimate	clothing	hat	3	0	1	stars	2	correct	5.08420166186988
12232	1	stim011_animate_aquatic_seahorse_3.png	11	animate	aquatic	seahorse	3	0	1	stars	2	correct	5.08420166186988
12432	1	stim116_inanimate_clothing_shirt_4.png	116	inanimate	clothing	shirt	4	0	1	stars	2	correct	5.08420166186988
12632	1	stim143_inanimate_furniture_bed_3.png	143	inanimate	furniture	bed	3	0	1	stars	2	correct	5.08420166186988
12832	1	stim012_animate_aquatic_seahorse_4.png	12	animate	aquatic	seahorse	4	0	1	stars	2	correct	5.08420166186988
13032	1	stim165_inanimate_plants_cactus_1.png	165	inanimate	plants	cactus	1	0	1	stars	2	correct	5.08420166186988
13232	1	stim164_inanimate_plants_bush_4.png	164	inanimate	plants	bush	4	0	1	stars	2	correct	5.08420166186988
13432	1	stim072_animate_insect_butterfly_4.png	72	animate	insect	butterfly	4	0	1	stars	2	correct	5.08420166186988
13632	1	stim193_inanimate_tools_scissors_1.png	193	inanimate	tools	scissors	1	0	1	stars	2	correct	5.08420166186988
13832	1	stim113_inanimate_clothing_shirt_1.png	113	inanimate	clothing	shirt	1	0	1	stars	2	correct	5.08420166186988
14032	1	stim028_animate_bird_duck_4.png	28	animate	bird	duck	4	0	1	stars	2	correct	5.08420166186988
14232	1	stim051_animate_human_clown_3.png	51	animate	human	clown	3	0	1	stars	2	correct	5.08420166186988
14432	1	stim111_inanimate_clothing_jeans_3.png	111	inanimate	clothing	jeans	3	0	1	stars	2	correct	5.08420166186988
14632	1	stim047_animate_human_child_3.png	47	animate	human	child	3	0	1	stars	2	correct	5.08420166186988
14832	1	stim133_inanimate_fruits_pineapple_1.png	133	inanimate	fruits	pineapple	1	0	1	stars	2	correct	5.08420166186988
15032	1	stim170_inanimate_plants_sunflower_2.png	170	inanimate	plants	sunflower	2	0	1	stars	2	correct	5.08420166186988
15232	1	stim093_animate_mammal_monkey_1.png	93	animate	mammal	monkey	1	0	1	stars	2	correct	5.08420166186988
15432	1	stim121_inanimate_fruits_apple_1.png	121	inanimate	fruits	apple	1	0	1	stars	2	correct	5.08420166186988
15632	1	stim006_animate_aquatic_fish_2.png	6	animate	aquatic	fish	2	0	1	stars	2	correct	5.08420166186988
15832	1	stim044_animate_human_baby_4.png	44	animate	human	baby	4	0	1	stars	2	correct	5.08420166186988
16032	1	stim159_inanimate_furniture_table_3.png	159	inanimate	furniture	table	3	0	1	stars	2	correct	5.08420166186988
16232	1	stim117_inanimate_clothing_socks_1.png	117	inanimate	clothing	socks	1	0	1	stars	2	correct	5.08420166186988
16432	1	stim151_inanimate_furniture_closet_3.png	151	inanimate	furniture	closet	3	0	1	stars	2	correct	5.08420166186988
16632	1	stim140_inanimate_fruits_strawberry_4.png	140	inanimate	fruits	strawberry	4	0	1	stars	2	correct	5.08420166186988
16832	1	stim090_animate_mammal_kangaroo_2.png	90	animate	mammal	kangaroo	2	0	1	stars	2	correct	5.08420166186988
17032	1	stim125_inanimate_fruits_banana_1.png	125	inanimate	fruits	banana	1	0	1	stars	2	correct	5.08420166186988
17232	1	stim034_animate_bird_peacock_2.png	34	animate	bird	peacock	2	0	1	stars	2	correct	5.08420166186988
17432	1	stim080_animate_insect_grasshopper_4.png	80	animate	insect	grasshopper	4	0	1	stars	2	correct	5.08420166186988
17632	1	stim179_inanimate_plants_tulip_3.png	179	inanimate	plants	tulip	3	0	1	stars	2	correct	5.08420166186988
17832	1	stim128_inanimate_fruits_banana_4.png	128	inanimate	fruits	banana	4	0	1	stars	2	correct	5.08420166186988
18032	1	stim016_animate_aquatic_shark_4.png	16	animate	aquatic	shark	4	0	1	stars	2	correct	5.08420166186988
18232	1	stim023_animate_bird_chicken_3.png	23	animate	bird	chicken	3	0	1	stars	2	correct	5.08420166186988
18432	1	stim017_animate_aquatic_shrimp_1.png	17	animate	aquatic	shrimp	1	0	1	stars	2	correct	5.08420166186988
18632	1	stim137_inanimate_fruits_strawberry_1.png	137	inanimate	fruits	strawberry	1	0	1	stars	2	correct	5.08420166186988
18832	1	stim049_animate_human_clown_1.png	49	animate	human	clown	1	0	1	stars	2	correct	5.08420166186988
19032	1	stim172_inanimate_plants_sunflower_4.png	172	inanimate	plants	sunflower	4	0	1	stars	2	correct	5.08420166186988
19232	1	stim171_inanimate_plants_sunflower_3.png	171	inanimate	plants	sunflower	3	0	1	stars	2	correct	5.08420166186988
19432	1	stim135_inanimate_fruits_pineapple_3.png	135	inanimate	fruits	pineapple	3	0	1	stars	2	correct	5.08420166186988
19632	1	stim054_animate_human_faces_2.png	54	animate	human	faces	2	0	1	stars	2	correct	5.08420166186988
19832	1	stim112_inanimate_clothing_jeans_4.png	112	inanimate	clothing	jeans	4	0	1	stars	2	correct	5.08420166186988
20032	1	stim042_animate_human_baby_2.png	42	animate	human	baby	2	0	1	stars	2	correct	5.08420166186988
20232	1	stim095_animate_mammal_monkey_3.png	95	animate	mammal	monkey	3	0	1	stars	2	correct	5.08420166186988
20432	1	stim175_inanimate_plants_tree_3.png	175	inanimate	plants	tree	3	0	1	stars	2	correct	5.08420166186988
20632	1	stim180_inanimate_plants_tulip_4.png	180	inanimate	plants	tulip	4	0	1	stars	2	correct	5.08420166186988
20832	1	stim214_targets_shapes_star_2.png	214	targets	shapes	star	2	1	1	stars	2	correct	5.08420166186988
21032	1	stim102_inanimate_clothing_gloves_2.png	102	inanimate	clothing	gloves	2	0	1	stars	2	correct	5.08420166186988
21232	1	stim055_animate_human_faces_3.png	55	animate	human	faces	3	0	1	stars	2	correct	5.08420166186988
21432	1	stim025_animate_bird_duck_1.png	25	animate	bird	duck	1	0	1	stars	2	correct	5.08420166186988
21632	1	stim091_animate_mammal_kangaroo_3.png	91	animate	mammal	kangaroo	3	0	1	stars	2	correct	5.08420166186988
21832	1	stim129_inanimate_fruits_grape_1.png	129	inanimate	fruits	grape	1	0	1	stars	2	correct	5.08420166186988
22032	1	stim162_inanimate_plants_bush_2.png	162	inanimate	plants	bush	2	0	1	stars	2	correct	5.08420166186988
22232	1	stim033_animate_bird_peacock_1.png	33	animate	bird	peacock	1	0	1	stars	2	correct	5.08420166186988
22432	1	stim127_inanimate_fruits_banana_3.png	127	inanimate	fruits	banana	3	0	1	stars	2	correct	5.08420166186988
22632	1	stim154_inanimate_furniture_sofa_2.png	154	inanimate	furniture	sofa	2	0	1	stars	2	correct	5.08420166186988
22832	1	stim057_animate_human_sports_1.png	57	animate	human	sports	1	0	1	stars	2	correct	5.08420166186988
23032	1	stim142_inanimate_furniture_bed_2.png	142	inanimate	furniture	bed	2	0	1	stars	2	correct	5.08420166186988
23232	1	stim050_animate_human_clown_2.png	50	animate	human	clown	2	0	1	stars	2	correct	5.08420166186988
23432	1	stim068_animate_insect_bug_4.png	68	animate	insect	bug	4	0	1	stars	2	correct	5.08420166186988
23632	1	stim001_animate_aquatic_crab_1.png	1	animate	aquatic	crab	1	0	1	stars	2	correct	5.08420166186988
23832	1	stim196_inanimate_tools_scissors_4.png	196	inanimate	tools	scissors	4	0	1	stars	2	correct	5.08420166186988
24032	1	stim177_inanimate_plants_tulip_1.png	177	inanimate	plants	tulip	1	0	1	stars	2	correct	5.08420166186988
24232	1	stim167_inanimate_plants_cactus_3.png	167	inanimate	plants	cactus	3	0	1	stars	2	correct	5.08420166186988
24432	1	stim192_inanimate_tools_pan_4.png	192	inanimate	tools	pan	4	0	1	stars	2	correct	5.08420166186988
24632	1	stim103_inanimate_clothing_gloves_3.png	103	inanimate	clothing	gloves	3	0	1	stars	2	correct	5.08420166186988
24832	1	stim062_animate_insect_ant_2.png	62	animate	insect	ant	2	0	1	stars	2	correct	5.08420166186988
25032	1	stim053_animate_human_faces_1.png	53	animate	human	faces	1	0	1	stars	2	correct	5.08420166186988
25232	1	stim160_inanimate_furniture_table_4.png	160	inanimate	furniture	table	4	0	1	stars	2	correct	5.08420166186988
25432	1	stim195_inanimate_tools_scissors_3.png	195	inanimate	tools	scissors	3	0	1	stars	2	correct	5.08420166186988
25632	1	stim124_inanimate_fruits_apple_4.png	124	inanimate	fruits	apple	4	0	1	stars	2	correct	5.08420166186988
25832	1	stim077_animate_insect_grasshopper_1.png	77	animate	insect	grasshopper	1	0	1	stars	2	correct	5.08420166186988
26032	1	stim064_animate_insect_ant_4.png	64	animate	insect	ant	4	0	1	stars	2	correct	5.08420166186988
26232	1	stim040_animate_bird_penguin_4.png	40	animate	bird	penguin	4	0	1	stars	2	correct	5.08420166186988
26432	1	stim104_inanimate_clothing_gloves_4.png	104	inanimate	clothing	gloves	4	0	1	stars	2	correct	5.08420166186988
26632	1	stim082_animate_mammal_cow_2.png	82	animate	mammal	cow	2	0	1	stars	2	correct	5.08420166186988
26832	1	stim163_inanimate_plants_bush_3.png	163	inanimate	plants	bush	3	0	1	stars	2	correct	5.08420166186988
27032	1	stim132_inanimate_fruits_grape_4.png	132	inanimate	fruits	grape	4	0	1	stars	2	correct	5.08420166186988
27232	1	stim194_inanimate_tools_scissors_2.png	194	inanimate	tools	scissors	2	0	1	stars	2	correct	5.08420166186988
27432	1	stim084_animate_mammal_cow_4.png	84	animate	mammal	cow	4	0	1	stars	2	correct	5.08420166186988
27632	1	stim089_animate_mammal_kangaroo_1.png	89	animate	mammal	kangaroo	1	0	1	stars	2	correct	5.08420166186988
27832	1	stim013_animate_aquatic_shark_1.png	13	animate	aquatic	shark	1	0	1	stars	2	correct	5.08420166186988
28032	1	stim182_inanimate_tools_broom_2.png	182	inanimate	tools	broom	2	0	1	stars	2	correct	5.08420166186988
28232	1	stim052_animate_human_clown_4.png	52	animate	human	clown	4	0	1	stars	2	correct	5.08420166186988
28432	1	stim079_animate_insect_grasshopper_3.png	79	animate	insect	grasshopper	3	0	1	stars	2	correct	5.08420166186988
28632	1	stim022_animate_bird_chicken_2.png	22	animate	bird	chicken	2	0	1	stars	2	correct	5.08420166186988
28832	1	stim199_inanimate_tools_wrench_3.png	199	inanimate	tools	wrench	3	0	1	stars	2	correct	5.08420166186988
29032	1	stim027_animate_bird_duck_3.png	27	animate	bird	duck	3	0	1	stars	2	correct	5.08420166186988
29232	1	stim096_animate_mammal_monkey_4.png	96	animate	mammal	monkey	4	0	1	stars	2	correct	5.08420166186988
29432	1	stim141_inanimate_furniture_bed_1.png	141	inanimate	furniture	bed	1	0	1	stars	2	correct	5.08420166186988
29632	1	stim066_animate_insect_bug_2.png	66	animate	insect	bug	2	0	1	stars	2	correct	5.08420166186988
29832	1	stim045_animate_human_child_1.png	45	animate	human	child	1	0	1	stars	2	correct	5.08420166186988
30032	1	stim101_inanimate_clothing_gloves_1.png	101	inanimate	clothing	gloves	1	0	1	stars	2	correct	5.08420166186988
30232	1	stim134_inanimate_fruits_pineapple_2.png	134	inanimate	fruits	pineapple	2	0	1	stars	2	correct	5.08420166186988
30432	1	stim004_animate_aquatic_crab_4.png	4	animate	aquatic	crab	4	0	1	stars	2	correct	5.08420166186988
30632	1	stim088_animate_mammal_giraffe_4.png	88	animate	mammal	giraffe	4	0	1	stars	2	correct	5.08420166186988
30832	1	stim073_animate_insect_dragonfly_1.png	73	animate	insect	dragonfly	1	0	1	stars	2	correct	5.08420166186988
31032	1	stim145_inanimate_furniture_chair_1.png	145	inanimate	furniture	chair	1	0	1	stars	2	correct	5.08420166186988
31232	1	stim149_inanimate_furniture_closet_1.png	149	inanimate	furniture	closet	1	0	1	stars	2	correct	5.08420166186988
31432	1	stim063_animate_insect_ant_3.png	63	animate	insect	ant	3	0	1	stars	2	correct	5.08420166186988
31632	1	stim032_animate_bird_parrot_4.png	32	animate	bird	parrot	4	0	1	stars	2	correct	5.08420166186988
31832	1	stim056_animate_human_faces_4.png	56	animate	human	faces	4	0	1	stars	2	correct	5.08420166186988
32032	1	stim131_inanimate_fruits_grape_3.png	131	inanimate	fruits	grape	3	0	1	stars	2	correct	5.08420166186988
32232	1	stim026_animate_bird_duck_2.png	26	animate	bird	duck	2	0	1	stars	2	correct	5.08420166186988
32432	1	stim215_targets_shapes_star_3.png	215	targets	shapes	star	3	1	1	stars	2	correct	5.08420166186988
32633	1	stim147_inanimate_furniture_chair_3.png	147	inanimate	furniture	chair	3	0	1	stars	2	correct	5.08420166186988
32833	1	stim120_inanimate_clothing_socks_4.png	120	inanimate	clothing	socks	4	0	1	stars	2	correct	5.08420166186988
33033	1	stim105_inanimate_clothing_hat_1.png	105	inanimate	clothing	hat	1	0	1	stars	2	correct	5.08420166186988
33233	1	stim081_animate_mammal_cow_1.png	81	animate	mammal	cow	1	0	1	stars	2	correct	5.08420166186988
33433	1	stim008_animate_aquatic_fish_4.png	8	animate	aquatic	fish	4	0	1	stars	2	correct	5.08420166186988
33633	1	stim108_inanimate_clothing_hat_4.png	108	inanimate	clothing	hat	4	0	1	stars	2	correct	5.08420166186988
33833	1	stim168_inanimate_plants_cactus_4.png	168	inanimate	plants	cactus	4	0	1	stars	2	correct	5.08420166186988
34033	1	stim078_animate_insect_grasshopper_2.png	78	animate	insect	grasshopper	2	0	1	stars	2	correct	5.08420166186988
34233	1	stim094_animate_mammal_monkey_2.png	94	animate	mammal	monkey	2	0	1	stars	2	correct	5.08420166186988
34433	1	stim071_animate_insect_butterfly_3.png	71	animate	insect	butterfly	3	0	1	stars	2	correct	5.08420166186988
34633	1	stim138_inanimate_fruits_strawberry_2.png	138	inanimate	fruits	strawberry	2	0	1	stars	2	correct	5.08420166186988
34833	1	stim198_inanimate_tools_wrench_2.png	198	inanimate	tools	wrench	2	0	1	stars	2	correct	5.08420166186988
35033	1	stim166_inanimate_plants_cactus_2.png	166	inanimate	plants	cactus	2	0	1	stars	2	correct	5.08420166186988
35233	1	stim174_inanimate_plants_tree_2.png	174	inanimate	plants	tree	2	0	1	stars	2	correct	5.08420166186988
35433	1	stim014_animate_aquatic_shark_2.png	14	animate	aquatic	shark	2	0	1	stars	2	correct	5.08420166186988
35633	1	stim176_inanimate_plants_tree_4.png	176	inanimate	plants	tree	4	0	1	stars	2	correct	5.08420166186988
35833	1	stim110_inanimate_clothing_jeans_2.png	110	inanimate	clothing	jeans	2	0	1	stars	2	correct	5.08420166186988
36033	1	stim186_inanimate_tools_hammer_2.png	186	inanimate	tools	hammer	2	0	1	stars	2	correct	5.08420166186988
36233	1	stim099_animate_mammal_rhino_3.png	99	animate	mammal	rhino	3	0	1	stars	2	correct	5.08420166186988
36433	1	stim200_inanimate_tools_wrench_4.png	200	inanimate	tools	wrench	4	0	1	stars	2	correct	5.08420166186988
36633	1	stim018_animate_aquatic_shrimp_2.png	18	animate	aquatic	shrimp	2	0	1	stars	2	correct	5.08420166186988
36833	1	stim130_inanimate_fruits_grape_2.png	130	inanimate	fruits	grape	2	0	1	stars	2	correct	5.08420166186988
37033	1	stim153_inanimate_furniture_sofa_1.png	153	inanimate	furniture	sofa	1	0	1	stars	2	correct	5.08420166186988
37233	1	stim146_inanimate_furniture_chair_2.png	146	inanimate	furniture	chair	2	0	1	stars	2	correct	5.08420166186988
37433	1	stim036_animate_bird_peacock_4.png	36	animate	bird	peacock	4	0	1	stars	2	correct	5.08420166186988
37633	1	stim003_animate_aquatic_crab_3.png	3	animate	aquatic	crab	3	0	1	stars	2	correct	5.08420166186988
37833	1	stim020_animate_aquatic_shrimp_4.png	20	animate	aquatic	shrimp	4	0	1	stars	2	correct	5.08420166186988
38033	1	stim037_animate_bird_penguin_1.png	37	animate	bird	penguin	1	0	1	stars	2	correct	5.08420166186988
38233	1	stim144_inanimate_furniture_bed_4.png	144	inanimate	furniture	bed	4	0	1	stars	2	correct	5.08420166186988
38433	1	stim019_animate_aquatic_shrimp_3.png	19	animate	aquatic	shrimp	3	0	1	stars	2	correct	5.08420166186988
38633	1	stim136_inanimate_fruits_pineapple_4.png	136	inanimate	fruits	pineapple	4	0	1	stars	2	correct	5.08420166186988
38833	1	stim015_animate_aquatic_shark_3.png	15	animate	aquatic	shark	3	0	1	stars	2	correct	5.08420166186988
39033	1	stim005_animate_aquatic_fish_1.png	5	animate	aquatic	fish	1	0	1	stars	2	correct	5.08420166186988
39233	1	stim060_animate_human_sports_4.png	60	animate	human	sports	4	0	1	stars	2	correct	5.08420166186988
39433	1	stim009_animate_aquatic_seahorse_1.png	9	animate	aquatic	seahorse	1	0	1	stars	2	correct	5.08420166186988
39633	1	stim178_inanimate_plants_tulip_2.png	178	inanimate	plants	tulip	2	0	1	stars	2	correct	5.08420166186988
39833	1	stim098_animate_mammal_rhino_2.png	98	animate	mammal	rhino	2	0	1	stars	2	correct	5.08420166186988
40033	1	stim002_animate_aquatic_crab_2.png	2	animate	aquatic	crab	2	0	1	stars	2	correct	5.08420166186988
40233	1	stim035_animate_bird_peacock_3.png	35	animate	bird	peacock	3	0	1	stars	2	correct	5.08420166186988
40433	1	stim024_animate_bird_chicken_4.png	24	animate	bird	chicken	4	0	1	stars	2	correct	5.08420166186988
40633	1	stim119_inanimate_clothing_socks_3.png	119	inanimate	clothing	socks	3	0	1	stars	2	correct	5.08420166186988
40833	1	stim021_animate_bird_chicken_1.png	21	animate	bird	chicken	1	0	1	stars	2	correct	5.08420166186988
41033	1	stim007_animate_aquatic_fish_3.png	7	animate	aquatic	fish	3	0	1	stars	2	correct	5.08420166186988
41233	1	stim031_animate_bird_parrot_3.png	31	animate	bird	parrot	3	0	1	stars	2	correct	5.08420166186988
41433	1	stim106_inanimate_clothing_hat_2.png	106	inanimate	clothing	hat	2	0	1	stars	2	correct	5.08420166186988
41633	1	stim183_inanimate_tools_broom_3.png	183	inanimate	tools	broom	3	0	1	stars	2	correct	5.08420166186988
41833	1	stim076_animate_insect_dragonfly_4.png	76	animate	insect	dragonfly	4	0	1	stars	2	correct	5.08420166186988
42033	1	stim197_inanimate_tools_wrench_1.png	197	inanimate	tools	wrench	1	0	1	stars	2	correct	5.08420166186988
42233	1	stim058_animate_human_sports_2.png	58	animate	human	sports	2	0	1	stars	2	correct	5.08420166186988
42433	1	stim148_inanimate_furniture_chair_4.png	148	inanimate	furniture	chair	4	0	1	stars	2	correct	5.08420166186988
42633	1	stim061_animate_insect_ant_1.png	61	animate	insect	ant	1	0	1	stars	2	correct	5.08420166186988
42833	1	stim048_animate_human_child_4.png	48	animate	human	child	4	0	1	stars	2	correct	5.08420166186988
43033	1	stim181_inanimate_tools_broom_1.png	181	inanimate	tools	broom	1	0	1	stars	2	correct	5.08420166186988
43233	1	stim029_animate_bird_parrot_1.png	29	animate	bird	parrot	1	0	1	stars	2	correct	5.08420166186988
43433	1	stim075_animate_insect_dragonfly_3.png	75	animate	insect	dragonfly	3	0	1	stars	2	correct	5.08420166186988
43633	1	stim184_inanimate_tools_broom_4.png	184	inanimate	tools	broom	4	0	1	stars	2	correct	5.08420166186988
43833	1	stim039_animate_bird_penguin_3.png	39	animate	bird	penguin	3	0	1	stars	2	correct	5.08420166186988
44033	1	stim139_inanimate_fruits_strawberry_3.png	139	inanimate	fruits	strawberry	3	0	1	stars	2	correct	5.08420166186988
44233	1	stim109_inanimate_clothing_jeans_1.png	109	inanimate	clothing	jeans	1	0	1	stars	2	correct	5.08420166186988
44433	1	stim185_inanimate_tools_hammer_1.png	185	inanimate	tools	hammer	1	0	1	stars	2	correct	5.08420166186988
44633	1	stim067_animate_insect_bug_3.png	67	animate	insect	bug	3	0	1	stars	2	correct	5.08420166186988
44833	1	stim070_animate_insect_butterfly_2.png	70	animate	insect	butterfly	2	0	1	stars	2	correct	5.08420166186988
45033	1	stim086_animate_mammal_giraffe_2.png	86	animate	mammal	giraffe	2	0	1	stars	2	correct	5.08420166186988
45233	1	stim046_animate_human_child_2.png	46	animate	human	child	2	0	1	stars	2	correct	5.08420166186988
45433	1	stim041_animate_human_baby_1.png	41	animate	human	baby	1	0	1	stars	2	correct	5.08420166186988
45633	1	stim083_animate_mammal_cow_3.png	83	animate	mammal	cow	3	0	1	stars	2	correct	5.08420166186988
45833	1	stim122_inanimate_fruits_apple_2.png	122	inanimate	fruits	apple	2	0	1	stars	2	correct	5.08420166186988
46033	1	stim010_animate_aquatic_seahorse_2.png	10	animate	aquatic	seahorse	2	0	1	stars	2	correct	5.08420166186988
46233	1	stim115_inanimate_clothing_shirt_3.png	115	inanimate	clothing	shirt	3	0	1	stars	2	correct	5.08420166186988
71033	1	stim043_animate_human_baby_3.png	43	animate	human	baby	3	0	2	boats	2	incorrect	0.843670137051959
71233	1	stim075_animate_insect_dragonfly_3.png	75	animate	insect	dragonfly	3	0	2	boats	2	incorrect	0.843670137051959
71433	1	stim113_inanimate_clothing_shirt_1.png	113	inanimate	clothing	shirt	1	0	2	boats	2	incorrect	0.843670137051959
71633	1	stim009_animate_aquatic_seahorse_1.png	9	animate	aquatic	seahorse	1	0	2	boats	2	incorrect	0.843670137051959
71833	1	stim002_animate_aquatic_crab_2.png	2	animate	aquatic	crab	2	0	2	boats	2	incorrect	0.843670137051959
72033	1	stim193_inanimate_tools_scissors_1.png	193	inanimate	tools	scissors	1	0	2	boats	2	incorrect	0.843670137051959
72233	1	stim019_animate_aquatic_shrimp_3.png	19	animate	aquatic	shrimp	3	0	2	boats	2	incorrect	0.843670137051959
72433	1	stim069_animate_insect_butterfly_1.png	69	animate	insect	butterfly	1	0	2	boats	2	incorrect	0.843670137051959
72633	1	stim141_inanimate_furniture_bed_1.png	141	inanimate	furniture	bed	1	0	2	boats	2	incorrect	0.843670137051959
72833	1	stim163_inanimate_plants_bush_3.png	163	inanimate	plants	bush	3	0	2	boats	2	incorrect	0.843670137051959
73033	1	stim086_animate_mammal_giraffe_2.png	86	animate	mammal	giraffe	2	0	2	boats	2	incorrect	0.843670137051959
73233	1	stim123_inanimate_fruits_apple_3.png	123	inanimate	fruits	apple	3	0	2	boats	2	incorrect	0.843670137051959
73433	1	stim159_inanimate_furniture_table_3.png	159	inanimate	furniture	table	3	0	2	boats	2	incorrect	0.843670137051959
73633	1	stim021_animate_bird_chicken_1.png	21	animate	bird	chicken	1	0	2	boats	2	incorrect	0.843670137051959
73833	1	stim165_inanimate_plants_cactus_1.png	165	inanimate	plants	cactus	1	0	2	boats	2	incorrect	0.843670137051959
74033	1	stim022_animate_bird_chicken_2.png	22	animate	bird	chicken	2	0	2	boats	2	incorrect	0.843670137051959
74233	1	stim151_inanimate_furniture_closet_3.png	151	inanimate	furniture	closet	3	0	2	boats	2	incorrect	0.843670137051959
74433	1	stim194_inanimate_tools_scissors_2.png	194	inanimate	tools	scissors	2	0	2	boats	2	incorrect	0.843670137051959
74633	1	stim195_inanimate_tools_scissors_3.png	195	inanimate	tools	scissors	3	0	2	boats	2	incorrect	0.843670137051959
74833	1	stim024_animate_bird_chicken_4.png	24	animate	bird	chicken	4	0	2	boats	2	incorrect	0.843670137051959
75033	1	stim115_inanimate_clothing_shirt_3.png	115	inanimate	clothing	shirt	3	0	2	boats	2	incorrect	0.843670137051959
75233	1	stim160_inanimate_furniture_table_4.png	160	inanimate	furniture	table	4	0	2	boats	2	incorrect	0.843670137051959
75433	1	stim044_animate_human_baby_4.png	44	animate	human	baby	4	0	2	boats	2	incorrect	0.843670137051959
75633	1	stim066_animate_insect_bug_2.png	66	animate	insect	bug	2	0	2	boats	2	incorrect	0.843670137051959
75833	1	stim190_inanimate_tools_pan_2.png	190	inanimate	tools	pan	2	0	2	boats	2	incorrect	0.843670137051959
76033	1	stim107_inanimate_clothing_hat_3.png	107	inanimate	clothing	hat	3	0	2	boats	2	incorrect	0.843670137051959
76233	1	stim065_animate_insect_bug_1.png	65	animate	insect	bug	1	0	2	boats	2	incorrect	0.843670137051959
76433	1	stim161_inanimate_plants_bush_1.png	161	inanimate	plants	bush	1	0	2	boats	2	incorrect	0.843670137051959
76634	1	stim196_inanimate_tools_scissors_4.png	196	inanimate	tools	scissors	4	0	2	boats	2	incorrect	0.843670137051959
76834	1	stim010_animate_aquatic_seahorse_2.png	10	animate	aquatic	seahorse	2	0	2	boats	2	incorrect	0.843670137051959
77034	1	stim138_inanimate_fruits_strawberry_2.png	138	inanimate	fruits	strawberry	2	0	2	boats	2	incorrect	0.843670137051959
77233	1	stim142_inanimate_furniture_bed_2.png	142	inanimate	furniture	bed	2	0	2	boats	2	incorrect	0.843670137051959
77434	1	stim153_inanimate_furniture_sofa_1.png	153	inanimate	furniture	sofa	1	0	2	boats	2	incorrect	0.843670137051959
77634	1	stim016_animate_aquatic_shark_4.png	16	animate	aquatic	shark	4	0	2	boats	2	incorrect	0.843670137051959
77834	1	stim143_inanimate_furniture_bed_3.png	143	inanimate	furniture	bed	3	0	2	boats	2	incorrect	0.843670137051959
78034	1	stim003_animate_aquatic_crab_3.png	3	animate	aquatic	crab	3	0	2	boats	2	incorrect	0.843670137051959
78234	1	stim030_animate_bird_parrot_2.png	30	animate	bird	parrot	2	0	2	boats	2	incorrect	0.843670137051959
78434	1	stim150_inanimate_furniture_closet_2.png	150	inanimate	furniture	closet	2	0	2	boats	2	incorrect	0.843670137051959
78634	1	stim146_inanimate_furniture_chair_2.png	146	inanimate	furniture	chair	2	0	2	boats	2	incorrect	0.843670137051959
78834	1	stim181_inanimate_tools_broom_1.png	181	inanimate	tools	broom	1	0	2	boats	2	incorrect	0.843670137051959
79034	1	stim037_animate_bird_penguin_1.png	37	animate	bird	penguin	1	0	2	boats	2	incorrect	0.843670137051959
79234	1	stim166_inanimate_plants_cactus_2.png	166	inanimate	plants	cactus	2	0	2	boats	2	incorrect	0.843670137051959
79434	1	stim174_inanimate_plants_tree_2.png	174	inanimate	plants	tree	2	0	2	boats	2	incorrect	0.843670137051959
79634	1	stim197_inanimate_tools_wrench_1.png	197	inanimate	tools	wrench	1	0	2	boats	2	incorrect	0.843670137051959
79834	1	stim020_animate_aquatic_shrimp_4.png	20	animate	aquatic	shrimp	4	0	2	boats	2	incorrect	0.843670137051959
80034	1	stim172_inanimate_plants_sunflower_4.png	172	inanimate	plants	sunflower	4	0	2	boats	2	incorrect	0.843670137051959
80234	1	stim100_animate_mammal_rhino_4.png	100	animate	mammal	rhino	4	0	2	boats	2	incorrect	0.843670137051959
80434	1	stim053_animate_human_faces_1.png	53	animate	human	faces	1	0	2	boats	2	incorrect	0.843670137051959
80634	1	stim028_animate_bird_duck_4.png	28	animate	bird	duck	4	0	2	boats	2	incorrect	0.843670137051959
80834	1	stim104_inanimate_clothing_gloves_4.png	104	inanimate	clothing	gloves	4	0	2	boats	2	incorrect	0.843670137051959
81034	1	stim205_targets_object_boats_1.png	205	targets	object	boats	1	1	2	boats	2	incorrect	0.843670137051959
81234	1	stim103_inanimate_clothing_gloves_3.png	103	inanimate	clothing	gloves	3	0	2	boats	2	incorrect	0.843670137051959
81434	1	stim185_inanimate_tools_hammer_1.png	185	inanimate	tools	hammer	1	0	2	boats	2	incorrect	0.843670137051959
81634	1	stim080_animate_insect_grasshopper_4.png	80	animate	insect	grasshopper	4	0	2	boats	2	incorrect	0.843670137051959
81834	1	stim149_inanimate_furniture_closet_1.png	149	inanimate	furniture	closet	1	0	2	boats	2	incorrect	0.843670137051959
82034	1	stim032_animate_bird_parrot_4.png	32	animate	bird	parrot	4	0	2	boats	2	incorrect	0.843670137051959
82234	1	stim139_inanimate_fruits_strawberry_3.png	139	inanimate	fruits	strawberry	3	0	2	boats	2	incorrect	0.843670137051959
82434	1	stim008_animate_aquatic_fish_4.png	8	animate	aquatic	fish	4	0	2	boats	2	incorrect	0.843670137051959
82634	1	stim084_animate_mammal_cow_4.png	84	animate	mammal	cow	4	0	2	boats	2	incorrect	0.843670137051959
82834	1	stim137_inanimate_fruits_strawberry_1.png	137	inanimate	fruits	strawberry	1	0	2	boats	2	incorrect	0.843670137051959
83034	1	stim060_animate_human_sports_4.png	60	animate	human	sports	4	0	2	boats	2	incorrect	0.843670137051959
83234	1	stim092_animate_mammal_kangaroo_4.png	92	animate	mammal	kangaroo	4	0	2	boats	2	incorrect	0.843670137051959
83434	1	stim049_animate_human_clown_1.png	49	animate	human	clown	1	0	2	boats	2	incorrect	0.843670137051959
83634	1	stim125_inanimate_fruits_banana_1.png	125	inanimate	fruits	banana	1	0	2	boats	2	incorrect	0.843670137051959
83834	1	stim187_inanimate_tools_hammer_3.png	187	inanimate	tools	hammer	3	0	2	boats	2	incorrect	0.843670137051959
84034	1	stim186_inanimate_tools_hammer_2.png	186	inanimate	tools	hammer	2	0	2	boats	2	incorrect	0.843670137051959
84234	1	stim105_inanimate_clothing_hat_1.png	105	inanimate	clothing	hat	1	0	2	boats	2	incorrect	0.843670137051959
84434	1	stim031_animate_bird_parrot_3.png	31	animate	bird	parrot	3	0	2	boats	2	incorrect	0.843670137051959
84634	1	stim128_inanimate_fruits_banana_4.png	128	inanimate	fruits	banana	4	0	2	boats	2	incorrect	0.843670137051959
84834	1	stim188_inanimate_tools_hammer_4.png	188	inanimate	tools	hammer	4	0	2	boats	2	incorrect	0.843670137051959
85034	1	stim169_inanimate_plants_sunflower_1.png	169	inanimate	plants	sunflower	1	0	2	boats	2	incorrect	0.843670137051959
85234	1	stim057_animate_human_sports_1.png	57	animate	human	sports	1	0	2	boats	2	incorrect	0.843670137051959
85434	1	stim027_animate_bird_duck_3.png	27	animate	bird	duck	3	0	2	boats	2	incorrect	0.843670137051959
85634	1	stim063_animate_insect_ant_3.png	63	animate	insect	ant	3	0	2	boats	2	incorrect	0.843670137051959
85834	1	stim114_inanimate_clothing_shirt_2.png	114	inanimate	clothing	shirt	2	0	2	boats	2	incorrect	0.843670137051959
86034	1	stim155_inanimate_furniture_sofa_3.png	155	inanimate	furniture	sofa	3	0	2	boats	2	incorrect	0.843670137051959
86234	1	stim023_animate_bird_chicken_3.png	23	animate	bird	chicken	3	0	2	boats	2	incorrect	0.843670137051959
86434	1	stim070_animate_insect_butterfly_2.png	70	animate	insect	butterfly	2	0	2	boats	2	incorrect	0.843670137051959
86634	1	stim133_inanimate_fruits_pineapple_1.png	133	inanimate	fruits	pineapple	1	0	2	boats	2	incorrect	0.843670137051959
86834	1	stim168_inanimate_plants_cactus_4.png	168	inanimate	plants	cactus	4	0	2	boats	2	incorrect	0.843670137051959
87034	1	stim047_animate_human_child_3.png	47	animate	human	child	3	0	2	boats	2	incorrect	0.843670137051959
87234	1	stim156_inanimate_furniture_sofa_4.png	156	inanimate	furniture	sofa	4	0	2	boats	2	incorrect	0.843670137051959
87434	1	stim130_inanimate_fruits_grape_2.png	130	inanimate	fruits	grape	2	0	2	boats	2	incorrect	0.843670137051959
87634	1	stim090_animate_mammal_kangaroo_2.png	90	animate	mammal	kangaroo	2	0	2	boats	2	incorrect	0.843670137051959
87834	1	stim136_inanimate_fruits_pineapple_4.png	136	inanimate	fruits	pineapple	4	0	2	boats	2	incorrect	0.843670137051959
88034	1	stim183_inanimate_tools_broom_3.png	183	inanimate	tools	broom	3	0	2	boats	2	incorrect	0.843670137051959
88234	1	stim198_inanimate_tools_wrench_2.png	198	inanimate	tools	wrench	2	0	2	boats	2	incorrect	0.843670137051959
88434	1	stim184_inanimate_tools_broom_4.png	184	inanimate	tools	broom	4	0	2	boats	2	incorrect	0.843670137051959
88634	1	stim120_inanimate_clothing_socks_4.png	120	inanimate	clothing	socks	4	0	2	boats	2	incorrect	0.843670137051959
88834	1	stim131_inanimate_fruits_grape_3.png	131	inanimate	fruits	grape	3	0	2	boats	2	incorrect	0.843670137051959
89034	1	stim119_inanimate_clothing_socks_3.png	119	inanimate	clothing	socks	3	0	2	boats	2	incorrect	0.843670137051959
89234	1	stim072_animate_insect_butterfly_4.png	72	animate	insect	butterfly	4	0	2	boats	2	incorrect	0.843670137051959
89434	1	stim154_inanimate_furniture_sofa_2.png	154	inanimate	furniture	sofa	2	0	2	boats	2	incorrect	0.843670137051959
89634	1	stim208_targets_object_boats_4.png	208	targets	object	boats	4	1	2	boats	2	incorrect	0.843670137051959
89834	1	stim101_inanimate_clothing_gloves_1.png	101	inanimate	clothing	gloves	1	0	2	boats	2	incorrect	0.843670137051959
90034	1	stim134_inanimate_fruits_pineapple_2.png	134	inanimate	fruits	pineapple	2	0	2	boats	2	incorrect	0.843670137051959
90234	1	stim064_animate_insect_ant_4.png	64	animate	insect	ant	4	0	2	boats	2	incorrect	0.843670137051959
90434	1	stim167_inanimate_plants_cactus_3.png	167	inanimate	plants	cactus	3	0	2	boats	2	incorrect	0.843670137051959
90634	1	stim192_inanimate_tools_pan_4.png	192	inanimate	tools	pan	4	0	2	boats	2	incorrect	0.843670137051959
90834	1	stim055_animate_human_faces_3.png	55	animate	human	faces	3	0	2	boats	2	incorrect	0.843670137051959
91034	1	stim102_inanimate_clothing_gloves_2.png	102	inanimate	clothing	gloves	2	0	2	boats	2	incorrect	0.843670137051959
91234	1	stim001_animate_aquatic_crab_1.png	1	animate	aquatic	crab	1	0	2	boats	2	incorrect	0.843670137051959
91434	1	stim088_animate_mammal_giraffe_4.png	88	animate	mammal	giraffe	4	0	2	boats	2	incorrect	0.843670137051959
91634	1	stim017_animate_aquatic_shrimp_1.png	17	animate	aquatic	shrimp	1	0	2	boats	2	incorrect	0.843670137051959
91834	1	stim025_animate_bird_duck_1.png	25	animate	bird	duck	1	0	2	boats	2	incorrect	0.843670137051959
92034	1	stim200_inanimate_tools_wrench_4.png	200	inanimate	tools	wrench	4	0	2	boats	2	incorrect	0.843670137051959
92234	1	stim175_inanimate_plants_tree_3.png	175	inanimate	plants	tree	3	0	2	boats	2	incorrect	0.843670137051959
92434	1	stim082_animate_mammal_cow_2.png	82	animate	mammal	cow	2	0	2	boats	2	incorrect	0.843670137051959
92634	1	stim204_targets_object_boats_4.png	204	targets	object	boats	4	1	2	boats	2	incorrect	0.843670137051959
92834	1	stim068_animate_insect_bug_4.png	68	animate	insect	bug	4	0	2	boats	2	incorrect	0.843670137051959
93034	1	stim071_animate_insect_butterfly_3.png	71	animate	insect	butterfly	3	0	2	boats	2	incorrect	0.843670137051959
93234	1	stim077_animate_insect_grasshopper_1.png	77	animate	insect	grasshopper	1	0	2	boats	2	incorrect	0.843670137051959
93434	1	stim014_animate_aquatic_shark_2.png	14	animate	aquatic	shark	2	0	2	boats	2	incorrect	0.843670137051959
93634	1	stim034_animate_bird_peacock_2.png	34	animate	bird	peacock	2	0	2	boats	2	incorrect	0.843670137051959
93834	1	stim135_inanimate_fruits_pineapple_3.png	135	inanimate	fruits	pineapple	3	0	2	boats	2	incorrect	0.843670137051959
94034	1	stim054_animate_human_faces_2.png	54	animate	human	faces	2	0	2	boats	2	incorrect	0.843670137051959
94234	1	stim116_inanimate_clothing_shirt_4.png	116	inanimate	clothing	shirt	4	0	2	boats	2	incorrect	0.843670137051959
94434	1	stim124_inanimate_fruits_apple_4.png	124	inanimate	fruits	apple	4	0	2	boats	2	incorrect	0.843670137051959
94634	1	stim199_inanimate_tools_wrench_3.png	199	inanimate	tools	wrench	3	0	2	boats	2	incorrect	0.843670137051959
94834	1	stim061_animate_insect_ant_1.png	61	animate	insect	ant	1	0	2	boats	2	incorrect	0.843670137051959
95034	1	stim182_inanimate_tools_broom_2.png	182	inanimate	tools	broom	2	0	2	boats	2	incorrect	0.843670137051959
95234	1	stim180_inanimate_plants_tulip_4.png	180	inanimate	plants	tulip	4	0	2	boats	2	incorrect	0.843670137051959
95434	1	stim171_inanimate_plants_sunflower_3.png	171	inanimate	plants	sunflower	3	0	2	boats	2	incorrect	0.843670137051959
95634	1	stim042_animate_human_baby_2.png	42	animate	human	baby	2	0	2	boats	2	incorrect	0.843670137051959
95834	1	stim122_inanimate_fruits_apple_2.png	122	inanimate	fruits	apple	2	0	2	boats	2	incorrect	0.843670137051959
96034	1	stim126_inanimate_fruits_banana_2.png	126	inanimate	fruits	banana	2	0	2	boats	2	incorrect	0.843670137051959
96234	1	stim191_inanimate_tools_pan_3.png	191	inanimate	tools	pan	3	0	2	boats	2	incorrect	0.843670137051959
96434	1	stim118_inanimate_clothing_socks_2.png	118	inanimate	clothing	socks	2	0	2	boats	2	incorrect	0.843670137051959
96634	1	stim078_animate_insect_grasshopper_2.png	78	animate	insect	grasshopper	2	0	2	boats	2	incorrect	0.843670137051959
96834	1	stim173_inanimate_plants_tree_1.png	173	inanimate	plants	tree	1	0	2	boats	2	incorrect	0.843670137051959
97034	1	stim073_animate_insect_dragonfly_1.png	73	animate	insect	dragonfly	1	0	2	boats	2	incorrect	0.843670137051959
97234	1	stim108_inanimate_clothing_hat_4.png	108	inanimate	clothing	hat	4	0	2	boats	2	incorrect	0.843670137051959
97434	1	stim111_inanimate_clothing_jeans_3.png	111	inanimate	clothing	jeans	3	0	2	boats	2	incorrect	0.843670137051959
97634	1	stim012_animate_aquatic_seahorse_4.png	12	animate	aquatic	seahorse	4	0	2	boats	2	incorrect	0.843670137051959
97834	1	stim085_animate_mammal_giraffe_1.png	85	animate	mammal	giraffe	1	0	2	boats	2	incorrect	0.843670137051959
98034	1	stim162_inanimate_plants_bush_2.png	162	inanimate	plants	bush	2	0	2	boats	2	incorrect	0.843670137051959
98234	1	stim098_animate_mammal_rhino_2.png	98	animate	mammal	rhino	2	0	2	boats	2	incorrect	0.843670137051959
98434	1	stim127_inanimate_fruits_banana_3.png	127	inanimate	fruits	banana	3	0	2	boats	2	incorrect	0.843670137051959
98634	1	stim033_animate_bird_peacock_1.png	33	animate	bird	peacock	1	0	2	boats	2	incorrect	0.843670137051959
98834	1	stim011_animate_aquatic_seahorse_3.png	11	animate	aquatic	seahorse	3	0	2	boats	2	incorrect	0.843670137051959
99034	1	stim179_inanimate_plants_tulip_3.png	179	inanimate	plants	tulip	3	0	2	boats	2	incorrect	0.843670137051959
99234	1	stim048_animate_human_child_4.png	48	animate	human	child	4	0	2	boats	2	incorrect	0.843670137051959
99434	1	stim158_inanimate_furniture_table_2.png	158	inanimate	furniture	table	2	0	2	boats	2	incorrect	0.843670137051959
99634	1	stim157_inanimate_furniture_table_1.png	157	inanimate	furniture	table	1	0	2	boats	2	incorrect	0.843670137051959
99834	1	stim207_targets_object_boats_3.png	207	targets	object	boats	3	1	2	boats	2	incorrect	0.843670137051959
100034	1	stim006_animate_aquatic_fish_2.png	6	animate	aquatic	fish	2	0	2	boats	2	incorrect	0.843670137051959
100234	1	stim109_inanimate_clothing_jeans_1.png	109	inanimate	clothing	jeans	1	0	2	boats	2	incorrect	0.843670137051959
100434	1	stim035_animate_bird_peacock_3.png	35	animate	bird	peacock	3	0	2	boats	2	incorrect	0.843670137051959
100634	1	stim013_animate_aquatic_shark_1.png	13	animate	aquatic	shark	1	0	2	boats	2	incorrect	0.843670137051959
100834	1	stim076_animate_insect_dragonfly_4.png	76	animate	insect	dragonfly	4	0	2	boats	2	incorrect	0.843670137051959
101034	1	stim059_animate_human_sports_3.png	59	animate	human	sports	3	0	2	boats	2	incorrect	0.843670137051959
101234	1	stim083_animate_mammal_cow_3.png	83	animate	mammal	cow	3	0	2	boats	2	incorrect	0.843670137051959
101434	1	stim005_animate_aquatic_fish_1.png	5	animate	aquatic	fish	1	0	2	boats	2	incorrect	0.843670137051959
101634	1	stim144_inanimate_furniture_bed_4.png	144	inanimate	furniture	bed	4	0	2	boats	2	incorrect	0.843670137051959
101834	1	stim112_inanimate_clothing_jeans_4.png	112	inanimate	clothing	jeans	4	0	2	boats	2	incorrect	0.843670137051959
102034	1	stim106_inanimate_clothing_hat_2.png	106	inanimate	clothing	hat	2	0	2	boats	2	incorrect	0.843670137051959
102234	1	stim132_inanimate_fruits_grape_4.png	132	inanimate	fruits	grape	4	0	2	boats	2	incorrect	0.843670137051959
102434	1	stim058_animate_human_sports_2.png	58	animate	human	sports	2	0	2	boats	2	incorrect	0.843670137051959
102634	1	stim056_animate_human_faces_4.png	56	animate	human	faces	4	0	2	boats	2	incorrect	0.843670137051959
102834	1	stim170_inanimate_plants_sunflower_2.png	170	inanimate	plants	sunflower	2	0	2	boats	2	incorrect	0.843670137051959
103034	1	stim110_inanimate_clothing_jeans_2.png	110	inanimate	clothing	jeans	2	0	2	boats	2	incorrect	0.843670137051959
103234	1	stim189_inanimate_tools_pan_1.png	189	inanimate	tools	pan	1	0	2	boats	2	incorrect	0.843670137051959
103434	1	stim029_animate_bird_parrot_1.png	29	animate	bird	parrot	1	0	2	boats	2	incorrect	0.843670137051959
103634	1	stim176_inanimate_plants_tree_4.png	176	inanimate	plants	tree	4	0	2	boats	2	incorrect	0.843670137051959
103834	1	stim018_animate_aquatic_shrimp_2.png	18	animate	aquatic	shrimp	2	0	2	boats	2	incorrect	0.843670137051959
104034	1	stim094_animate_mammal_monkey_2.png	94	animate	mammal	monkey	2	0	2	boats	2	incorrect	0.843670137051959
104234	1	stim097_animate_mammal_rhino_1.png	97	animate	mammal	rhino	1	0	2	boats	2	incorrect	0.843670137051959
104434	1	stim004_animate_aquatic_crab_4.png	4	animate	aquatic	crab	4	0	2	boats	2	incorrect	0.843670137051959
104634	1	stim093_animate_mammal_monkey_1.png	93	animate	mammal	monkey	1	0	2	boats	2	incorrect	0.843670137051959
104834	1	stim074_animate_insect_dragonfly_2.png	74	animate	insect	dragonfly	2	0	2	boats	2	incorrect	0.843670137051959
105034	1	stim051_animate_human_clown_3.png	51	animate	human	clown	3	0	2	boats	2	incorrect	0.843670137051959
105234	1	stim007_animate_aquatic_fish_3.png	7	animate	aquatic	fish	3	0	2	boats	2	incorrect	0.843670137051959
105434	1	stim140_inanimate_fruits_strawberry_4.png	140	inanimate	fruits	strawberry	4	0	2	boats	2	incorrect	0.843670137051959
105634	1	stim178_inanimate_plants_tulip_2.png	178	inanimate	plants	tulip	2	0	2	boats	2	incorrect	0.843670137051959
105834	1	stim067_animate_insect_bug_3.png	67	animate	insect	bug	3	0	2	boats	2	incorrect	0.843670137051959
106034	1	stim121_inanimate_fruits_apple_1.png	121	inanimate	fruits	apple	1	0	2	boats	2	incorrect	0.843670137051959
106234	1	stim148_inanimate_furniture_chair_4.png	148	inanimate	furniture	chair	4	0	2	boats	2	incorrect	0.843670137051959
106434	1	stim147_inanimate_furniture_chair_3.png	147	inanimate	furniture	chair	3	0	2	boats	2	incorrect	0.843670137051959
106634	1	stim026_animate_bird_duck_2.png	26	animate	bird	duck	2	0	2	boats	2	incorrect	0.843670137051959
106834	1	stim089_animate_mammal_kangaroo_1.png	89	animate	mammal	kangaroo	1	0	2	boats	2	incorrect	0.843670137051959
107034	1	stim152_inanimate_furniture_closet_4.png	152	inanimate	furniture	closet	4	0	2	boats	2	incorrect	0.843670137051959
107234	1	stim052_animate_human_clown_4.png	52	animate	human	clown	4	0	2	boats	2	incorrect	0.843670137051959
107434	1	stim041_animate_human_baby_1.png	41	animate	human	baby	1	0	2	boats	2	incorrect	0.843670137051959
107634	1	stim081_animate_mammal_cow_1.png	81	animate	mammal	cow	1	0	2	boats	2	incorrect	0.843670137051959
107834	1	stim079_animate_insect_grasshopper_3.png	79	animate	insect	grasshopper	3	0	2	boats	2	incorrect	0.843670137051959
108034	1	stim040_animate_bird_penguin_4.png	40	animate	bird	penguin	4	0	2	boats	2	incorrect	0.843670137051959
108234	1	stim145_inanimate_furniture_chair_1.png	145	inanimate	furniture	chair	1	0	2	boats	2	incorrect	0.843670137051959
108434	1	stim177_inanimate_plants_tulip_1.png	177	inanimate	plants	tulip	1	0	2	boats	2	incorrect	0.843670137051959
108634	1	stim046_animate_human_child_2.png	46	animate	human	child	2	0	2	boats	2	incorrect	0.843670137051959
108834	1	stim091_animate_mammal_kangaroo_3.png	91	animate	mammal	kangaroo	3	0	2	boats	2	incorrect	0.843670137051959
109034	1	stim164_inanimate_plants_bush_4.png	164	inanimate	plants	bush	4	0	2	boats	2	incorrect	0.843670137051959
109234	1	stim129_inanimate_fruits_grape_1.png	129	inanimate	fruits	grape	1	0	2	boats	2	incorrect	0.843670137051959
109434	1	stim117_inanimate_clothing_socks_1.png	117	inanimate	clothing	socks	1	0	2	boats	2	incorrect	0.843670137051959
109634	1	stim036_animate_bird_peacock_4.png	36	animate	bird	peacock	4	0	2	boats	2	incorrect	0.843670137051959
109834	1	stim099_animate_mammal_rhino_3.png	99	animate	mammal	rhino	3	0	2	boats	2	incorrect	0.843670137051959
110034	1	stim039_animate_bird_penguin_3.png	39	animate	bird	penguin	3	0	2	boats	2	incorrect	0.843670137051959
110234	1	stim095_animate_mammal_monkey_3.png	95	animate	mammal	monkey	3	0	2	boats	2	incorrect	0.843670137051959
110434	1	stim087_animate_mammal_giraffe_3.png	87	animate	mammal	giraffe	3	0	2	boats	2	incorrect	0.843670137051959
110634	1	stim045_animate_human_child_1.png	45	animate	human	child	1	0	2	boats	2	incorrect	0.843670137051959
110834	1	stim062_animate_insect_ant_2.png	62	animate	insect	ant	2	0	2	boats	2	incorrect	0.843670137051959
111034	1	stim038_animate_bird_penguin_2.png	38	animate	bird	penguin	2	0	2	boats	2	incorrect	0.843670137051959
111234	1	stim050_animate_human_clown_2.png	50	animate	human	clown	2	0	2	boats	2	incorrect	0.843670137051959
111434	1	stim015_animate_aquatic_shark_3.png	15	animate	aquatic	shark	3	0	2	boats	2	incorrect	0.843670137051959
111634	1	stim096_animate_mammal_monkey_4.png	96	animate	mammal	monkey	4	0	2	boats	2	incorrect	0.843670137051959
119984	1	stim108_inanimate_clothing_hat_4.png	108	inanimate	clothing	hat	4	0	3	boats	4	correct	0.641229747328907
120184	1	stim139_inanimate_fruits_strawberry_3.png	139	inanimate	fruits	strawberry	3	0	3	boats	4	correct	0.641229747328907
120385	1	stim069_animate_insect_butterfly_1.png	69	animate	insect	butterfly	1	0	3	boats	4	correct	0.641229747328907
120584	1	stim105_inanimate_clothing_hat_1.png	105	inanimate	clothing	hat	1	0	3	boats	4	correct	0.641229747328907
120785	1	stim112_inanimate_clothing_jeans_4.png	112	inanimate	clothing	jeans	4	0	3	boats	4	correct	0.641229747328907
120985	1	stim165_inanimate_plants_cactus_1.png	165	inanimate	plants	cactus	1	0	3	boats	4	correct	0.641229747328907
121185	1	stim087_animate_mammal_giraffe_3.png	87	animate	mammal	giraffe	3	0	3	boats	4	correct	0.641229747328907
121385	1	stim167_inanimate_plants_cactus_3.png	167	inanimate	plants	cactus	3	0	3	boats	4	correct	0.641229747328907
121585	1	stim123_inanimate_fruits_apple_3.png	123	inanimate	fruits	apple	3	0	3	boats	4	correct	0.641229747328907
121785	1	stim025_animate_bird_duck_1.png	25	animate	bird	duck	1	0	3	boats	4	correct	0.641229747328907
121985	1	stim192_inanimate_tools_pan_4.png	192	inanimate	tools	pan	4	0	3	boats	4	correct	0.641229747328907
122185	1	stim004_animate_aquatic_crab_4.png	4	animate	aquatic	crab	4	0	3	boats	4	correct	0.641229747328907
122385	1	stim032_animate_bird_parrot_4.png	32	animate	bird	parrot	4	0	3	boats	4	correct	0.641229747328907
122584	1	stim164_inanimate_plants_bush_4.png	164	inanimate	plants	bush	4	0	3	boats	4	correct	0.641229747328907
122785	1	stim067_animate_insect_bug_3.png	67	animate	insect	bug	3	0	3	boats	4	correct	0.641229747328907
122985	1	stim163_inanimate_plants_bush_3.png	163	inanimate	plants	bush	3	0	3	boats	4	correct	0.641229747328907
123185	1	stim177_inanimate_plants_tulip_1.png	177	inanimate	plants	tulip	1	0	3	boats	4	correct	0.641229747328907
123385	1	stim096_animate_mammal_monkey_4.png	96	animate	mammal	monkey	4	0	3	boats	4	correct	0.641229747328907
123585	1	stim081_animate_mammal_cow_1.png	81	animate	mammal	cow	1	0	3	boats	4	correct	0.641229747328907
123785	1	stim084_animate_mammal_cow_4.png	84	animate	mammal	cow	4	0	3	boats	4	correct	0.641229747328907
123985	1	stim007_animate_aquatic_fish_3.png	7	animate	aquatic	fish	3	0	3	boats	4	correct	0.641229747328907
124185	1	stim110_inanimate_clothing_jeans_2.png	110	inanimate	clothing	jeans	2	0	3	boats	4	correct	0.641229747328907
124385	1	stim141_inanimate_furniture_bed_1.png	141	inanimate	furniture	bed	1	0	3	boats	4	correct	0.641229747328907
124585	1	stim079_animate_insect_grasshopper_3.png	79	animate	insect	grasshopper	3	0	3	boats	4	correct	0.641229747328907
124785	1	stim049_animate_human_clown_1.png	49	animate	human	clown	1	0	3	boats	4	correct	0.641229747328907
124985	1	stim114_inanimate_clothing_shirt_2.png	114	inanimate	clothing	shirt	2	0	3	boats	4	correct	0.641229747328907
125185	1	stim174_inanimate_plants_tree_2.png	174	inanimate	plants	tree	2	0	3	boats	4	correct	0.641229747328907
125385	1	stim039_animate_bird_penguin_3.png	39	animate	bird	penguin	3	0	3	boats	4	correct	0.641229747328907
125585	1	stim054_animate_human_faces_2.png	54	animate	human	faces	2	0	3	boats	4	correct	0.641229747328907
125785	1	stim186_inanimate_tools_hammer_2.png	186	inanimate	tools	hammer	2	0	3	boats	4	correct	0.641229747328907
125985	1	stim037_animate_bird_penguin_1.png	37	animate	bird	penguin	1	0	3	boats	4	correct	0.641229747328907
126185	1	stim099_animate_mammal_rhino_3.png	99	animate	mammal	rhino	3	0	3	boats	4	correct	0.641229747328907
126385	1	stim176_inanimate_plants_tree_4.png	176	inanimate	plants	tree	4	0	3	boats	4	correct	0.641229747328907
126585	1	stim058_animate_human_sports_2.png	58	animate	human	sports	2	0	3	boats	4	correct	0.641229747328907
126785	1	stim009_animate_aquatic_seahorse_1.png	9	animate	aquatic	seahorse	1	0	3	boats	4	correct	0.641229747328907
126985	1	stim097_animate_mammal_rhino_1.png	97	animate	mammal	rhino	1	0	3	boats	4	correct	0.641229747328907
127185	1	stim041_animate_human_baby_1.png	41	animate	human	baby	1	0	3	boats	4	correct	0.641229747328907
127385	1	stim044_animate_human_baby_4.png	44	animate	human	baby	4	0	3	boats	4	correct	0.641229747328907
127585	1	stim134_inanimate_fruits_pineapple_2.png	134	inanimate	fruits	pineapple	2	0	3	boats	4	correct	0.641229747328907
127785	1	stim003_animate_aquatic_crab_3.png	3	animate	aquatic	crab	3	0	3	boats	4	correct	0.641229747328907
127985	1	stim100_animate_mammal_rhino_4.png	100	animate	mammal	rhino	4	0	3	boats	4	correct	0.641229747328907
128185	1	stim147_inanimate_furniture_chair_3.png	147	inanimate	furniture	chair	3	0	3	boats	4	correct	0.641229747328907
128385	1	stim157_inanimate_furniture_table_1.png	157	inanimate	furniture	table	1	0	3	boats	4	correct	0.641229747328907
128585	1	stim033_animate_bird_peacock_1.png	33	animate	bird	peacock	1	0	3	boats	4	correct	0.641229747328907
128785	1	stim045_animate_human_child_1.png	45	animate	human	child	1	0	3	boats	4	correct	0.641229747328907
128985	1	stim095_animate_mammal_monkey_3.png	95	animate	mammal	monkey	3	0	3	boats	4	correct	0.641229747328907
129185	1	stim063_animate_insect_ant_3.png	63	animate	insect	ant	3	0	3	boats	4	correct	0.641229747328907
129385	1	stim138_inanimate_fruits_strawberry_2.png	138	inanimate	fruits	strawberry	2	0	3	boats	4	correct	0.641229747328907
129585	1	stim030_animate_bird_parrot_2.png	30	animate	bird	parrot	2	0	3	boats	4	correct	0.641229747328907
129785	1	stim129_inanimate_fruits_grape_1.png	129	inanimate	fruits	grape	1	0	3	boats	4	correct	0.641229747328907
129985	1	stim131_inanimate_fruits_grape_3.png	131	inanimate	fruits	grape	3	0	3	boats	4	correct	0.641229747328907
130185	1	stim146_inanimate_furniture_chair_2.png	146	inanimate	furniture	chair	2	0	3	boats	4	correct	0.641229747328907
130385	1	stim154_inanimate_furniture_sofa_2.png	154	inanimate	furniture	sofa	2	0	3	boats	4	correct	0.641229747328907
130585	1	stim104_inanimate_clothing_gloves_4.png	104	inanimate	clothing	gloves	4	0	3	boats	4	correct	0.641229747328907
130785	1	stim036_animate_bird_peacock_4.png	36	animate	bird	peacock	4	0	3	boats	4	correct	0.641229747328907
130985	1	stim019_animate_aquatic_shrimp_3.png	19	animate	aquatic	shrimp	3	0	3	boats	4	correct	0.641229747328907
131185	1	stim040_animate_bird_penguin_4.png	40	animate	bird	penguin	4	0	3	boats	4	correct	0.641229747328907
131385	1	stim206_targets_object_boats_2.png	206	targets	object	boats	2	1	3	boats	4	correct	0.641229747328907
131585	1	stim046_animate_human_child_2.png	46	animate	human	child	2	0	3	boats	4	correct	0.641229747328907
131785	1	stim199_inanimate_tools_wrench_3.png	199	inanimate	tools	wrench	3	0	3	boats	4	correct	0.641229747328907
131985	1	stim093_animate_mammal_monkey_1.png	93	animate	mammal	monkey	1	0	3	boats	4	correct	0.641229747328907
132185	1	stim113_inanimate_clothing_shirt_1.png	113	inanimate	clothing	shirt	1	0	3	boats	4	correct	0.641229747328907
132385	1	stim144_inanimate_furniture_bed_4.png	144	inanimate	furniture	bed	4	0	3	boats	4	correct	0.641229747328907
132585	1	stim022_animate_bird_chicken_2.png	22	animate	bird	chicken	2	0	3	boats	4	correct	0.641229747328907
132785	1	stim119_inanimate_clothing_socks_3.png	119	inanimate	clothing	socks	3	0	3	boats	4	correct	0.641229747328907
132985	1	stim126_inanimate_fruits_banana_2.png	126	inanimate	fruits	banana	2	0	3	boats	4	correct	0.641229747328907
133185	1	stim111_inanimate_clothing_jeans_3.png	111	inanimate	clothing	jeans	3	0	3	boats	4	correct	0.641229747328907
133385	1	stim109_inanimate_clothing_jeans_1.png	109	inanimate	clothing	jeans	1	0	3	boats	4	correct	0.641229747328907
133585	1	stim053_animate_human_faces_1.png	53	animate	human	faces	1	0	3	boats	4	correct	0.641229747328907
133785	1	stim015_animate_aquatic_shark_3.png	15	animate	aquatic	shark	3	0	3	boats	4	correct	0.641229747328907
133985	1	stim072_animate_insect_butterfly_4.png	72	animate	insect	butterfly	4	0	3	boats	4	correct	0.641229747328907
134185	1	stim135_inanimate_fruits_pineapple_3.png	135	inanimate	fruits	pineapple	3	0	3	boats	4	correct	0.641229747328907
134385	1	stim052_animate_human_clown_4.png	52	animate	human	clown	4	0	3	boats	4	correct	0.641229747328907
134585	1	stim020_animate_aquatic_shrimp_4.png	20	animate	aquatic	shrimp	4	0	3	boats	4	correct	0.641229747328907
134785	1	stim098_animate_mammal_rhino_2.png	98	animate	mammal	rhino	2	0	3	boats	4	correct	0.641229747328907
134985	1	stim155_inanimate_furniture_sofa_3.png	155	inanimate	furniture	sofa	3	0	3	boats	4	correct	0.641229747328907
135185	1	stim171_inanimate_plants_sunflower_3.png	171	inanimate	plants	sunflower	3	0	3	boats	4	correct	0.641229747328907
135385	1	stim085_animate_mammal_giraffe_1.png	85	animate	mammal	giraffe	1	0	3	boats	4	correct	0.641229747328907
135585	1	stim143_inanimate_furniture_bed_3.png	143	inanimate	furniture	bed	3	0	3	boats	4	correct	0.641229747328907
135785	1	stim196_inanimate_tools_scissors_4.png	196	inanimate	tools	scissors	4	0	3	boats	4	correct	0.641229747328907
135985	1	stim077_animate_insect_grasshopper_1.png	77	animate	insect	grasshopper	1	0	3	boats	4	correct	0.641229747328907
136185	1	stim130_inanimate_fruits_grape_2.png	130	inanimate	fruits	grape	2	0	3	boats	4	correct	0.641229747328907
136385	1	stim026_animate_bird_duck_2.png	26	animate	bird	duck	2	0	3	boats	4	correct	0.641229747328907
136585	1	stim042_animate_human_baby_2.png	42	animate	human	baby	2	0	3	boats	4	correct	0.641229747328907
136785	1	stim008_animate_aquatic_fish_4.png	8	animate	aquatic	fish	4	0	3	boats	4	correct	0.641229747328907
136985	1	stim189_inanimate_tools_pan_1.png	189	inanimate	tools	pan	1	0	3	boats	4	correct	0.641229747328907
137185	1	stim198_inanimate_tools_wrench_2.png	198	inanimate	tools	wrench	2	0	3	boats	4	correct	0.641229747328907
137385	1	stim115_inanimate_clothing_shirt_3.png	115	inanimate	clothing	shirt	3	0	3	boats	4	correct	0.641229747328907
137585	1	stim088_animate_mammal_giraffe_4.png	88	animate	mammal	giraffe	4	0	3	boats	4	correct	0.641229747328907
137785	1	stim136_inanimate_fruits_pineapple_4.png	136	inanimate	fruits	pineapple	4	0	3	boats	4	correct	0.641229747328907
137985	1	stim127_inanimate_fruits_banana_3.png	127	inanimate	fruits	banana	3	0	3	boats	4	correct	0.641229747328907
138185	1	stim161_inanimate_plants_bush_1.png	161	inanimate	plants	bush	1	0	3	boats	4	correct	0.641229747328907
138385	1	stim038_animate_bird_penguin_2.png	38	animate	bird	penguin	2	0	3	boats	4	correct	0.641229747328907
138585	1	stim208_targets_object_boats_4.png	208	targets	object	boats	4	1	3	boats	4	correct	0.641229747328907
138785	1	stim050_animate_human_clown_2.png	50	animate	human	clown	2	0	3	boats	4	correct	0.641229747328907
138985	1	stim125_inanimate_fruits_banana_1.png	125	inanimate	fruits	banana	1	0	3	boats	4	correct	0.641229747328907
139185	1	stim148_inanimate_furniture_chair_4.png	148	inanimate	furniture	chair	4	0	3	boats	4	correct	0.641229747328907
139385	1	stim028_animate_bird_duck_4.png	28	animate	bird	duck	4	0	3	boats	4	correct	0.641229747328907
139585	1	stim076_animate_insect_dragonfly_4.png	76	animate	insect	dragonfly	4	0	3	boats	4	correct	0.641229747328907
139785	1	stim102_inanimate_clothing_gloves_2.png	102	inanimate	clothing	gloves	2	0	3	boats	4	correct	0.641229747328907
139985	1	stim089_animate_mammal_kangaroo_1.png	89	animate	mammal	kangaroo	1	0	3	boats	4	correct	0.641229747328907
140185	1	stim070_animate_insect_butterfly_2.png	70	animate	insect	butterfly	2	0	3	boats	4	correct	0.641229747328907
140385	1	stim057_animate_human_sports_1.png	57	animate	human	sports	1	0	3	boats	4	correct	0.641229747328907
140585	1	stim190_inanimate_tools_pan_2.png	190	inanimate	tools	pan	2	0	3	boats	4	correct	0.641229747328907
140785	1	stim078_animate_insect_grasshopper_2.png	78	animate	insect	grasshopper	2	0	3	boats	4	correct	0.641229747328907
140985	1	stim035_animate_bird_peacock_3.png	35	animate	bird	peacock	3	0	3	boats	4	correct	0.641229747328907
141185	1	stim201_targets_object_boats_1.png	201	targets	object	boats	1	1	3	boats	4	correct	0.641229747328907
141385	1	stim193_inanimate_tools_scissors_1.png	193	inanimate	tools	scissors	1	0	3	boats	4	correct	0.641229747328907
141585	1	stim116_inanimate_clothing_shirt_4.png	116	inanimate	clothing	shirt	4	0	3	boats	4	correct	0.641229747328907
141785	1	stim188_inanimate_tools_hammer_4.png	188	inanimate	tools	hammer	4	0	3	boats	4	correct	0.641229747328907
141985	1	stim149_inanimate_furniture_closet_1.png	149	inanimate	furniture	closet	1	0	3	boats	4	correct	0.641229747328907
142185	1	stim001_animate_aquatic_crab_1.png	1	animate	aquatic	crab	1	0	3	boats	4	correct	0.641229747328907
142385	1	stim101_inanimate_clothing_gloves_1.png	101	inanimate	clothing	gloves	1	0	3	boats	4	correct	0.641229747328907
142585	1	stim017_animate_aquatic_shrimp_1.png	17	animate	aquatic	shrimp	1	0	3	boats	4	correct	0.641229747328907
142785	1	stim183_inanimate_tools_broom_3.png	183	inanimate	tools	broom	3	0	3	boats	4	correct	0.641229747328907
142985	1	stim090_animate_mammal_kangaroo_2.png	90	animate	mammal	kangaroo	2	0	3	boats	4	correct	0.641229747328907
143185	1	stim107_inanimate_clothing_hat_3.png	107	inanimate	clothing	hat	3	0	3	boats	4	correct	0.641229747328907
143385	1	stim142_inanimate_furniture_bed_2.png	142	inanimate	furniture	bed	2	0	3	boats	4	correct	0.641229747328907
143585	1	stim160_inanimate_furniture_table_4.png	160	inanimate	furniture	table	4	0	3	boats	4	correct	0.641229747328907
143785	1	stim106_inanimate_clothing_hat_2.png	106	inanimate	clothing	hat	2	0	3	boats	4	correct	0.641229747328907
143985	1	stim043_animate_human_baby_3.png	43	animate	human	baby	3	0	3	boats	4	correct	0.641229747328907
144185	1	stim060_animate_human_sports_4.png	60	animate	human	sports	4	0	3	boats	4	correct	0.641229747328907
144385	1	stim197_inanimate_tools_wrench_1.png	197	inanimate	tools	wrench	1	0	3	boats	4	correct	0.641229747328907
144585	1	stim010_animate_aquatic_seahorse_2.png	10	animate	aquatic	seahorse	2	0	3	boats	4	correct	0.641229747328907
144785	1	stim034_animate_bird_peacock_2.png	34	animate	bird	peacock	2	0	3	boats	4	correct	0.641229747328907
144985	1	stim151_inanimate_furniture_closet_3.png	151	inanimate	furniture	closet	3	0	3	boats	4	correct	0.641229747328907
145185	1	stim194_inanimate_tools_scissors_2.png	194	inanimate	tools	scissors	2	0	3	boats	4	correct	0.641229747328907
145385	1	stim024_animate_bird_chicken_4.png	24	animate	bird	chicken	4	0	3	boats	4	correct	0.641229747328907
145585	1	stim064_animate_insect_ant_4.png	64	animate	insect	ant	4	0	3	boats	4	correct	0.641229747328907
145785	1	stim075_animate_insect_dragonfly_3.png	75	animate	insect	dragonfly	3	0	3	boats	4	correct	0.641229747328907
145985	1	stim005_animate_aquatic_fish_1.png	5	animate	aquatic	fish	1	0	3	boats	4	correct	0.641229747328907
146185	1	stim158_inanimate_furniture_table_2.png	158	inanimate	furniture	table	2	0	3	boats	4	correct	0.641229747328907
146385	1	stim071_animate_insect_butterfly_3.png	71	animate	insect	butterfly	3	0	3	boats	4	correct	0.641229747328907
146585	1	stim175_inanimate_plants_tree_3.png	175	inanimate	plants	tree	3	0	3	boats	4	correct	0.641229747328907
146785	1	stim086_animate_mammal_giraffe_2.png	86	animate	mammal	giraffe	2	0	3	boats	4	correct	0.641229747328907
146985	1	stim021_animate_bird_chicken_1.png	21	animate	bird	chicken	1	0	3	boats	4	correct	0.641229747328907
147185	1	stim195_inanimate_tools_scissors_3.png	195	inanimate	tools	scissors	3	0	3	boats	4	correct	0.641229747328907
147385	1	stim187_inanimate_tools_hammer_3.png	187	inanimate	tools	hammer	3	0	3	boats	4	correct	0.641229747328907
147585	1	stim065_animate_insect_bug_1.png	65	animate	insect	bug	1	0	3	boats	4	correct	0.641229747328907
147785	1	stim202_targets_object_boats_2.png	202	targets	object	boats	2	1	3	boats	4	correct	0.641229747328907
147985	1	stim011_animate_aquatic_seahorse_3.png	11	animate	aquatic	seahorse	3	0	3	boats	4	correct	0.641229747328907
148185	1	stim091_animate_mammal_kangaroo_3.png	91	animate	mammal	kangaroo	3	0	3	boats	4	correct	0.641229747328907
148385	1	stim056_animate_human_faces_4.png	56	animate	human	faces	4	0	3	boats	4	correct	0.641229747328907
148585	1	stim118_inanimate_clothing_socks_2.png	118	inanimate	clothing	socks	2	0	3	boats	4	correct	0.641229747328907
148785	1	stim103_inanimate_clothing_gloves_3.png	103	inanimate	clothing	gloves	3	0	3	boats	4	correct	0.641229747328907
148985	1	stim082_animate_mammal_cow_2.png	82	animate	mammal	cow	2	0	3	boats	4	correct	0.641229747328907
149185	1	stim122_inanimate_fruits_apple_2.png	122	inanimate	fruits	apple	2	0	3	boats	4	correct	0.641229747328907
149385	1	stim180_inanimate_plants_tulip_4.png	180	inanimate	plants	tulip	4	0	3	boats	4	correct	0.641229747328907
149585	1	stim059_animate_human_sports_3.png	59	animate	human	sports	3	0	3	boats	4	correct	0.641229747328907
149785	1	stim170_inanimate_plants_sunflower_2.png	170	inanimate	plants	sunflower	2	0	3	boats	4	correct	0.641229747328907
149985	1	stim047_animate_human_child_3.png	47	animate	human	child	3	0	3	boats	4	correct	0.641229747328907
150185	1	stim153_inanimate_furniture_sofa_1.png	153	inanimate	furniture	sofa	1	0	3	boats	4	correct	0.641229747328907
150385	1	stim172_inanimate_plants_sunflower_4.png	172	inanimate	plants	sunflower	4	0	3	boats	4	correct	0.641229747328907
150585	1	stim066_animate_insect_bug_2.png	66	animate	insect	bug	2	0	3	boats	4	correct	0.641229747328907
150785	1	stim200_inanimate_tools_wrench_4.png	200	inanimate	tools	wrench	4	0	3	boats	4	correct	0.641229747328907
150985	1	stim012_animate_aquatic_seahorse_4.png	12	animate	aquatic	seahorse	4	0	3	boats	4	correct	0.641229747328907
151185	1	stim173_inanimate_plants_tree_1.png	173	inanimate	plants	tree	1	0	3	boats	4	correct	0.641229747328907
151385	1	stim014_animate_aquatic_shark_2.png	14	animate	aquatic	shark	2	0	3	boats	4	correct	0.641229747328907
151585	1	stim182_inanimate_tools_broom_2.png	182	inanimate	tools	broom	2	0	3	boats	4	correct	0.641229747328907
151785	1	stim132_inanimate_fruits_grape_4.png	132	inanimate	fruits	grape	4	0	3	boats	4	correct	0.641229747328907
151985	1	stim023_animate_bird_chicken_3.png	23	animate	bird	chicken	3	0	3	boats	4	correct	0.641229747328907
152185	1	stim029_animate_bird_parrot_1.png	29	animate	bird	parrot	1	0	3	boats	4	correct	0.641229747328907
152385	1	stim178_inanimate_plants_tulip_2.png	178	inanimate	plants	tulip	2	0	3	boats	4	correct	0.641229747328907
152585	1	stim150_inanimate_furniture_closet_2.png	150	inanimate	furniture	closet	2	0	3	boats	4	correct	0.641229747328907
152785	1	stim162_inanimate_plants_bush_2.png	162	inanimate	plants	bush	2	0	3	boats	4	correct	0.641229747328907
152985	1	stim068_animate_insect_bug_4.png	68	animate	insect	bug	4	0	3	boats	4	correct	0.641229747328907
153185	1	stim156_inanimate_furniture_sofa_4.png	156	inanimate	furniture	sofa	4	0	3	boats	4	correct	0.641229747328907
153385	1	stim124_inanimate_fruits_apple_4.png	124	inanimate	fruits	apple	4	0	3	boats	4	correct	0.641229747328907
153585	1	stim117_inanimate_clothing_socks_1.png	117	inanimate	clothing	socks	1	0	3	boats	4	correct	0.641229747328907
153785	1	stim166_inanimate_plants_cactus_2.png	166	inanimate	plants	cactus	2	0	3	boats	4	correct	0.641229747328907
153985	1	stim128_inanimate_fruits_banana_4.png	128	inanimate	fruits	banana	4	0	3	boats	4	correct	0.641229747328907
154185	1	stim092_animate_mammal_kangaroo_4.png	92	animate	mammal	kangaroo	4	0	3	boats	4	correct	0.641229747328907
154385	1	stim159_inanimate_furniture_table_3.png	159	inanimate	furniture	table	3	0	3	boats	4	correct	0.641229747328907
154585	1	stim080_animate_insect_grasshopper_4.png	80	animate	insect	grasshopper	4	0	3	boats	4	correct	0.641229747328907
154785	1	stim062_animate_insect_ant_2.png	62	animate	insect	ant	2	0	3	boats	4	correct	0.641229747328907
154985	1	stim152_inanimate_furniture_closet_4.png	152	inanimate	furniture	closet	4	0	3	boats	4	correct	0.641229747328907
155185	1	stim083_animate_mammal_cow_3.png	83	animate	mammal	cow	3	0	3	boats	4	correct	0.641229747328907
155385	1	stim073_animate_insect_dragonfly_1.png	73	animate	insect	dragonfly	1	0	3	boats	4	correct	0.641229747328907
155585	1	stim191_inanimate_tools_pan_3.png	191	inanimate	tools	pan	3	0	3	boats	4	correct	0.641229747328907
155785	1	stim055_animate_human_faces_3.png	55	animate	human	faces	3	0	3	boats	4	correct	0.641229747328907
155985	1	stim002_animate_aquatic_crab_2.png	2	animate	aquatic	crab	2	0	3	boats	4	correct	0.641229747328907
156185	1	stim168_inanimate_plants_cactus_4.png	168	inanimate	plants	cactus	4	0	3	boats	4	correct	0.641229747328907
156385	1	stim027_animate_bird_duck_3.png	27	animate	bird	duck	3	0	3	boats	4	correct	0.641229747328907
156585	1	stim016_animate_aquatic_shark_4.png	16	animate	aquatic	shark	4	0	3	boats	4	correct	0.641229747328907
156785	1	stim061_animate_insect_ant_1.png	61	animate	insect	ant	1	0	3	boats	4	correct	0.641229747328907
156985	1	stim185_inanimate_tools_hammer_1.png	185	inanimate	tools	hammer	1	0	3	boats	4	correct	0.641229747328907
157185	1	stim121_inanimate_fruits_apple_1.png	121	inanimate	fruits	apple	1	0	3	boats	4	correct	0.641229747328907
157385	1	stim074_animate_insect_dragonfly_2.png	74	animate	insect	dragonfly	2	0	3	boats	4	correct	0.641229747328907
157585	1	stim051_animate_human_clown_3.png	51	animate	human	clown	3	0	3	boats	4	correct	0.641229747328907
157785	1	stim018_animate_aquatic_shrimp_2.png	18	animate	aquatic	shrimp	2	0	3	boats	4	correct	0.641229747328907
157985	1	stim137_inanimate_fruits_strawberry_1.png	137	inanimate	fruits	strawberry	1	0	3	boats	4	correct	0.641229747328907
158185	1	stim048_animate_human_child_4.png	48	animate	human	child	4	0	3	boats	4	correct	0.641229747328907
158385	1	stim031_animate_bird_parrot_3.png	31	animate	bird	parrot	3	0	3	boats	4	correct	0.641229747328907
158585	1	stim120_inanimate_clothing_socks_4.png	120	inanimate	clothing	socks	4	0	3	boats	4	correct	0.641229747328907
158785	1	stim006_animate_aquatic_fish_2.png	6	animate	aquatic	fish	2	0	3	boats	4	correct	0.641229747328907
158985	1	stim013_animate_aquatic_shark_1.png	13	animate	aquatic	shark	1	0	3	boats	4	correct	0.641229747328907
159185	1	stim133_inanimate_fruits_pineapple_1.png	133	inanimate	fruits	pineapple	1	0	3	boats	4	correct	0.641229747328907
159385	1	stim181_inanimate_tools_broom_1.png	181	inanimate	tools	broom	1	0	3	boats	4	correct	0.641229747328907
159585	1	stim145_inanimate_furniture_chair_1.png	145	inanimate	furniture	chair	1	0	3	boats	4	correct	0.641229747328907
159785	1	stim094_animate_mammal_monkey_2.png	94	animate	mammal	monkey	2	0	3	boats	4	correct	0.641229747328907
159985	1	stim179_inanimate_plants_tulip_3.png	179	inanimate	plants	tulip	3	0	3	boats	4	correct	0.641229747328907
160185	1	stim184_inanimate_tools_broom_4.png	184	inanimate	tools	broom	4	0	3	boats	4	correct	0.641229747328907
160385	1	stim169_inanimate_plants_sunflower_1.png	169	inanimate	plants	sunflower	1	0	3	boats	4	correct	0.641229747328907
160585	1	stim140_inanimate_fruits_strawberry_4.png	140	inanimate	fruits	strawberry	4	0	3	boats	4	correct	0.641229747328907
170886	1	stim093_animate_mammal_monkey_1.png	93	animate	mammal	monkey	1	0	4	stars	1	correct	0.777662780834362
171086	1	stim001_animate_aquatic_crab_1.png	1	animate	aquatic	crab	1	0	4	stars	1	correct	0.777662780834362
171286	1	stim113_inanimate_clothing_shirt_1.png	113	inanimate	clothing	shirt	1	0	4	stars	1	correct	0.777662780834362
171486	1	stim055_animate_human_faces_3.png	55	animate	human	faces	3	0	4	stars	1	correct	0.777662780834362
171686	1	stim025_animate_bird_duck_1.png	25	animate	bird	duck	1	0	4	stars	1	correct	0.777662780834362
171886	1	stim173_inanimate_plants_tree_1.png	173	inanimate	plants	tree	1	0	4	stars	1	correct	0.777662780834362
172086	1	stim032_animate_bird_parrot_4.png	32	animate	bird	parrot	4	0	4	stars	1	correct	0.777662780834362
172286	1	stim148_inanimate_furniture_chair_4.png	148	inanimate	furniture	chair	4	0	4	stars	1	correct	0.777662780834362
172486	1	stim194_inanimate_tools_scissors_2.png	194	inanimate	tools	scissors	2	0	4	stars	1	correct	0.777662780834362
172686	1	stim077_animate_insect_grasshopper_1.png	77	animate	insect	grasshopper	1	0	4	stars	1	correct	0.777662780834362
172886	1	stim009_animate_aquatic_seahorse_1.png	9	animate	aquatic	seahorse	1	0	4	stars	1	correct	0.777662780834362
173086	1	stim182_inanimate_tools_broom_2.png	182	inanimate	tools	broom	2	0	4	stars	1	correct	0.777662780834362
173286	1	stim082_animate_mammal_cow_2.png	82	animate	mammal	cow	2	0	4	stars	1	correct	0.777662780834362
173486	1	stim075_animate_insect_dragonfly_3.png	75	animate	insect	dragonfly	3	0	4	stars	1	correct	0.777662780834362
173686	1	stim115_inanimate_clothing_shirt_3.png	115	inanimate	clothing	shirt	3	0	4	stars	1	correct	0.777662780834362
173886	1	stim118_inanimate_clothing_socks_2.png	118	inanimate	clothing	socks	2	0	4	stars	1	correct	0.777662780834362
174086	1	stim144_inanimate_furniture_bed_4.png	144	inanimate	furniture	bed	4	0	4	stars	1	correct	0.777662780834362
174286	1	stim015_animate_aquatic_shark_3.png	15	animate	aquatic	shark	3	0	4	stars	1	correct	0.777662780834362
174486	1	stim004_animate_aquatic_crab_4.png	4	animate	aquatic	crab	4	0	4	stars	1	correct	0.777662780834362
174686	1	stim031_animate_bird_parrot_3.png	31	animate	bird	parrot	3	0	4	stars	1	correct	0.777662780834362
174886	1	stim097_animate_mammal_rhino_1.png	97	animate	mammal	rhino	1	0	4	stars	1	correct	0.777662780834362
175086	1	stim149_inanimate_furniture_closet_1.png	149	inanimate	furniture	closet	1	0	4	stars	1	correct	0.777662780834362
175286	1	stim193_inanimate_tools_scissors_1.png	193	inanimate	tools	scissors	1	0	4	stars	1	correct	0.777662780834362
175486	1	stim147_inanimate_furniture_chair_3.png	147	inanimate	furniture	chair	3	0	4	stars	1	correct	0.777662780834362
175686	1	stim177_inanimate_plants_tulip_1.png	177	inanimate	plants	tulip	1	0	4	stars	1	correct	0.777662780834362
175886	1	stim089_animate_mammal_kangaroo_1.png	89	animate	mammal	kangaroo	1	0	4	stars	1	correct	0.777662780834362
176086	1	stim102_inanimate_clothing_gloves_2.png	102	inanimate	clothing	gloves	2	0	4	stars	1	correct	0.777662780834362
176286	1	stim087_animate_mammal_giraffe_3.png	87	animate	mammal	giraffe	3	0	4	stars	1	correct	0.777662780834362
176486	1	stim137_inanimate_fruits_strawberry_1.png	137	inanimate	fruits	strawberry	1	0	4	stars	1	correct	0.777662780834362
176686	1	stim163_inanimate_plants_bush_3.png	163	inanimate	plants	bush	3	0	4	stars	1	correct	0.777662780834362
176886	1	stim081_animate_mammal_cow_1.png	81	animate	mammal	cow	1	0	4	stars	1	correct	0.777662780834362
177086	1	stim166_inanimate_plants_cactus_2.png	166	inanimate	plants	cactus	2	0	4	stars	1	correct	0.777662780834362
177286	1	stim120_inanimate_clothing_socks_4.png	120	inanimate	clothing	socks	4	0	4	stars	1	correct	0.777662780834362
177486	1	stim096_animate_mammal_monkey_4.png	96	animate	mammal	monkey	4	0	4	stars	1	correct	0.777662780834362
177686	1	stim170_inanimate_plants_sunflower_2.png	170	inanimate	plants	sunflower	2	0	4	stars	1	correct	0.777662780834362
177886	1	stim054_animate_human_faces_2.png	54	animate	human	faces	2	0	4	stars	1	correct	0.777662780834362
178086	1	stim117_inanimate_clothing_socks_1.png	117	inanimate	clothing	socks	1	0	4	stars	1	correct	0.777662780834362
178286	1	stim034_animate_bird_peacock_2.png	34	animate	bird	peacock	2	0	4	stars	1	correct	0.777662780834362
178486	1	stim064_animate_insect_ant_4.png	64	animate	insect	ant	4	0	4	stars	1	correct	0.777662780834362
178686	1	stim008_animate_aquatic_fish_4.png	8	animate	aquatic	fish	4	0	4	stars	1	correct	0.777662780834362
178886	1	stim007_animate_aquatic_fish_3.png	7	animate	aquatic	fish	3	0	4	stars	1	correct	0.777662780834362
179086	1	stim122_inanimate_fruits_apple_2.png	122	inanimate	fruits	apple	2	0	4	stars	1	correct	0.777662780834362
179286	1	stim026_animate_bird_duck_2.png	26	animate	bird	duck	2	0	4	stars	1	correct	0.777662780834362
179486	1	stim114_inanimate_clothing_shirt_2.png	114	inanimate	clothing	shirt	2	0	4	stars	1	correct	0.777662780834362
179686	1	stim197_inanimate_tools_wrench_1.png	197	inanimate	tools	wrench	1	0	4	stars	1	correct	0.777662780834362
179886	1	stim139_inanimate_fruits_strawberry_3.png	139	inanimate	fruits	strawberry	3	0	4	stars	1	correct	0.777662780834362
180086	1	stim161_inanimate_plants_bush_1.png	161	inanimate	plants	bush	1	0	4	stars	1	correct	0.777662780834362
180286	1	stim062_animate_insect_ant_2.png	62	animate	insect	ant	2	0	4	stars	1	correct	0.777662780834362
180486	1	stim059_animate_human_sports_3.png	59	animate	human	sports	3	0	4	stars	1	correct	0.777662780834362
180686	1	stim010_animate_aquatic_seahorse_2.png	10	animate	aquatic	seahorse	2	0	4	stars	1	correct	0.777662780834362
180886	1	stim188_inanimate_tools_hammer_4.png	188	inanimate	tools	hammer	4	0	4	stars	1	correct	0.777662780834362
181086	1	stim131_inanimate_fruits_grape_3.png	131	inanimate	fruits	grape	3	0	4	stars	1	correct	0.777662780834362
181286	1	stim092_animate_mammal_kangaroo_4.png	92	animate	mammal	kangaroo	4	0	4	stars	1	correct	0.777662780834362
181486	1	stim080_animate_insect_grasshopper_4.png	80	animate	insect	grasshopper	4	0	4	stars	1	correct	0.777662780834362
181686	1	stim078_animate_insect_grasshopper_2.png	78	animate	insect	grasshopper	2	0	4	stars	1	correct	0.777662780834362
181886	1	stim107_inanimate_clothing_hat_3.png	107	inanimate	clothing	hat	3	0	4	stars	1	correct	0.777662780834362
182086	1	stim088_animate_mammal_giraffe_4.png	88	animate	mammal	giraffe	4	0	4	stars	1	correct	0.777662780834362
182286	1	stim154_inanimate_furniture_sofa_2.png	154	inanimate	furniture	sofa	2	0	4	stars	1	correct	0.777662780834362
182486	1	stim037_animate_bird_penguin_1.png	37	animate	bird	penguin	1	0	4	stars	1	correct	0.777662780834362
182686	1	stim119_inanimate_clothing_socks_3.png	119	inanimate	clothing	socks	3	0	4	stars	1	correct	0.777662780834362
182886	1	stim164_inanimate_plants_bush_4.png	164	inanimate	plants	bush	4	0	4	stars	1	correct	0.777662780834362
183086	1	stim167_inanimate_plants_cactus_3.png	167	inanimate	plants	cactus	3	0	4	stars	1	correct	0.777662780834362
183286	1	stim072_animate_insect_butterfly_4.png	72	animate	insect	butterfly	4	0	4	stars	1	correct	0.777662780834362
183486	1	stim129_inanimate_fruits_grape_1.png	129	inanimate	fruits	grape	1	0	4	stars	1	correct	0.777662780834362
183686	1	stim052_animate_human_clown_4.png	52	animate	human	clown	4	0	4	stars	1	correct	0.777662780834362
183886	1	stim165_inanimate_plants_cactus_1.png	165	inanimate	plants	cactus	1	0	4	stars	1	correct	0.777662780834362
184086	1	stim100_animate_mammal_rhino_4.png	100	animate	mammal	rhino	4	0	4	stars	1	correct	0.777662780834362
184286	1	stim195_inanimate_tools_scissors_3.png	195	inanimate	tools	scissors	3	0	4	stars	1	correct	0.777662780834362
184486	1	stim121_inanimate_fruits_apple_1.png	121	inanimate	fruits	apple	1	0	4	stars	1	correct	0.777662780834362
184686	1	stim159_inanimate_furniture_table_3.png	159	inanimate	furniture	table	3	0	4	stars	1	correct	0.777662780834362
184886	1	stim042_animate_human_baby_2.png	42	animate	human	baby	2	0	4	stars	1	correct	0.777662780834362
185086	1	stim013_animate_aquatic_shark_1.png	13	animate	aquatic	shark	1	0	4	stars	1	correct	0.777662780834362
185286	1	stim029_animate_bird_parrot_1.png	29	animate	bird	parrot	1	0	4	stars	1	correct	0.777662780834362
185486	1	stim181_inanimate_tools_broom_1.png	181	inanimate	tools	broom	1	0	4	stars	1	correct	0.777662780834362
185686	1	stim060_animate_human_sports_4.png	60	animate	human	sports	4	0	4	stars	1	correct	0.777662780834362
185886	1	stim053_animate_human_faces_1.png	53	animate	human	faces	1	0	4	stars	1	correct	0.777662780834362
186086	1	stim146_inanimate_furniture_chair_2.png	146	inanimate	furniture	chair	2	0	4	stars	1	correct	0.777662780834362
186286	1	stim135_inanimate_fruits_pineapple_3.png	135	inanimate	fruits	pineapple	3	0	4	stars	1	correct	0.777662780834362
186486	1	stim175_inanimate_plants_tree_3.png	175	inanimate	plants	tree	3	0	4	stars	1	correct	0.777662780834362
186686	1	stim192_inanimate_tools_pan_4.png	192	inanimate	tools	pan	4	0	4	stars	1	correct	0.777662780834362
186886	1	stim104_inanimate_clothing_gloves_4.png	104	inanimate	clothing	gloves	4	0	4	stars	1	correct	0.777662780834362
187086	1	stim070_animate_insect_butterfly_2.png	70	animate	insect	butterfly	2	0	4	stars	1	correct	0.777662780834362
187286	1	stim012_animate_aquatic_seahorse_4.png	12	animate	aquatic	seahorse	4	0	4	stars	1	correct	0.777662780834362
187486	1	stim028_animate_bird_duck_4.png	28	animate	bird	duck	4	0	4	stars	1	correct	0.777662780834362
187686	1	stim187_inanimate_tools_hammer_3.png	187	inanimate	tools	hammer	3	0	4	stars	1	correct	0.777662780834362
187886	1	stim101_inanimate_clothing_gloves_1.png	101	inanimate	clothing	gloves	1	0	4	stars	1	correct	0.777662780834362
188086	1	stim050_animate_human_clown_2.png	50	animate	human	clown	2	0	4	stars	1	correct	0.777662780834362
188286	1	stim094_animate_mammal_monkey_2.png	94	animate	mammal	monkey	2	0	4	stars	1	correct	0.777662780834362
188486	1	stim051_animate_human_clown_3.png	51	animate	human	clown	3	0	4	stars	1	correct	0.777662780834362
188686	1	stim134_inanimate_fruits_pineapple_2.png	134	inanimate	fruits	pineapple	2	0	4	stars	1	correct	0.777662780834362
188886	1	stim046_animate_human_child_2.png	46	animate	human	child	2	0	4	stars	1	correct	0.777662780834362
189086	1	stim153_inanimate_furniture_sofa_1.png	153	inanimate	furniture	sofa	1	0	4	stars	1	correct	0.777662780834362
189286	1	stim133_inanimate_fruits_pineapple_1.png	133	inanimate	fruits	pineapple	1	0	4	stars	1	correct	0.777662780834362
189486	1	stim073_animate_insect_dragonfly_1.png	73	animate	insect	dragonfly	1	0	4	stars	1	correct	0.777662780834362
189686	1	stim065_animate_insect_bug_1.png	65	animate	insect	bug	1	0	4	stars	1	correct	0.777662780834362
189886	1	stim083_animate_mammal_cow_3.png	83	animate	mammal	cow	3	0	4	stars	1	correct	0.777662780834362
190086	1	stim143_inanimate_furniture_bed_3.png	143	inanimate	furniture	bed	3	0	4	stars	1	correct	0.777662780834362
190286	1	stim178_inanimate_plants_tulip_2.png	178	inanimate	plants	tulip	2	0	4	stars	1	correct	0.777662780834362
190486	1	stim189_inanimate_tools_pan_1.png	189	inanimate	tools	pan	1	0	4	stars	1	correct	0.777662780834362
190686	1	stim168_inanimate_plants_cactus_4.png	168	inanimate	plants	cactus	4	0	4	stars	1	correct	0.777662780834362
190886	1	stim128_inanimate_fruits_banana_4.png	128	inanimate	fruits	banana	4	0	4	stars	1	correct	0.777662780834362
191086	1	stim150_inanimate_furniture_closet_2.png	150	inanimate	furniture	closet	2	0	4	stars	1	correct	0.777662780834362
191286	1	stim036_animate_bird_peacock_4.png	36	animate	bird	peacock	4	0	4	stars	1	correct	0.777662780834362
191486	1	stim058_animate_human_sports_2.png	58	animate	human	sports	2	0	4	stars	1	correct	0.777662780834362
191686	1	stim198_inanimate_tools_wrench_2.png	198	inanimate	tools	wrench	2	0	4	stars	1	correct	0.777662780834362
191886	1	stim132_inanimate_fruits_grape_4.png	132	inanimate	fruits	grape	4	0	4	stars	1	correct	0.777662780834362
192086	1	stim180_inanimate_plants_tulip_4.png	180	inanimate	plants	tulip	4	0	4	stars	1	correct	0.777662780834362
192286	1	stim045_animate_human_child_1.png	45	animate	human	child	1	0	4	stars	1	correct	0.777662780834362
192486	1	stim214_targets_shapes_star_2.png	214	targets	shapes	star	2	1	4	stars	1	correct	0.777662780834362
192686	1	stim109_inanimate_clothing_jeans_1.png	109	inanimate	clothing	jeans	1	0	4	stars	1	correct	0.777662780834362
192886	1	stim179_inanimate_plants_tulip_3.png	179	inanimate	plants	tulip	3	0	4	stars	1	correct	0.777662780834362
193086	1	stim162_inanimate_plants_bush_2.png	162	inanimate	plants	bush	2	0	4	stars	1	correct	0.777662780834362
193286	1	stim068_animate_insect_bug_4.png	68	animate	insect	bug	4	0	4	stars	1	correct	0.777662780834362
193486	1	stim057_animate_human_sports_1.png	57	animate	human	sports	1	0	4	stars	1	correct	0.777662780834362
193686	1	stim049_animate_human_clown_1.png	49	animate	human	clown	1	0	4	stars	1	correct	0.777662780834362
193886	1	stim023_animate_bird_chicken_3.png	23	animate	bird	chicken	3	0	4	stars	1	correct	0.777662780834362
194086	1	stim084_animate_mammal_cow_4.png	84	animate	mammal	cow	4	0	4	stars	1	correct	0.777662780834362
194286	1	stim016_animate_aquatic_shark_4.png	16	animate	aquatic	shark	4	0	4	stars	1	correct	0.777662780834362
194486	1	stim176_inanimate_plants_tree_4.png	176	inanimate	plants	tree	4	0	4	stars	1	correct	0.777662780834362
194686	1	stim138_inanimate_fruits_strawberry_2.png	138	inanimate	fruits	strawberry	2	0	4	stars	1	correct	0.777662780834362
194886	1	stim021_animate_bird_chicken_1.png	21	animate	bird	chicken	1	0	4	stars	1	correct	0.777662780834362
195086	1	stim041_animate_human_baby_1.png	41	animate	human	baby	1	0	4	stars	1	correct	0.777662780834362
195286	1	stim171_inanimate_plants_sunflower_3.png	171	inanimate	plants	sunflower	3	0	4	stars	1	correct	0.777662780834362
195486	1	stim047_animate_human_child_3.png	47	animate	human	child	3	0	4	stars	1	correct	0.777662780834362
195686	1	stim169_inanimate_plants_sunflower_1.png	169	inanimate	plants	sunflower	1	0	4	stars	1	correct	0.777662780834362
195886	1	stim056_animate_human_faces_4.png	56	animate	human	faces	4	0	4	stars	1	correct	0.777662780834362
196086	1	stim017_animate_aquatic_shrimp_1.png	17	animate	aquatic	shrimp	1	0	4	stars	1	correct	0.777662780834362
196286	1	stim024_animate_bird_chicken_4.png	24	animate	bird	chicken	4	0	4	stars	1	correct	0.777662780834362
196486	1	stim155_inanimate_furniture_sofa_3.png	155	inanimate	furniture	sofa	3	0	4	stars	1	correct	0.777662780834362
196686	1	stim141_inanimate_furniture_bed_1.png	141	inanimate	furniture	bed	1	0	4	stars	1	correct	0.777662780834362
196886	1	stim035_animate_bird_peacock_3.png	35	animate	bird	peacock	3	0	4	stars	1	correct	0.777662780834362
197086	1	stim005_animate_aquatic_fish_1.png	5	animate	aquatic	fish	1	0	4	stars	1	correct	0.777662780834362
197286	1	stim040_animate_bird_penguin_4.png	40	animate	bird	penguin	4	0	4	stars	1	correct	0.777662780834362
197486	1	stim157_inanimate_furniture_table_1.png	157	inanimate	furniture	table	1	0	4	stars	1	correct	0.777662780834362
197686	1	stim108_inanimate_clothing_hat_4.png	108	inanimate	clothing	hat	4	0	4	stars	1	correct	0.777662780834362
197886	1	stim105_inanimate_clothing_hat_1.png	105	inanimate	clothing	hat	1	0	4	stars	1	correct	0.777662780834362
198086	1	stim145_inanimate_furniture_chair_1.png	145	inanimate	furniture	chair	1	0	4	stars	1	correct	0.777662780834362
198286	1	stim142_inanimate_furniture_bed_2.png	142	inanimate	furniture	bed	2	0	4	stars	1	correct	0.777662780834362
198486	1	stim074_animate_insect_dragonfly_2.png	74	animate	insect	dragonfly	2	0	4	stars	1	correct	0.777662780834362
198686	1	stim043_animate_human_baby_3.png	43	animate	human	baby	3	0	4	stars	1	correct	0.777662780834362
198886	1	stim130_inanimate_fruits_grape_2.png	130	inanimate	fruits	grape	2	0	4	stars	1	correct	0.777662780834362
199086	1	stim019_animate_aquatic_shrimp_3.png	19	animate	aquatic	shrimp	3	0	4	stars	1	correct	0.777662780834362
199286	1	stim091_animate_mammal_kangaroo_3.png	91	animate	mammal	kangaroo	3	0	4	stars	1	correct	0.777662780834362
199486	1	stim003_animate_aquatic_crab_3.png	3	animate	aquatic	crab	3	0	4	stars	1	correct	0.777662780834362
199686	1	stim124_inanimate_fruits_apple_4.png	124	inanimate	fruits	apple	4	0	4	stars	1	correct	0.777662780834362
199886	1	stim006_animate_aquatic_fish_2.png	6	animate	aquatic	fish	2	0	4	stars	1	correct	0.777662780834362
200086	1	stim183_inanimate_tools_broom_3.png	183	inanimate	tools	broom	3	0	4	stars	1	correct	0.777662780834362
200286	1	stim136_inanimate_fruits_pineapple_4.png	136	inanimate	fruits	pineapple	4	0	4	stars	1	correct	0.777662780834362
200486	1	stim095_animate_mammal_monkey_3.png	95	animate	mammal	monkey	3	0	4	stars	1	correct	0.777662780834362
200686	1	stim172_inanimate_plants_sunflower_4.png	172	inanimate	plants	sunflower	4	0	4	stars	1	correct	0.777662780834362
200886	1	stim184_inanimate_tools_broom_4.png	184	inanimate	tools	broom	4	0	4	stars	1	correct	0.777662780834362
201086	1	stim106_inanimate_clothing_hat_2.png	106	inanimate	clothing	hat	2	0	4	stars	1	correct	0.777662780834362
201286	1	stim158_inanimate_furniture_table_2.png	158	inanimate	furniture	table	2	0	4	stars	1	correct	0.777662780834362
201486	1	stim018_animate_aquatic_shrimp_2.png	18	animate	aquatic	shrimp	2	0	4	stars	1	correct	0.777662780834362
201686	1	stim190_inanimate_tools_pan_2.png	190	inanimate	tools	pan	2	0	4	stars	1	correct	0.777662780834362
201886	1	stim140_inanimate_fruits_strawberry_4.png	140	inanimate	fruits	strawberry	4	0	4	stars	1	correct	0.777662780834362
202086	1	stim156_inanimate_furniture_sofa_4.png	156	inanimate	furniture	sofa	4	0	4	stars	1	correct	0.777662780834362
202286	1	stim185_inanimate_tools_hammer_1.png	185	inanimate	tools	hammer	1	0	4	stars	1	correct	0.777662780834362
202486	1	stim196_inanimate_tools_scissors_4.png	196	inanimate	tools	scissors	4	0	4	stars	1	correct	0.777662780834362
202686	1	stim069_animate_insect_butterfly_1.png	69	animate	insect	butterfly	1	0	4	stars	1	correct	0.777662780834362
202886	1	stim027_animate_bird_duck_3.png	27	animate	bird	duck	3	0	4	stars	1	correct	0.777662780834362
203086	1	stim098_animate_mammal_rhino_2.png	98	animate	mammal	rhino	2	0	4	stars	1	correct	0.777662780834362
203286	1	stim110_inanimate_clothing_jeans_2.png	110	inanimate	clothing	jeans	2	0	4	stars	1	correct	0.777662780834362
203486	1	stim022_animate_bird_chicken_2.png	22	animate	bird	chicken	2	0	4	stars	1	correct	0.777662780834362
203686	1	stim085_animate_mammal_giraffe_1.png	85	animate	mammal	giraffe	1	0	4	stars	1	correct	0.777662780834362
203886	1	stim103_inanimate_clothing_gloves_3.png	103	inanimate	clothing	gloves	3	0	4	stars	1	correct	0.777662780834362
204086	1	stim151_inanimate_furniture_closet_3.png	151	inanimate	furniture	closet	3	0	4	stars	1	correct	0.777662780834362
204286	1	stim199_inanimate_tools_wrench_3.png	199	inanimate	tools	wrench	3	0	4	stars	1	correct	0.777662780834362
204486	1	stim160_inanimate_furniture_table_4.png	160	inanimate	furniture	table	4	0	4	stars	1	correct	0.777662780834362
204686	1	stim038_animate_bird_penguin_2.png	38	animate	bird	penguin	2	0	4	stars	1	correct	0.777662780834362
204886	1	stim174_inanimate_plants_tree_2.png	174	inanimate	plants	tree	2	0	4	stars	1	correct	0.777662780834362
205086	1	stim020_animate_aquatic_shrimp_4.png	20	animate	aquatic	shrimp	4	0	4	stars	1	correct	0.777662780834362
205286	1	stim200_inanimate_tools_wrench_4.png	200	inanimate	tools	wrench	4	0	4	stars	1	correct	0.777662780834362
205486	1	stim116_inanimate_clothing_shirt_4.png	116	inanimate	clothing	shirt	4	0	4	stars	1	correct	0.777662780834362
205686	1	stim002_animate_aquatic_crab_2.png	2	animate	aquatic	crab	2	0	4	stars	1	correct	0.777662780834362
205886	1	stim111_inanimate_clothing_jeans_3.png	111	inanimate	clothing	jeans	3	0	4	stars	1	correct	0.777662780834362
206086	1	stim152_inanimate_furniture_closet_4.png	152	inanimate	furniture	closet	4	0	4	stars	1	correct	0.777662780834362
206286	1	stim127_inanimate_fruits_banana_3.png	127	inanimate	fruits	banana	3	0	4	stars	1	correct	0.777662780834362
206486	1	stim033_animate_bird_peacock_1.png	33	animate	bird	peacock	1	0	4	stars	1	correct	0.777662780834362
206686	1	stim044_animate_human_baby_4.png	44	animate	human	baby	4	0	4	stars	1	correct	0.777662780834362
206886	1	stim076_animate_insect_dragonfly_4.png	76	animate	insect	dragonfly	4	0	4	stars	1	correct	0.777662780834362
207086	1	stim126_inanimate_fruits_banana_2.png	126	inanimate	fruits	banana	2	0	4	stars	1	correct	0.777662780834362
207286	1	stim071_animate_insect_butterfly_3.png	71	animate	insect	butterfly	3	0	4	stars	1	correct	0.777662780834362
207486	1	stim086_animate_mammal_giraffe_2.png	86	animate	mammal	giraffe	2	0	4	stars	1	correct	0.777662780834362
207686	1	stim112_inanimate_clothing_jeans_4.png	112	inanimate	clothing	jeans	4	0	4	stars	1	correct	0.777662780834362
207886	1	stim090_animate_mammal_kangaroo_2.png	90	animate	mammal	kangaroo	2	0	4	stars	1	correct	0.777662780834362
208086	1	stim061_animate_insect_ant_1.png	61	animate	insect	ant	1	0	4	stars	1	correct	0.777662780834362
208286	1	stim099_animate_mammal_rhino_3.png	99	animate	mammal	rhino	3	0	4	stars	1	correct	0.777662780834362
208486	1	stim039_animate_bird_penguin_3.png	39	animate	bird	penguin	3	0	4	stars	1	correct	0.777662780834362
208687	1	stim030_animate_bird_parrot_2.png	30	animate	bird	parrot	2	0	4	stars	1	correct	0.777662780834362
208886	1	stim186_inanimate_tools_hammer_2.png	186	inanimate	tools	hammer	2	0	4	stars	1	correct	0.777662780834362
209087	1	stim191_inanimate_tools_pan_3.png	191	inanimate	tools	pan	3	0	4	stars	1	correct	0.777662780834362
209287	1	stim063_animate_insect_ant_3.png	63	animate	insect	ant	3	0	4	stars	1	correct	0.777662780834362
209487	1	stim125_inanimate_fruits_banana_1.png	125	inanimate	fruits	banana	1	0	4	stars	1	correct	0.777662780834362
209687	1	stim011_animate_aquatic_seahorse_3.png	11	animate	aquatic	seahorse	3	0	4	stars	1	correct	0.777662780834362
209887	1	stim048_animate_human_child_4.png	48	animate	human	child	4	0	4	stars	1	correct	0.777662780834362
210087	1	stim079_animate_insect_grasshopper_3.png	79	animate	insect	grasshopper	3	0	4	stars	1	correct	0.777662780834362
210287	1	stim014_animate_aquatic_shark_2.png	14	animate	aquatic	shark	2	0	4	stars	1	correct	0.777662780834362
210487	1	stim066_animate_insect_bug_2.png	66	animate	insect	bug	2	0	4	stars	1	correct	0.777662780834362
210687	1	stim123_inanimate_fruits_apple_3.png	123	inanimate	fruits	apple	3	0	4	stars	1	correct	0.777662780834362
210887	1	stim067_animate_insect_bug_3.png	67	animate	insect	bug	3	0	4	stars	1	correct	0.777662780834362
223770	1	stim007_animate_aquatic_fish_3.png	7	animate	aquatic	fish	3	0	5	stars	2	correct	0.642041390121449
223970	1	stim144_inanimate_furniture_bed_4.png	144	inanimate	furniture	bed	4	0	5	stars	2	correct	0.642041390121449
224170	1	stim058_animate_human_sports_2.png	58	animate	human	sports	2	0	5	stars	2	correct	0.642041390121449
224370	1	stim178_inanimate_plants_tulip_2.png	178	inanimate	plants	tulip	2	0	5	stars	2	correct	0.642041390121449
224570	1	stim022_animate_bird_chicken_2.png	22	animate	bird	chicken	2	0	5	stars	2	correct	0.642041390121449
224770	1	stim062_animate_insect_ant_2.png	62	animate	insect	ant	2	0	5	stars	2	correct	0.642041390121449
224970	1	stim073_animate_insect_dragonfly_1.png	73	animate	insect	dragonfly	1	0	5	stars	2	correct	0.642041390121449
225170	1	stim095_animate_mammal_monkey_3.png	95	animate	mammal	monkey	3	0	5	stars	2	correct	0.642041390121449
225370	1	stim046_animate_human_child_2.png	46	animate	human	child	2	0	5	stars	2	correct	0.642041390121449
225570	1	stim047_animate_human_child_3.png	47	animate	human	child	3	0	5	stars	2	correct	0.642041390121449
225770	1	stim162_inanimate_plants_bush_2.png	162	inanimate	plants	bush	2	0	5	stars	2	correct	0.642041390121449
225970	1	stim042_animate_human_baby_2.png	42	animate	human	baby	2	0	5	stars	2	correct	0.642041390121449
226170	1	stim010_animate_aquatic_seahorse_2.png	10	animate	aquatic	seahorse	2	0	5	stars	2	correct	0.642041390121449
226370	1	stim131_inanimate_fruits_grape_3.png	131	inanimate	fruits	grape	3	0	5	stars	2	correct	0.642041390121449
226570	1	stim189_inanimate_tools_pan_1.png	189	inanimate	tools	pan	1	0	5	stars	2	correct	0.642041390121449
226770	1	stim093_animate_mammal_monkey_1.png	93	animate	mammal	monkey	1	0	5	stars	2	correct	0.642041390121449
226970	1	stim181_inanimate_tools_broom_1.png	181	inanimate	tools	broom	1	0	5	stars	2	correct	0.642041390121449
227170	1	stim012_animate_aquatic_seahorse_4.png	12	animate	aquatic	seahorse	4	0	5	stars	2	correct	0.642041390121449
227370	1	stim196_inanimate_tools_scissors_4.png	196	inanimate	tools	scissors	4	0	5	stars	2	correct	0.642041390121449
227570	1	stim034_animate_bird_peacock_2.png	34	animate	bird	peacock	2	0	5	stars	2	correct	0.642041390121449
227770	1	stim107_inanimate_clothing_hat_3.png	107	inanimate	clothing	hat	3	0	5	stars	2	correct	0.642041390121449
227970	1	stim053_animate_human_faces_1.png	53	animate	human	faces	1	0	5	stars	2	correct	0.642041390121449
228170	1	stim105_inanimate_clothing_hat_1.png	105	inanimate	clothing	hat	1	0	5	stars	2	correct	0.642041390121449
228370	1	stim143_inanimate_furniture_bed_3.png	143	inanimate	furniture	bed	3	0	5	stars	2	correct	0.642041390121449
228570	1	stim065_animate_insect_bug_1.png	65	animate	insect	bug	1	0	5	stars	2	correct	0.642041390121449
228770	1	stim060_animate_human_sports_4.png	60	animate	human	sports	4	0	5	stars	2	correct	0.642041390121449
228970	1	stim002_animate_aquatic_crab_2.png	2	animate	aquatic	crab	2	0	5	stars	2	correct	0.642041390121449
229170	1	stim056_animate_human_faces_4.png	56	animate	human	faces	4	0	5	stars	2	correct	0.642041390121449
229370	1	stim006_animate_aquatic_fish_2.png	6	animate	aquatic	fish	2	0	5	stars	2	correct	0.642041390121449
229570	1	stim160_inanimate_furniture_table_4.png	160	inanimate	furniture	table	4	0	5	stars	2	correct	0.642041390121449
229770	1	stim161_inanimate_plants_bush_1.png	161	inanimate	plants	bush	1	0	5	stars	2	correct	0.642041390121449
229970	1	stim157_inanimate_furniture_table_1.png	157	inanimate	furniture	table	1	0	5	stars	2	correct	0.642041390121449
230170	1	stim142_inanimate_furniture_bed_2.png	142	inanimate	furniture	bed	2	0	5	stars	2	correct	0.642041390121449
230370	1	stim055_animate_human_faces_3.png	55	animate	human	faces	3	0	5	stars	2	correct	0.642041390121449
230570	1	stim075_animate_insect_dragonfly_3.png	75	animate	insect	dragonfly	3	0	5	stars	2	correct	0.642041390121449
230770	1	stim077_animate_insect_grasshopper_1.png	77	animate	insect	grasshopper	1	0	5	stars	2	correct	0.642041390121449
230970	1	stim102_inanimate_clothing_gloves_2.png	102	inanimate	clothing	gloves	2	0	5	stars	2	correct	0.642041390121449
231170	1	stim108_inanimate_clothing_hat_4.png	108	inanimate	clothing	hat	4	0	5	stars	2	correct	0.642041390121449
231370	1	stim096_animate_mammal_monkey_4.png	96	animate	mammal	monkey	4	0	5	stars	2	correct	0.642041390121449
231570	1	stim117_inanimate_clothing_socks_1.png	117	inanimate	clothing	socks	1	0	5	stars	2	correct	0.642041390121449
231770	1	stim072_animate_insect_butterfly_4.png	72	animate	insect	butterfly	4	0	5	stars	2	correct	0.642041390121449
231970	1	stim129_inanimate_fruits_grape_1.png	129	inanimate	fruits	grape	1	0	5	stars	2	correct	0.642041390121449
232170	1	stim149_inanimate_furniture_closet_1.png	149	inanimate	furniture	closet	1	0	5	stars	2	correct	0.642041390121449
232370	1	stim032_animate_bird_parrot_4.png	32	animate	bird	parrot	4	0	5	stars	2	correct	0.642041390121449
232570	1	stim183_inanimate_tools_broom_3.png	183	inanimate	tools	broom	3	0	5	stars	2	correct	0.642041390121449
232770	1	stim033_animate_bird_peacock_1.png	33	animate	bird	peacock	1	0	5	stars	2	correct	0.642041390121449
232970	1	stim193_inanimate_tools_scissors_1.png	193	inanimate	tools	scissors	1	0	5	stars	2	correct	0.642041390121449
233170	1	stim137_inanimate_fruits_strawberry_1.png	137	inanimate	fruits	strawberry	1	0	5	stars	2	correct	0.642041390121449
233370	1	stim025_animate_bird_duck_1.png	25	animate	bird	duck	1	0	5	stars	2	correct	0.642041390121449
233570	1	stim004_animate_aquatic_crab_4.png	4	animate	aquatic	crab	4	0	5	stars	2	correct	0.642041390121449
233770	1	stim173_inanimate_plants_tree_1.png	173	inanimate	plants	tree	1	0	5	stars	2	correct	0.642041390121449
233970	1	stim155_inanimate_furniture_sofa_3.png	155	inanimate	furniture	sofa	3	0	5	stars	2	correct	0.642041390121449
234170	1	stim094_animate_mammal_monkey_2.png	94	animate	mammal	monkey	2	0	5	stars	2	correct	0.642041390121449
234370	1	stim078_animate_insect_grasshopper_2.png	78	animate	insect	grasshopper	2	0	5	stars	2	correct	0.642041390121449
234570	1	stim190_inanimate_tools_pan_2.png	190	inanimate	tools	pan	2	0	5	stars	2	correct	0.642041390121449
234770	1	stim009_animate_aquatic_seahorse_1.png	9	animate	aquatic	seahorse	1	0	5	stars	2	correct	0.642041390121449
234970	1	stim121_inanimate_fruits_apple_1.png	121	inanimate	fruits	apple	1	0	5	stars	2	correct	0.642041390121449
235170	1	stim017_animate_aquatic_shrimp_1.png	17	animate	aquatic	shrimp	1	0	5	stars	2	correct	0.642041390121449
235370	1	stim194_inanimate_tools_scissors_2.png	194	inanimate	tools	scissors	2	0	5	stars	2	correct	0.642041390121449
235570	1	stim138_inanimate_fruits_strawberry_2.png	138	inanimate	fruits	strawberry	2	0	5	stars	2	correct	0.642041390121449
235770	1	stim104_inanimate_clothing_gloves_4.png	104	inanimate	clothing	gloves	4	0	5	stars	2	correct	0.642041390121449
235970	1	stim070_animate_insect_butterfly_2.png	70	animate	insect	butterfly	2	0	5	stars	2	correct	0.642041390121449
236170	1	stim150_inanimate_furniture_closet_2.png	150	inanimate	furniture	closet	2	0	5	stars	2	correct	0.642041390121449
236370	1	stim057_animate_human_sports_1.png	57	animate	human	sports	1	0	5	stars	2	correct	0.642041390121449
236570	1	stim099_animate_mammal_rhino_3.png	99	animate	mammal	rhino	3	0	5	stars	2	correct	0.642041390121449
236770	1	stim064_animate_insect_ant_4.png	64	animate	insect	ant	4	0	5	stars	2	correct	0.642041390121449
236970	1	stim133_inanimate_fruits_pineapple_1.png	133	inanimate	fruits	pineapple	1	0	5	stars	2	correct	0.642041390121449
237170	1	stim067_animate_insect_bug_3.png	67	animate	insect	bug	3	0	5	stars	2	correct	0.642041390121449
237370	1	stim085_animate_mammal_giraffe_1.png	85	animate	mammal	giraffe	1	0	5	stars	2	correct	0.642041390121449
237570	1	stim140_inanimate_fruits_strawberry_4.png	140	inanimate	fruits	strawberry	4	0	5	stars	2	correct	0.642041390121449
237770	1	stim021_animate_bird_chicken_1.png	21	animate	bird	chicken	1	0	5	stars	2	correct	0.642041390121449
237970	1	stim175_inanimate_plants_tree_3.png	175	inanimate	plants	tree	3	0	5	stars	2	correct	0.642041390121449
238170	1	stim156_inanimate_furniture_sofa_4.png	156	inanimate	furniture	sofa	4	0	5	stars	2	correct	0.642041390121449
238371	1	stim083_animate_mammal_cow_3.png	83	animate	mammal	cow	3	0	5	stars	2	correct	0.642041390121449
238571	1	stim106_inanimate_clothing_hat_2.png	106	inanimate	clothing	hat	2	0	5	stars	2	correct	0.642041390121449
238771	1	stim016_animate_aquatic_shark_4.png	16	animate	aquatic	shark	4	0	5	stars	2	correct	0.642041390121449
238971	1	stim116_inanimate_clothing_shirt_4.png	116	inanimate	clothing	shirt	4	0	5	stars	2	correct	0.642041390121449
239171	1	stim039_animate_bird_penguin_3.png	39	animate	bird	penguin	3	0	5	stars	2	correct	0.642041390121449
239370	1	stim146_inanimate_furniture_chair_2.png	146	inanimate	furniture	chair	2	0	5	stars	2	correct	0.642041390121449
239571	1	stim082_animate_mammal_cow_2.png	82	animate	mammal	cow	2	0	5	stars	2	correct	0.642041390121449
