onset	duration	stimulusname	stimulusnumber	levelA	levelB	levelC	withinexemplarnumber	istarget	trialnumber	condition	response	correct	rt
34735	1	stim198_inanimate_tools_wrench_2.png	198	inanimate	tools	wrench	2	0	1	boats	2	correct	1.02225959015777
34785	1	stim137_inanimate_fruits_strawberry_1.png	137	inanimate	fruits	strawberry	1	0	1	boats	2	correct	1.02225959015777
34835	1	stim092_animate_mammal_kangaroo_4.png	92	animate	mammal	kangaroo	4	0	1	boats	2	correct	1.02225959015777
34885	1	stim027_animate_bird_duck_3.png	27	animate	bird	duck	3	0	1	boats	2	correct	1.02225959015777
34935	1	stim174_inanimate_plants_tree_2.png	174	inanimate	plants	tree	2	0	1	boats	2	correct	1.02225959015777
34985	1	stim189_inanimate_tools_pan_1.png	189	inanimate	tools	pan	1	0	1	boats	2	correct	1.02225959015777
35035	1	stim150_inanimate_furniture_closet_2.png	150	inanimate	furniture	closet	2	0	1	boats	2	correct	1.02225959015777
35085	1	stim073_animate_insect_dragonfly_1.png	73	animate	insect	dragonfly	1	0	1	boats	2	correct	1.02225959015777
35135	1	stim149_inanimate_furniture_closet_1.png	149	inanimate	furniture	closet	1	0	1	boats	2	correct	1.02225959015777
35185	1	stim182_inanimate_tools_broom_2.png	182	inanimate	tools	broom	2	0	1	boats	2	correct	1.02225959015777
35235	1	stim099_animate_mammal_rhino_3.png	99	animate	mammal	rhino	3	0	1	boats	2	correct	1.02225959015777
35285	1	stim033_animate_bird_peacock_1.png	33	animate	bird	peacock	1	0	1	boats	2	correct	1.02225959015777
35335	1	stim103_inanimate_clothing_gloves_3.png	103	inanimate	clothing	gloves	3	0	1	boats	2	correct	1.02225959015777
35385	1	stim070_animate_insect_butterfly_2.png	70	animate	insect	butterfly	2	0	1	boats	2	correct	1.02225959015777
35435	1	stim037_animate_bird_penguin_1.png	37	animate	bird	penguin	1	0	1	boats	2	correct	1.02225959015777
35485	1	stim024_animate_bird_chicken_4.png	24	animate	bird	chicken	4	0	1	boats	2	correct	1.02225959015777
35535	1	stim196_inanimate_tools_scissors_4.png	196	inanimate	tools	scissors	4	0	1	boats	2	correct	1.02225959015777
35585	1	stim143_inanimate_furniture_bed_3.png	143	inanimate	furniture	bed	3	0	1	boats	2	correct	1.02225959015777
35635	1	stim125_inanimate_fruits_banana_1.png	125	inanimate	fruits	banana	1	0	1	boats	2	correct	1.02225959015777
35685	1	stim145_inanimate_furniture_chair_1.png	145	inanimate	furniture	chair	1	0	1	boats	2	correct	1.02225959015777
35735	1	stim114_inanimate_clothing_shirt_2.png	114	inanimate	clothing	shirt	2	0	1	boats	2	correct	1.02225959015777
35785	1	stim194_inanimate_tools_scissors_2.png	194	inanimate	tools	scissors	2	0	1	boats	2	correct	1.02225959015777
35835	1	stim021_animate_bird_chicken_1.png	21	animate	bird	chicken	1	0	1	boats	2	correct	1.02225959015777
35885	1	stim041_animate_human_baby_1.png	41	animate	human	baby	1	0	1	boats	2	correct	1.02225959015777
35935	1	stim069_animate_insect_butterfly_1.png	69	animate	insect	butterfly	1	0	1	boats	2	correct	1.02225959015777
35985	1	stim097_animate_mammal_rhino_1.png	97	animate	mammal	rhino	1	0	1	boats	2	correct	1.02225959015777
36035	1	stim161_inanimate_plants_bush_1.png	161	inanimate	plants	bush	1	0	1	boats	2	correct	1.02225959015777
36085	1	stim199_inanimate_tools_wrench_3.png	199	inanimate	tools	wrench	3	0	1	boats	2	correct	1.02225959015777
36135	1	stim172_inanimate_plants_sunflower_4.png	172	inanimate	plants	sunflower	4	0	1	boats	2	correct	1.02225959015777
36185	1	stim071_animate_insect_butterfly_3.png	71	animate	insect	butterfly	3	0	1	boats	2	correct	1.02225959015777
36235	1	stim106_inanimate_clothing_hat_2.png	106	inanimate	clothing	hat	2	0	1	boats	2	correct	1.02225959015777
36285	1	stim005_animate_aquatic_fish_1.png	5	animate	aquatic	fish	1	0	1	boats	2	correct	1.02225959015777
36335	1	stim165_inanimate_plants_cactus_1.png	165	inanimate	plants	cactus	1	0	1	boats	2	correct	1.02225959015777
36385	1	stim052_animate_human_clown_4.png	52	animate	human	clown	4	0	1	boats	2	correct	1.02225959015777
36435	1	stim085_animate_mammal_giraffe_1.png	85	animate	mammal	giraffe	1	0	1	boats	2	correct	1.02225959015777
36485	1	stim146_inanimate_furniture_chair_2.png	146	inanimate	furniture	chair	2	0	1	boats	2	correct	1.02225959015777
36535	1	stim130_inanimate_fruits_grape_2.png	130	inanimate	fruits	grape	2	0	1	boats	2	correct	1.02225959015777
36585	1	stim151_inanimate_furniture_closet_3.png	151	inanimate	furniture	closet	3	0	1	boats	2	correct	1.02225959015777
36635	1	stim175_inanimate_plants_tree_3.png	175	inanimate	plants	tree	3	0	1	boats	2	correct	1.02225959015777
36685	1	stim122_inanimate_fruits_apple_2.png	122	inanimate	fruits	apple	2	0	1	boats	2	correct	1.02225959015777
36735	1	stim119_inanimate_clothing_socks_3.png	119	inanimate	clothing	socks	3	0	1	boats	2	correct	1.02225959015777
36785	1	stim164_inanimate_plants_bush_4.png	164	inanimate	plants	bush	4	0	1	boats	2	correct	1.02225959015777
36835	1	stim067_animate_insect_bug_3.png	67	animate	insect	bug	3	0	1	boats	2	correct	1.02225959015777
36885	1	stim126_inanimate_fruits_banana_2.png	126	inanimate	fruits	banana	2	0	1	boats	2	correct	1.02225959015777
36935	1	stim184_inanimate_tools_broom_4.png	184	inanimate	tools	broom	4	0	1	boats	2	correct	1.02225959015777
36985	1	stim022_animate_bird_chicken_2.png	22	animate	bird	chicken	2	0	1	boats	2	correct	1.02225959015777
37035	1	stim016_animate_aquatic_shark_4.png	16	animate	aquatic	shark	4	0	1	boats	2	correct	1.02225959015777
37085	1	stim096_animate_mammal_monkey_4.png	96	animate	mammal	monkey	4	0	1	boats	2	correct	1.02225959015777
37135	1	stim152_inanimate_furniture_closet_4.png	152	inanimate	furniture	closet	4	0	1	boats	2	correct	1.02225959015777
37185	1	stim129_inanimate_fruits_grape_1.png	129	inanimate	fruits	grape	1	0	1	boats	2	correct	1.02225959015777
37235	1	stim144_inanimate_furniture_bed_4.png	144	inanimate	furniture	bed	4	0	1	boats	2	correct	1.02225959015777
37285	1	stim169_inanimate_plants_sunflower_1.png	169	inanimate	plants	sunflower	1	0	1	boats	2	correct	1.02225959015777
37335	1	stim065_animate_insect_bug_1.png	65	animate	insect	bug	1	0	1	boats	2	correct	1.02225959015777
37385	1	stim075_animate_insect_dragonfly_3.png	75	animate	insect	dragonfly	3	0	1	boats	2	correct	1.02225959015777
37435	1	stim191_inanimate_tools_pan_3.png	191	inanimate	tools	pan	3	0	1	boats	2	correct	1.02225959015777
37485	1	stim181_inanimate_tools_broom_1.png	181	inanimate	tools	broom	1	0	1	boats	2	correct	1.02225959015777
37535	1	stim170_inanimate_plants_sunflower_2.png	170	inanimate	plants	sunflower	2	0	1	boats	2	correct	1.02225959015777
37585	1	stim185_inanimate_tools_hammer_1.png	185	inanimate	tools	hammer	1	0	1	boats	2	correct	1.02225959015777
37635	1	stim190_inanimate_tools_pan_2.png	190	inanimate	tools	pan	2	0	1	boats	2	correct	1.02225959015777
37685	1	stim072_animate_insect_butterfly_4.png	72	animate	insect	butterfly	4	0	1	boats	2	correct	1.02225959015777
37735	1	stim112_inanimate_clothing_jeans_4.png	112	inanimate	clothing	jeans	4	0	1	boats	2	correct	1.02225959015777
37785	1	stim118_inanimate_clothing_socks_2.png	118	inanimate	clothing	socks	2	0	1	boats	2	correct	1.02225959015777
37835	1	stim026_animate_bird_duck_2.png	26	animate	bird	duck	2	0	1	boats	2	correct	1.02225959015777
37885	1	stim053_animate_human_faces_1.png	53	animate	human	faces	1	0	1	boats	2	correct	1.02225959015777
37935	1	stim031_animate_bird_parrot_3.png	31	animate	bird	parrot	3	0	1	boats	2	correct	1.02225959015777
37985	1	stim020_animate_aquatic_shrimp_4.png	20	animate	aquatic	shrimp	4	0	1	boats	2	correct	1.02225959015777
38035	1	stim163_inanimate_plants_bush_3.png	163	inanimate	plants	bush	3	0	1	boats	2	correct	1.02225959015777
38085	1	stim131_inanimate_fruits_grape_3.png	131	inanimate	fruits	grape	3	0	1	boats	2	correct	1.02225959015777
38135	1	stim158_inanimate_furniture_table_2.png	158	inanimate	furniture	table	2	0	1	boats	2	correct	1.02225959015777
38185	1	stim078_animate_insect_grasshopper_2.png	78	animate	insect	grasshopper	2	0	1	boats	2	correct	1.02225959015777
38235	1	stim135_inanimate_fruits_pineapple_3.png	135	inanimate	fruits	pineapple	3	0	1	boats	2	correct	1.02225959015777
38285	1	stim081_animate_mammal_cow_1.png	81	animate	mammal	cow	1	0	1	boats	2	correct	1.02225959015777
38335	1	stim010_animate_aquatic_seahorse_2.png	10	animate	aquatic	seahorse	2	0	1	boats	2	correct	1.02225959015777
38385	1	stim208_targets_object_boats_4.png	208	targets	object	boats	4	1	1	boats	2	correct	1.02225959015777
38435	1	stim139_inanimate_fruits_strawberry_3.png	139	inanimate	fruits	strawberry	3	0	1	boats	2	correct	1.02225959015777
38485	1	stim040_animate_bird_penguin_4.png	40	animate	bird	penguin	4	0	1	boats	2	correct	1.02225959015777
38535	1	stim009_animate_aquatic_seahorse_1.png	9	animate	aquatic	seahorse	1	0	1	boats	2	correct	1.02225959015777
38585	1	stim091_animate_mammal_kangaroo_3.png	91	animate	mammal	kangaroo	3	0	1	boats	2	correct	1.02225959015777
38635	1	stim094_animate_mammal_monkey_2.png	94	animate	mammal	monkey	2	0	1	boats	2	correct	1.02225959015777
38685	1	stim162_inanimate_plants_bush_2.png	162	inanimate	plants	bush	2	0	1	boats	2	correct	1.02225959015777
38735	1	stim179_inanimate_plants_tulip_3.png	179	inanimate	plants	tulip	3	0	1	boats	2	correct	1.02225959015777
38785	1	stim200_inanimate_tools_wrench_4.png	200	inanimate	tools	wrench	4	0	1	boats	2	correct	1.02225959015777
38835	1	stim023_animate_bird_chicken_3.png	23	animate	bird	chicken	3	0	1	boats	2	correct	1.02225959015777
38885	1	stim029_animate_bird_parrot_1.png	29	animate	bird	parrot	1	0	1	boats	2	correct	1.02225959015777
38935	1	stim089_animate_mammal_kangaroo_1.png	89	animate	mammal	kangaroo	1	0	1	boats	2	correct	1.02225959015777
38985	1	stim187_inanimate_tools_hammer_3.png	187	inanimate	tools	hammer	3	0	1	boats	2	correct	1.02225959015777
39035	1	stim088_animate_mammal_giraffe_4.png	88	animate	mammal	giraffe	4	0	1	boats	2	correct	1.02225959015777
39085	1	stim171_inanimate_plants_sunflower_3.png	171	inanimate	plants	sunflower	3	0	1	boats	2	correct	1.02225959015777
39135	1	stim068_animate_insect_bug_4.png	68	animate	insect	bug	4	0	1	boats	2	correct	1.02225959015777
39185	1	stim142_inanimate_furniture_bed_2.png	142	inanimate	furniture	bed	2	0	1	boats	2	correct	1.02225959015777
39235	1	stim006_animate_aquatic_fish_2.png	6	animate	aquatic	fish	2	0	1	boats	2	correct	1.02225959015777
39285	1	stim060_animate_human_sports_4.png	60	animate	human	sports	4	0	1	boats	2	correct	1.02225959015777
39335	1	stim080_animate_insect_grasshopper_4.png	80	animate	insect	grasshopper	4	0	1	boats	2	correct	1.02225959015777
39385	1	stim147_inanimate_furniture_chair_3.png	147	inanimate	furniture	chair	3	0	1	boats	2	correct	1.02225959015777
39435	1	stim032_animate_bird_parrot_4.png	32	animate	bird	parrot	4	0	1	boats	2	correct	1.02225959015777
39485	1	stim025_animate_bird_duck_1.png	25	animate	bird	duck	1	0	1	boats	2	correct	1.02225959015777
39535	1	stim038_animate_bird_penguin_2.png	38	animate	bird	penguin	2	0	1	boats	2	correct	1.02225959015777
39585	1	stim030_animate_bird_parrot_2.png	30	animate	bird	parrot	2	0	1	boats	2	correct	1.02225959015777
39635	1	stim083_animate_mammal_cow_3.png	83	animate	mammal	cow	3	0	1	boats	2	correct	1.02225959015777
39685	1	stim049_animate_human_clown_1.png	49	animate	human	clown	1	0	1	boats	2	correct	1.02225959015777
39735	1	stim148_inanimate_furniture_chair_4.png	148	inanimate	furniture	chair	4	0	1	boats	2	correct	1.02225959015777
39785	1	stim141_inanimate_furniture_bed_1.png	141	inanimate	furniture	bed	1	0	1	boats	2	correct	1.02225959015777
39835	1	stim039_animate_bird_penguin_3.png	39	animate	bird	penguin	3	0	1	boats	2	correct	1.02225959015777
39885	1	stim154_inanimate_furniture_sofa_2.png	154	inanimate	furniture	sofa	2	0	1	boats	2	correct	1.02225959015777
39935	1	stim086_animate_mammal_giraffe_2.png	86	animate	mammal	giraffe	2	0	1	boats	2	correct	1.02225959015777
39985	1	stim102_inanimate_clothing_gloves_2.png	102	inanimate	clothing	gloves	2	0	1	boats	2	correct	1.02225959015777
40035	1	stim105_inanimate_clothing_hat_1.png	105	inanimate	clothing	hat	1	0	1	boats	2	correct	1.02225959015777
40085	1	stim018_animate_aquatic_shrimp_2.png	18	animate	aquatic	shrimp	2	0	1	boats	2	correct	1.02225959015777
40135	1	stim064_animate_insect_ant_4.png	64	animate	insect	ant	4	0	1	boats	2	correct	1.02225959015777
40185	1	stim011_animate_aquatic_seahorse_3.png	11	animate	aquatic	seahorse	3	0	1	boats	2	correct	1.02225959015777
40235	1	stim197_inanimate_tools_wrench_1.png	197	inanimate	tools	wrench	1	0	1	boats	2	correct	1.02225959015777
40285	1	stim107_inanimate_clothing_hat_3.png	107	inanimate	clothing	hat	3	0	1	boats	2	correct	1.02225959015777
40335	1	stim155_inanimate_furniture_sofa_3.png	155	inanimate	furniture	sofa	3	0	1	boats	2	correct	1.02225959015777
40385	1	stim127_inanimate_fruits_banana_3.png	127	inanimate	fruits	banana	3	0	1	boats	2	correct	1.02225959015777
40435	1	stim066_animate_insect_bug_2.png	66	animate	insect	bug	2	0	1	boats	2	correct	1.02225959015777
40485	1	stim046_animate_human_child_2.png	46	animate	human	child	2	0	1	boats	2	correct	1.02225959015777
40535	1	stim166_inanimate_plants_cactus_2.png	166	inanimate	plants	cactus	2	0	1	boats	2	correct	1.02225959015777
40585	1	stim109_inanimate_clothing_jeans_1.png	109	inanimate	clothing	jeans	1	0	1	boats	2	correct	1.02225959015777
40635	1	stim012_animate_aquatic_seahorse_4.png	12	animate	aquatic	seahorse	4	0	1	boats	2	correct	1.02225959015777
40685	1	stim003_animate_aquatic_crab_3.png	3	animate	aquatic	crab	3	0	1	boats	2	correct	1.02225959015777
40735	1	stim188_inanimate_tools_hammer_4.png	188	inanimate	tools	hammer	4	0	1	boats	2	correct	1.02225959015777
40785	1	stim098_animate_mammal_rhino_2.png	98	animate	mammal	rhino	2	0	1	boats	2	correct	1.02225959015777
40835	1	stim035_animate_bird_peacock_3.png	35	animate	bird	peacock	3	0	1	boats	2	correct	1.02225959015777
40885	1	stim113_inanimate_clothing_shirt_1.png	113	inanimate	clothing	shirt	1	0	1	boats	2	correct	1.02225959015777
40935	1	stim116_inanimate_clothing_shirt_4.png	116	inanimate	clothing	shirt	4	0	1	boats	2	correct	1.02225959015777
40985	1	stim159_inanimate_furniture_table_3.png	159	inanimate	furniture	table	3	0	1	boats	2	correct	1.02225959015777
41035	1	stim051_animate_human_clown_3.png	51	animate	human	clown	3	0	1	boats	2	correct	1.02225959015777
41085	1	stim059_animate_human_sports_3.png	59	animate	human	sports	3	0	1	boats	2	correct	1.02225959015777
41135	1	stim192_inanimate_tools_pan_4.png	192	inanimate	tools	pan	4	0	1	boats	2	correct	1.02225959015777
41185	1	stim104_inanimate_clothing_gloves_4.png	104	inanimate	clothing	gloves	4	0	1	boats	2	correct	1.02225959015777
41235	1	stim195_inanimate_tools_scissors_3.png	195	inanimate	tools	scissors	3	0	1	boats	2	correct	1.02225959015777
41285	1	stim167_inanimate_plants_cactus_3.png	167	inanimate	plants	cactus	3	0	1	boats	2	correct	1.02225959015777
41335	1	stim008_animate_aquatic_fish_4.png	8	animate	aquatic	fish	4	0	1	boats	2	correct	1.02225959015777
41385	1	stim140_inanimate_fruits_strawberry_4.png	140	inanimate	fruits	strawberry	4	0	1	boats	2	correct	1.02225959015777
41435	1	stim121_inanimate_fruits_apple_1.png	121	inanimate	fruits	apple	1	0	1	boats	2	correct	1.02225959015777
41485	1	stim207_targets_object_boats_3.png	207	targets	object	boats	3	1	1	boats	2	correct	1.02225959015777
41535	1	stim014_animate_aquatic_shark_2.png	14	animate	aquatic	shark	2	0	1	boats	2	correct	1.02225959015777
41585	1	stim168_inanimate_plants_cactus_4.png	168	inanimate	plants	cactus	4	0	1	boats	2	correct	1.02225959015777
41635	1	stim036_animate_bird_peacock_4.png	36	animate	bird	peacock	4	0	1	boats	2	correct	1.02225959015777
41685	1	stim090_animate_mammal_kangaroo_2.png	90	animate	mammal	kangaroo	2	0	1	boats	2	correct	1.02225959015777
41735	1	stim095_animate_mammal_monkey_3.png	95	animate	mammal	monkey	3	0	1	boats	2	correct	1.02225959015777
41785	1	stim093_animate_mammal_monkey_1.png	93	animate	mammal	monkey	1	0	1	boats	2	correct	1.02225959015777
41835	1	stim176_inanimate_plants_tree_4.png	176	inanimate	plants	tree	4	0	1	boats	2	correct	1.02225959015777
41885	1	stim056_animate_human_faces_4.png	56	animate	human	faces	4	0	1	boats	2	correct	1.02225959015777
41935	1	stim160_inanimate_furniture_table_4.png	160	inanimate	furniture	table	4	0	1	boats	2	correct	1.02225959015777
41985	1	stim120_inanimate_clothing_socks_4.png	120	inanimate	clothing	socks	4	0	1	boats	2	correct	1.02225959015777
42035	1	stim043_animate_human_baby_3.png	43	animate	human	baby	3	0	1	boats	2	correct	1.02225959015777
42085	1	stim055_animate_human_faces_3.png	55	animate	human	faces	3	0	1	boats	2	correct	1.02225959015777
42135	1	stim028_animate_bird_duck_4.png	28	animate	bird	duck	4	0	1	boats	2	correct	1.02225959015777
42185	1	stim115_inanimate_clothing_shirt_3.png	115	inanimate	clothing	shirt	3	0	1	boats	2	correct	1.02225959015777
42235	1	stim017_animate_aquatic_shrimp_1.png	17	animate	aquatic	shrimp	1	0	1	boats	2	correct	1.02225959015777
42285	1	stim177_inanimate_plants_tulip_1.png	177	inanimate	plants	tulip	1	0	1	boats	2	correct	1.02225959015777
42335	1	stim117_inanimate_clothing_socks_1.png	117	inanimate	clothing	socks	1	0	1	boats	2	correct	1.02225959015777
42385	1	stim057_animate_human_sports_1.png	57	animate	human	sports	1	0	1	boats	2	correct	1.02225959015777
42435	1	stim133_inanimate_fruits_pineapple_1.png	133	inanimate	fruits	pineapple	1	0	1	boats	2	correct	1.02225959015777
42485	1	stim173_inanimate_plants_tree_1.png	173	inanimate	plants	tree	1	0	1	boats	2	correct	1.02225959015777
42535	1	stim111_inanimate_clothing_jeans_3.png	111	inanimate	clothing	jeans	3	0	1	boats	2	correct	1.02225959015777
42585	1	stim063_animate_insect_ant_3.png	63	animate	insect	ant	3	0	1	boats	2	correct	1.02225959015777
42635	1	stim136_inanimate_fruits_pineapple_4.png	136	inanimate	fruits	pineapple	4	0	1	boats	2	correct	1.02225959015777
42685	1	stim058_animate_human_sports_2.png	58	animate	human	sports	2	0	1	boats	2	correct	1.02225959015777
42735	1	stim178_inanimate_plants_tulip_2.png	178	inanimate	plants	tulip	2	0	1	boats	2	correct	1.02225959015777
42785	1	stim001_animate_aquatic_crab_1.png	1	animate	aquatic	crab	1	0	1	boats	2	correct	1.02225959015777
42835	1	stim084_animate_mammal_cow_4.png	84	animate	mammal	cow	4	0	1	boats	2	correct	1.02225959015777
42885	1	stim044_animate_human_baby_4.png	44	animate	human	baby	4	0	1	boats	2	correct	1.02225959015777
42935	1	stim156_inanimate_furniture_sofa_4.png	156	inanimate	furniture	sofa	4	0	1	boats	2	correct	1.02225959015777
42985	1	stim132_inanimate_fruits_grape_4.png	132	inanimate	fruits	grape	4	0	1	boats	2	correct	1.02225959015777
43035	1	stim076_animate_insect_dragonfly_4.png	76	animate	insect	dragonfly	4	0	1	boats	2	correct	1.02225959015777
43085	1	stim074_animate_insect_dragonfly_2.png	74	animate	insect	dragonfly	2	0	1	boats	2	correct	1.02225959015777
43135	1	stim110_inanimate_clothing_jeans_2.png	110	inanimate	clothing	jeans	2	0	1	boats	2	correct	1.02225959015777
43185	1	stim108_inanimate_clothing_hat_4.png	108	inanimate	clothing	hat	4	0	1	boats	2	correct	1.02225959015777
43235	1	stim186_inanimate_tools_hammer_2.png	186	inanimate	tools	hammer	2	0	1	boats	2	correct	1.02225959015777
43285	1	stim061_animate_insect_ant_1.png	61	animate	insect	ant	1	0	1	boats	2	correct	1.02225959015777
43335	1	stim045_animate_human_child_1.png	45	animate	human	child	1	0	1	boats	2	correct	1.02225959015777
43385	1	stim047_animate_human_child_3.png	47	animate	human	child	3	0	1	boats	2	correct	1.02225959015777
43435	1	stim054_animate_human_faces_2.png	54	animate	human	faces	2	0	1	boats	2	correct	1.02225959015777
43485	1	stim153_inanimate_furniture_sofa_1.png	153	inanimate	furniture	sofa	1	0	1	boats	2	correct	1.02225959015777
43535	1	stim138_inanimate_fruits_strawberry_2.png	138	inanimate	fruits	strawberry	2	0	1	boats	2	correct	1.02225959015777
43585	1	stim007_animate_aquatic_fish_3.png	7	animate	aquatic	fish	3	0	1	boats	2	correct	1.02225959015777
43635	1	stim042_animate_human_baby_2.png	42	animate	human	baby	2	0	1	boats	2	correct	1.02225959015777
43685	1	stim034_animate_bird_peacock_2.png	34	animate	bird	peacock	2	0	1	boats	2	correct	1.02225959015777
43735	1	stim193_inanimate_tools_scissors_1.png	193	inanimate	tools	scissors	1	0	1	boats	2	correct	1.02225959015777
43785	1	stim128_inanimate_fruits_banana_4.png	128	inanimate	fruits	banana	4	0	1	boats	2	correct	1.02225959015777
43835	1	stim079_animate_insect_grasshopper_3.png	79	animate	insect	grasshopper	3	0	1	boats	2	correct	1.02225959015777
43885	1	stim004_animate_aquatic_crab_4.png	4	animate	aquatic	crab	4	0	1	boats	2	correct	1.02225959015777
43935	1	stim100_animate_mammal_rhino_4.png	100	animate	mammal	rhino	4	0	1	boats	2	correct	1.02225959015777
43985	1	stim050_animate_human_clown_2.png	50	animate	human	clown	2	0	1	boats	2	correct	1.02225959015777
44035	1	stim134_inanimate_fruits_pineapple_2.png	134	inanimate	fruits	pineapple	2	0	1	boats	2	correct	1.02225959015777
44085	1	stim077_animate_insect_grasshopper_1.png	77	animate	insect	grasshopper	1	0	1	boats	2	correct	1.02225959015777
44135	1	stim062_animate_insect_ant_2.png	62	animate	insect	ant	2	0	1	boats	2	correct	1.02225959015777
44185	1	stim013_animate_aquatic_shark_1.png	13	animate	aquatic	shark	1	0	1	boats	2	correct	1.02225959015777
44235	1	stim002_animate_aquatic_crab_2.png	2	animate	aquatic	crab	2	0	1	boats	2	correct	1.02225959015777
44285	1	stim183_inanimate_tools_broom_3.png	183	inanimate	tools	broom	3	0	1	boats	2	correct	1.02225959015777
44335	1	stim087_animate_mammal_giraffe_3.png	87	animate	mammal	giraffe	3	0	1	boats	2	correct	1.02225959015777
44385	1	stim019_animate_aquatic_shrimp_3.png	19	animate	aquatic	shrimp	3	0	1	boats	2	correct	1.02225959015777
44435	1	stim082_animate_mammal_cow_2.png	82	animate	mammal	cow	2	0	1	boats	2	correct	1.02225959015777
44485	1	stim157_inanimate_furniture_table_1.png	157	inanimate	furniture	table	1	0	1	boats	2	correct	1.02225959015777
44535	1	stim180_inanimate_plants_tulip_4.png	180	inanimate	plants	tulip	4	0	1	boats	2	correct	1.02225959015777
44585	1	stim101_inanimate_clothing_gloves_1.png	101	inanimate	clothing	gloves	1	0	1	boats	2	correct	1.02225959015777
44635	1	stim123_inanimate_fruits_apple_3.png	123	inanimate	fruits	apple	3	0	1	boats	2	correct	1.02225959015777
44685	1	stim015_animate_aquatic_shark_3.png	15	animate	aquatic	shark	3	0	1	boats	2	correct	1.02225959015777
44735	1	stim124_inanimate_fruits_apple_4.png	124	inanimate	fruits	apple	4	0	1	boats	2	correct	1.02225959015777
44785	1	stim048_animate_human_child_4.png	48	animate	human	child	4	0	1	boats	2	correct	1.02225959015777
57385	1	stim089_animate_mammal_kangaroo_1.png	89	animate	mammal	kangaroo	1	0	2	boats	1	incorrect	1.28134650294669
57435	1	stim013_animate_aquatic_shark_1.png	13	animate	aquatic	shark	1	0	2	boats	1	incorrect	1.28134650294669
57485	1	stim002_animate_aquatic_crab_2.png	2	animate	aquatic	crab	2	0	2	boats	1	incorrect	1.28134650294669
57535	1	stim115_inanimate_clothing_shirt_3.png	115	inanimate	clothing	shirt	3	0	2	boats	1	incorrect	1.28134650294669
57585	1	stim060_animate_human_sports_4.png	60	animate	human	sports	4	0	2	boats	1	incorrect	1.28134650294669
57635	1	stim044_animate_human_baby_4.png	44	animate	human	baby	4	0	2	boats	1	incorrect	1.28134650294669
57685	1	stim185_inanimate_tools_hammer_1.png	185	inanimate	tools	hammer	1	0	2	boats	1	incorrect	1.28134650294669
57735	1	stim193_inanimate_tools_scissors_1.png	193	inanimate	tools	scissors	1	0	2	boats	1	incorrect	1.28134650294669
57785	1	stim131_inanimate_fruits_grape_3.png	131	inanimate	fruits	grape	3	0	2	boats	1	incorrect	1.28134650294669
57835	1	stim021_animate_bird_chicken_1.png	21	animate	bird	chicken	1	0	2	boats	1	incorrect	1.28134650294669
57885	1	stim160_inanimate_furniture_table_4.png	160	inanimate	furniture	table	4	0	2	boats	1	incorrect	1.28134650294669
57935	1	stim097_animate_mammal_rhino_1.png	97	animate	mammal	rhino	1	0	2	boats	1	incorrect	1.28134650294669
57985	1	stim007_animate_aquatic_fish_3.png	7	animate	aquatic	fish	3	0	2	boats	1	incorrect	1.28134650294669
58035	1	stim174_inanimate_plants_tree_2.png	174	inanimate	plants	tree	2	0	2	boats	1	incorrect	1.28134650294669
58085	1	stim102_inanimate_clothing_gloves_2.png	102	inanimate	clothing	gloves	2	0	2	boats	1	incorrect	1.28134650294669
58135	1	stim133_inanimate_fruits_pineapple_1.png	133	inanimate	fruits	pineapple	1	0	2	boats	1	incorrect	1.28134650294669
58185	1	stim055_animate_human_faces_3.png	55	animate	human	faces	3	0	2	boats	1	incorrect	1.28134650294669
58235	1	stim062_animate_insect_ant_2.png	62	animate	insect	ant	2	0	2	boats	1	incorrect	1.28134650294669
58285	1	stim090_animate_mammal_kangaroo_2.png	90	animate	mammal	kangaroo	2	0	2	boats	1	incorrect	1.28134650294669
58335	1	stim108_inanimate_clothing_hat_4.png	108	inanimate	clothing	hat	4	0	2	boats	1	incorrect	1.28134650294669
58385	1	stim034_animate_bird_peacock_2.png	34	animate	bird	peacock	2	0	2	boats	1	incorrect	1.28134650294669
58435	1	stim050_animate_human_clown_2.png	50	animate	human	clown	2	0	2	boats	1	incorrect	1.28134650294669
58485	1	stim032_animate_bird_parrot_4.png	32	animate	bird	parrot	4	0	2	boats	1	incorrect	1.28134650294669
58535	1	stim113_inanimate_clothing_shirt_1.png	113	inanimate	clothing	shirt	1	0	2	boats	1	incorrect	1.28134650294669
58585	1	stim098_animate_mammal_rhino_2.png	98	animate	mammal	rhino	2	0	2	boats	1	incorrect	1.28134650294669
58635	1	stim186_inanimate_tools_hammer_2.png	186	inanimate	tools	hammer	2	0	2	boats	1	incorrect	1.28134650294669
58685	1	stim091_animate_mammal_kangaroo_3.png	91	animate	mammal	kangaroo	3	0	2	boats	1	incorrect	1.28134650294669
58735	1	stim015_animate_aquatic_shark_3.png	15	animate	aquatic	shark	3	0	2	boats	1	incorrect	1.28134650294669
58785	1	stim100_animate_mammal_rhino_4.png	100	animate	mammal	rhino	4	0	2	boats	1	incorrect	1.28134650294669
58835	1	stim010_animate_aquatic_seahorse_2.png	10	animate	aquatic	seahorse	2	0	2	boats	1	incorrect	1.28134650294669
58885	1	stim006_animate_aquatic_fish_2.png	6	animate	aquatic	fish	2	0	2	boats	1	incorrect	1.28134650294669
58935	1	stim041_animate_human_baby_1.png	41	animate	human	baby	1	0	2	boats	1	incorrect	1.28134650294669
58985	1	stim068_animate_insect_bug_4.png	68	animate	insect	bug	4	0	2	boats	1	incorrect	1.28134650294669
59035	1	stim189_inanimate_tools_pan_1.png	189	inanimate	tools	pan	1	0	2	boats	1	incorrect	1.28134650294669
59085	1	stim076_animate_insect_dragonfly_4.png	76	animate	insect	dragonfly	4	0	2	boats	1	incorrect	1.28134650294669
59135	1	stim004_animate_aquatic_crab_4.png	4	animate	aquatic	crab	4	0	2	boats	1	incorrect	1.28134650294669
59185	1	stim037_animate_bird_penguin_1.png	37	animate	bird	penguin	1	0	2	boats	1	incorrect	1.28134650294669
59235	1	stim132_inanimate_fruits_grape_4.png	132	inanimate	fruits	grape	4	0	2	boats	1	incorrect	1.28134650294669
59285	1	stim146_inanimate_furniture_chair_2.png	146	inanimate	furniture	chair	2	0	2	boats	1	incorrect	1.28134650294669
59335	1	stim145_inanimate_furniture_chair_1.png	145	inanimate	furniture	chair	1	0	2	boats	1	incorrect	1.28134650294669
59385	1	stim168_inanimate_plants_cactus_4.png	168	inanimate	plants	cactus	4	0	2	boats	1	incorrect	1.28134650294669
59435	1	stim064_animate_insect_ant_4.png	64	animate	insect	ant	4	0	2	boats	1	incorrect	1.28134650294669
59485	1	stim036_animate_bird_peacock_4.png	36	animate	bird	peacock	4	0	2	boats	1	incorrect	1.28134650294669
59535	1	stim128_inanimate_fruits_banana_4.png	128	inanimate	fruits	banana	4	0	2	boats	1	incorrect	1.28134650294669
59585	1	stim012_animate_aquatic_seahorse_4.png	12	animate	aquatic	seahorse	4	0	2	boats	1	incorrect	1.28134650294669
59635	1	stim187_inanimate_tools_hammer_3.png	187	inanimate	tools	hammer	3	0	2	boats	1	incorrect	1.28134650294669
59685	1	stim077_animate_insect_grasshopper_1.png	77	animate	insect	grasshopper	1	0	2	boats	1	incorrect	1.28134650294669
59735	1	stim082_animate_mammal_cow_2.png	82	animate	mammal	cow	2	0	2	boats	1	incorrect	1.28134650294669
59785	1	stim164_inanimate_plants_bush_4.png	164	inanimate	plants	bush	4	0	2	boats	1	incorrect	1.28134650294669
59835	1	stim005_animate_aquatic_fish_1.png	5	animate	aquatic	fish	1	0	2	boats	1	incorrect	1.28134650294669
59885	1	stim171_inanimate_plants_sunflower_3.png	171	inanimate	plants	sunflower	3	0	2	boats	1	incorrect	1.28134650294669
59935	1	stim033_animate_bird_peacock_1.png	33	animate	bird	peacock	1	0	2	boats	1	incorrect	1.28134650294669
59985	1	stim011_animate_aquatic_seahorse_3.png	11	animate	aquatic	seahorse	3	0	2	boats	1	incorrect	1.28134650294669
60035	1	stim099_animate_mammal_rhino_3.png	99	animate	mammal	rhino	3	0	2	boats	1	incorrect	1.28134650294669
60085	1	stim199_inanimate_tools_wrench_3.png	199	inanimate	tools	wrench	3	0	2	boats	1	incorrect	1.28134650294669
60135	1	stim029_animate_bird_parrot_1.png	29	animate	bird	parrot	1	0	2	boats	1	incorrect	1.28134650294669
60185	1	stim149_inanimate_furniture_closet_1.png	149	inanimate	furniture	closet	1	0	2	boats	1	incorrect	1.28134650294669
60235	1	stim047_animate_human_child_3.png	47	animate	human	child	3	0	2	boats	1	incorrect	1.28134650294669
60285	1	stim026_animate_bird_duck_2.png	26	animate	bird	duck	2	0	2	boats	1	incorrect	1.28134650294669
60335	1	stim001_animate_aquatic_crab_1.png	1	animate	aquatic	crab	1	0	2	boats	1	incorrect	1.28134650294669
60385	1	stim067_animate_insect_bug_3.png	67	animate	insect	bug	3	0	2	boats	1	incorrect	1.28134650294669
60435	1	stim052_animate_human_clown_4.png	52	animate	human	clown	4	0	2	boats	1	incorrect	1.28134650294669
60485	1	stim182_inanimate_tools_broom_2.png	182	inanimate	tools	broom	2	0	2	boats	1	incorrect	1.28134650294669
60535	1	stim130_inanimate_fruits_grape_2.png	130	inanimate	fruits	grape	2	0	2	boats	1	incorrect	1.28134650294669
60585	1	stim104_inanimate_clothing_gloves_4.png	104	inanimate	clothing	gloves	4	0	2	boats	1	incorrect	1.28134650294669
60635	1	stim024_animate_bird_chicken_4.png	24	animate	bird	chicken	4	0	2	boats	1	incorrect	1.28134650294669
60685	1	stim038_animate_bird_penguin_2.png	38	animate	bird	penguin	2	0	2	boats	1	incorrect	1.28134650294669
60735	1	stim022_animate_bird_chicken_2.png	22	animate	bird	chicken	2	0	2	boats	1	incorrect	1.28134650294669
60785	1	stim192_inanimate_tools_pan_4.png	192	inanimate	tools	pan	4	0	2	boats	1	incorrect	1.28134650294669
60835	1	stim059_animate_human_sports_3.png	59	animate	human	sports	3	0	2	boats	1	incorrect	1.28134650294669
60885	1	stim120_inanimate_clothing_socks_4.png	120	inanimate	clothing	socks	4	0	2	boats	1	incorrect	1.28134650294669
60935	1	stim030_animate_bird_parrot_2.png	30	animate	bird	parrot	2	0	2	boats	1	incorrect	1.28134650294669
60985	1	stim153_inanimate_furniture_sofa_1.png	153	inanimate	furniture	sofa	1	0	2	boats	1	incorrect	1.28134650294669
61035	1	stim172_inanimate_plants_sunflower_4.png	172	inanimate	plants	sunflower	4	0	2	boats	1	incorrect	1.28134650294669
61085	1	stim112_inanimate_clothing_jeans_4.png	112	inanimate	clothing	jeans	4	0	2	boats	1	incorrect	1.28134650294669
61135	1	stim151_inanimate_furniture_closet_3.png	151	inanimate	furniture	closet	3	0	2	boats	1	incorrect	1.28134650294669
61185	1	stim042_animate_human_baby_2.png	42	animate	human	baby	2	0	2	boats	1	incorrect	1.28134650294669
61235	1	stim123_inanimate_fruits_apple_3.png	123	inanimate	fruits	apple	3	0	2	boats	1	incorrect	1.28134650294669
61285	1	stim206_targets_object_boats_2.png	206	targets	object	boats	2	1	2	boats	1	incorrect	1.28134650294669
61335	1	stim198_inanimate_tools_wrench_2.png	198	inanimate	tools	wrench	2	0	2	boats	1	incorrect	1.28134650294669
61385	1	stim144_inanimate_furniture_bed_4.png	144	inanimate	furniture	bed	4	0	2	boats	1	incorrect	1.28134650294669
61435	1	stim031_animate_bird_parrot_3.png	31	animate	bird	parrot	3	0	2	boats	1	incorrect	1.28134650294669
61485	1	stim141_inanimate_furniture_bed_1.png	141	inanimate	furniture	bed	1	0	2	boats	1	incorrect	1.28134650294669
61535	1	stim075_animate_insect_dragonfly_3.png	75	animate	insect	dragonfly	3	0	2	boats	1	incorrect	1.28134650294669
61585	1	stim155_inanimate_furniture_sofa_3.png	155	inanimate	furniture	sofa	3	0	2	boats	1	incorrect	1.28134650294669
61635	1	stim058_animate_human_sports_2.png	58	animate	human	sports	2	0	2	boats	1	incorrect	1.28134650294669
61685	1	stim124_inanimate_fruits_apple_4.png	124	inanimate	fruits	apple	4	0	2	boats	1	incorrect	1.28134650294669
61735	1	stim116_inanimate_clothing_shirt_4.png	116	inanimate	clothing	shirt	4	0	2	boats	1	incorrect	1.28134650294669
61785	1	stim179_inanimate_plants_tulip_3.png	179	inanimate	plants	tulip	3	0	2	boats	1	incorrect	1.28134650294669
61835	1	stim057_animate_human_sports_1.png	57	animate	human	sports	1	0	2	boats	1	incorrect	1.28134650294669
61885	1	stim118_inanimate_clothing_socks_2.png	118	inanimate	clothing	socks	2	0	2	boats	1	incorrect	1.28134650294669
61935	1	stim048_animate_human_child_4.png	48	animate	human	child	4	0	2	boats	1	incorrect	1.28134650294669
61985	1	stim101_inanimate_clothing_gloves_1.png	101	inanimate	clothing	gloves	1	0	2	boats	1	incorrect	1.28134650294669
62035	1	stim167_inanimate_plants_cactus_3.png	167	inanimate	plants	cactus	3	0	2	boats	1	incorrect	1.28134650294669
62085	1	stim158_inanimate_furniture_table_2.png	158	inanimate	furniture	table	2	0	2	boats	1	incorrect	1.28134650294669
62135	1	stim084_animate_mammal_cow_4.png	84	animate	mammal	cow	4	0	2	boats	1	incorrect	1.28134650294669
62185	1	stim194_inanimate_tools_scissors_2.png	194	inanimate	tools	scissors	2	0	2	boats	1	incorrect	1.28134650294669
62235	1	stim180_inanimate_plants_tulip_4.png	180	inanimate	plants	tulip	4	0	2	boats	1	incorrect	1.28134650294669
62285	1	stim150_inanimate_furniture_closet_2.png	150	inanimate	furniture	closet	2	0	2	boats	1	incorrect	1.28134650294669
62335	1	stim095_animate_mammal_monkey_3.png	95	animate	mammal	monkey	3	0	2	boats	1	incorrect	1.28134650294669
62385	1	stim035_animate_bird_peacock_3.png	35	animate	bird	peacock	3	0	2	boats	1	incorrect	1.28134650294669
62435	1	stim074_animate_insect_dragonfly_2.png	74	animate	insect	dragonfly	2	0	2	boats	1	incorrect	1.28134650294669
62485	1	stim188_inanimate_tools_hammer_4.png	188	inanimate	tools	hammer	4	0	2	boats	1	incorrect	1.28134650294669
62535	1	stim025_animate_bird_duck_1.png	25	animate	bird	duck	1	0	2	boats	1	incorrect	1.28134650294669
62585	1	stim156_inanimate_furniture_sofa_4.png	156	inanimate	furniture	sofa	4	0	2	boats	1	incorrect	1.28134650294669
62635	1	stim017_animate_aquatic_shrimp_1.png	17	animate	aquatic	shrimp	1	0	2	boats	1	incorrect	1.28134650294669
62685	1	stim072_animate_insect_butterfly_4.png	72	animate	insect	butterfly	4	0	2	boats	1	incorrect	1.28134650294669
62735	1	stim086_animate_mammal_giraffe_2.png	86	animate	mammal	giraffe	2	0	2	boats	1	incorrect	1.28134650294669
62785	1	stim051_animate_human_clown_3.png	51	animate	human	clown	3	0	2	boats	1	incorrect	1.28134650294669
62835	1	stim195_inanimate_tools_scissors_3.png	195	inanimate	tools	scissors	3	0	2	boats	1	incorrect	1.28134650294669
62885	1	stim117_inanimate_clothing_socks_1.png	117	inanimate	clothing	socks	1	0	2	boats	1	incorrect	1.28134650294669
62935	1	stim043_animate_human_baby_3.png	43	animate	human	baby	3	0	2	boats	1	incorrect	1.28134650294669
62985	1	stim181_inanimate_tools_broom_1.png	181	inanimate	tools	broom	1	0	2	boats	1	incorrect	1.28134650294669
63035	1	stim070_animate_insect_butterfly_2.png	70	animate	insect	butterfly	2	0	2	boats	1	incorrect	1.28134650294669
63085	1	stim148_inanimate_furniture_chair_4.png	148	inanimate	furniture	chair	4	0	2	boats	1	incorrect	1.28134650294669
63135	1	stim184_inanimate_tools_broom_4.png	184	inanimate	tools	broom	4	0	2	boats	1	incorrect	1.28134650294669
63185	1	stim079_animate_insect_grasshopper_3.png	79	animate	insect	grasshopper	3	0	2	boats	1	incorrect	1.28134650294669
63235	1	stim152_inanimate_furniture_closet_4.png	152	inanimate	furniture	closet	4	0	2	boats	1	incorrect	1.28134650294669
63285	1	stim165_inanimate_plants_cactus_1.png	165	inanimate	plants	cactus	1	0	2	boats	1	incorrect	1.28134650294669
63335	1	stim121_inanimate_fruits_apple_1.png	121	inanimate	fruits	apple	1	0	2	boats	1	incorrect	1.28134650294669
63385	1	stim205_targets_object_boats_1.png	205	targets	object	boats	1	1	2	boats	1	incorrect	1.28134650294669
63435	1	stim056_animate_human_faces_4.png	56	animate	human	faces	4	0	2	boats	1	incorrect	1.28134650294669
63485	1	stim173_inanimate_plants_tree_1.png	173	inanimate	plants	tree	1	0	2	boats	1	incorrect	1.28134650294669
63535	1	stim190_inanimate_tools_pan_2.png	190	inanimate	tools	pan	2	0	2	boats	1	incorrect	1.28134650294669
63585	1	stim040_animate_bird_penguin_4.png	40	animate	bird	penguin	4	0	2	boats	1	incorrect	1.28134650294669
63635	1	stim122_inanimate_fruits_apple_2.png	122	inanimate	fruits	apple	2	0	2	boats	1	incorrect	1.28134650294669
63685	1	stim019_animate_aquatic_shrimp_3.png	19	animate	aquatic	shrimp	3	0	2	boats	1	incorrect	1.28134650294669
63735	1	stim016_animate_aquatic_shark_4.png	16	animate	aquatic	shark	4	0	2	boats	1	incorrect	1.28134650294669
63785	1	stim154_inanimate_furniture_sofa_2.png	154	inanimate	furniture	sofa	2	0	2	boats	1	incorrect	1.28134650294669
63835	1	stim191_inanimate_tools_pan_3.png	191	inanimate	tools	pan	3	0	2	boats	1	incorrect	1.28134650294669
63885	1	stim196_inanimate_tools_scissors_4.png	196	inanimate	tools	scissors	4	0	2	boats	1	incorrect	1.28134650294669
63935	1	stim136_inanimate_fruits_pineapple_4.png	136	inanimate	fruits	pineapple	4	0	2	boats	1	incorrect	1.28134650294669
63985	1	stim014_animate_aquatic_shark_2.png	14	animate	aquatic	shark	2	0	2	boats	1	incorrect	1.28134650294669
64036	1	stim183_inanimate_tools_broom_3.png	183	inanimate	tools	broom	3	0	2	boats	1	incorrect	1.28134650294669
64085	1	stim119_inanimate_clothing_socks_3.png	119	inanimate	clothing	socks	3	0	2	boats	1	incorrect	1.28134650294669
64135	1	stim177_inanimate_plants_tulip_1.png	177	inanimate	plants	tulip	1	0	2	boats	1	incorrect	1.28134650294669
64185	1	stim054_animate_human_faces_2.png	54	animate	human	faces	2	0	2	boats	1	incorrect	1.28134650294669
64235	1	stim106_inanimate_clothing_hat_2.png	106	inanimate	clothing	hat	2	0	2	boats	1	incorrect	1.28134650294669
64285	1	stim071_animate_insect_butterfly_3.png	71	animate	insect	butterfly	3	0	2	boats	1	incorrect	1.28134650294669
64335	1	stim126_inanimate_fruits_banana_2.png	126	inanimate	fruits	banana	2	0	2	boats	1	incorrect	1.28134650294669
64386	1	stim138_inanimate_fruits_strawberry_2.png	138	inanimate	fruits	strawberry	2	0	2	boats	1	incorrect	1.28134650294669
64435	1	stim111_inanimate_clothing_jeans_3.png	111	inanimate	clothing	jeans	3	0	2	boats	1	incorrect	1.28134650294669
64485	1	stim028_animate_bird_duck_4.png	28	animate	bird	duck	4	0	2	boats	1	incorrect	1.28134650294669
64535	1	stim161_inanimate_plants_bush_1.png	161	inanimate	plants	bush	1	0	2	boats	1	incorrect	1.28134650294669
64585	1	stim008_animate_aquatic_fish_4.png	8	animate	aquatic	fish	4	0	2	boats	1	incorrect	1.28134650294669
64635	1	stim166_inanimate_plants_cactus_2.png	166	inanimate	plants	cactus	2	0	2	boats	1	incorrect	1.28134650294669
64685	1	stim105_inanimate_clothing_hat_1.png	105	inanimate	clothing	hat	1	0	2	boats	1	incorrect	1.28134650294669
64735	1	stim078_animate_insect_grasshopper_2.png	78	animate	insect	grasshopper	2	0	2	boats	1	incorrect	1.28134650294669
64785	1	stim092_animate_mammal_kangaroo_4.png	92	animate	mammal	kangaroo	4	0	2	boats	1	incorrect	1.28134650294669
64835	1	stim140_inanimate_fruits_strawberry_4.png	140	inanimate	fruits	strawberry	4	0	2	boats	1	incorrect	1.28134650294669
64885	1	stim088_animate_mammal_giraffe_4.png	88	animate	mammal	giraffe	4	0	2	boats	1	incorrect	1.28134650294669
64935	1	stim139_inanimate_fruits_strawberry_3.png	139	inanimate	fruits	strawberry	3	0	2	boats	1	incorrect	1.28134650294669
64985	1	stim142_inanimate_furniture_bed_2.png	142	inanimate	furniture	bed	2	0	2	boats	1	incorrect	1.28134650294669
65035	1	stim053_animate_human_faces_1.png	53	animate	human	faces	1	0	2	boats	1	incorrect	1.28134650294669
65085	1	stim175_inanimate_plants_tree_3.png	175	inanimate	plants	tree	3	0	2	boats	1	incorrect	1.28134650294669
65135	1	stim169_inanimate_plants_sunflower_1.png	169	inanimate	plants	sunflower	1	0	2	boats	1	incorrect	1.28134650294669
65186	1	stim176_inanimate_plants_tree_4.png	176	inanimate	plants	tree	4	0	2	boats	1	incorrect	1.28134650294669
65236	1	stim045_animate_human_child_1.png	45	animate	human	child	1	0	2	boats	1	incorrect	1.28134650294669
65285	1	stim073_animate_insect_dragonfly_1.png	73	animate	insect	dragonfly	1	0	2	boats	1	incorrect	1.28134650294669
65336	1	stim162_inanimate_plants_bush_2.png	162	inanimate	plants	bush	2	0	2	boats	1	incorrect	1.28134650294669
65386	1	stim129_inanimate_fruits_grape_1.png	129	inanimate	fruits	grape	1	0	2	boats	1	incorrect	1.28134650294669
65436	1	stim134_inanimate_fruits_pineapple_2.png	134	inanimate	fruits	pineapple	2	0	2	boats	1	incorrect	1.28134650294669
65486	1	stim065_animate_insect_bug_1.png	65	animate	insect	bug	1	0	2	boats	1	incorrect	1.28134650294669
65536	1	stim009_animate_aquatic_seahorse_1.png	9	animate	aquatic	seahorse	1	0	2	boats	1	incorrect	1.28134650294669
65586	1	stim109_inanimate_clothing_jeans_1.png	109	inanimate	clothing	jeans	1	0	2	boats	1	incorrect	1.28134650294669
65636	1	stim003_animate_aquatic_crab_3.png	3	animate	aquatic	crab	3	0	2	boats	1	incorrect	1.28134650294669
65686	1	stim018_animate_aquatic_shrimp_2.png	18	animate	aquatic	shrimp	2	0	2	boats	1	incorrect	1.28134650294669
65736	1	stim114_inanimate_clothing_shirt_2.png	114	inanimate	clothing	shirt	2	0	2	boats	1	incorrect	1.28134650294669
65786	1	stim163_inanimate_plants_bush_3.png	163	inanimate	plants	bush	3	0	2	boats	1	incorrect	1.28134650294669
65836	1	stim143_inanimate_furniture_bed_3.png	143	inanimate	furniture	bed	3	0	2	boats	1	incorrect	1.28134650294669
65886	1	stim157_inanimate_furniture_table_1.png	157	inanimate	furniture	table	1	0	2	boats	1	incorrect	1.28134650294669
65936	1	stim107_inanimate_clothing_hat_3.png	107	inanimate	clothing	hat	3	0	2	boats	1	incorrect	1.28134650294669
65986	1	stim061_animate_insect_ant_1.png	61	animate	insect	ant	1	0	2	boats	1	incorrect	1.28134650294669
66036	1	stim085_animate_mammal_giraffe_1.png	85	animate	mammal	giraffe	1	0	2	boats	1	incorrect	1.28134650294669
66086	1	stim081_animate_mammal_cow_1.png	81	animate	mammal	cow	1	0	2	boats	1	incorrect	1.28134650294669
66136	1	stim083_animate_mammal_cow_3.png	83	animate	mammal	cow	3	0	2	boats	1	incorrect	1.28134650294669
66186	1	stim135_inanimate_fruits_pineapple_3.png	135	inanimate	fruits	pineapple	3	0	2	boats	1	incorrect	1.28134650294669
66236	1	stim039_animate_bird_penguin_3.png	39	animate	bird	penguin	3	0	2	boats	1	incorrect	1.28134650294669
66286	1	stim046_animate_human_child_2.png	46	animate	human	child	2	0	2	boats	1	incorrect	1.28134650294669
66335	1	stim069_animate_insect_butterfly_1.png	69	animate	insect	butterfly	1	0	2	boats	1	incorrect	1.28134650294669
66386	1	stim023_animate_bird_chicken_3.png	23	animate	bird	chicken	3	0	2	boats	1	incorrect	1.28134650294669
66436	1	stim093_animate_mammal_monkey_1.png	93	animate	mammal	monkey	1	0	2	boats	1	incorrect	1.28134650294669
66486	1	stim125_inanimate_fruits_banana_1.png	125	inanimate	fruits	banana	1	0	2	boats	1	incorrect	1.28134650294669
66536	1	stim170_inanimate_plants_sunflower_2.png	170	inanimate	plants	sunflower	2	0	2	boats	1	incorrect	1.28134650294669
66586	1	stim066_animate_insect_bug_2.png	66	animate	insect	bug	2	0	2	boats	1	incorrect	1.28134650294669
66636	1	stim197_inanimate_tools_wrench_1.png	197	inanimate	tools	wrench	1	0	2	boats	1	incorrect	1.28134650294669
66686	1	stim063_animate_insect_ant_3.png	63	animate	insect	ant	3	0	2	boats	1	incorrect	1.28134650294669
66736	1	stim027_animate_bird_duck_3.png	27	animate	bird	duck	3	0	2	boats	1	incorrect	1.28134650294669
66786	1	stim110_inanimate_clothing_jeans_2.png	110	inanimate	clothing	jeans	2	0	2	boats	1	incorrect	1.28134650294669
66836	1	stim094_animate_mammal_monkey_2.png	94	animate	mammal	monkey	2	0	2	boats	1	incorrect	1.28134650294669
66886	1	stim103_inanimate_clothing_gloves_3.png	103	inanimate	clothing	gloves	3	0	2	boats	1	incorrect	1.28134650294669
66936	1	stim096_animate_mammal_monkey_4.png	96	animate	mammal	monkey	4	0	2	boats	1	incorrect	1.28134650294669
66986	1	stim087_animate_mammal_giraffe_3.png	87	animate	mammal	giraffe	3	0	2	boats	1	incorrect	1.28134650294669
67036	1	stim049_animate_human_clown_1.png	49	animate	human	clown	1	0	2	boats	1	incorrect	1.28134650294669
67086	1	stim020_animate_aquatic_shrimp_4.png	20	animate	aquatic	shrimp	4	0	2	boats	1	incorrect	1.28134650294669
67136	1	stim127_inanimate_fruits_banana_3.png	127	inanimate	fruits	banana	3	0	2	boats	1	incorrect	1.28134650294669
67186	1	stim178_inanimate_plants_tulip_2.png	178	inanimate	plants	tulip	2	0	2	boats	1	incorrect	1.28134650294669
67236	1	stim200_inanimate_tools_wrench_4.png	200	inanimate	tools	wrench	4	0	2	boats	1	incorrect	1.28134650294669
67286	1	stim147_inanimate_furniture_chair_3.png	147	inanimate	furniture	chair	3	0	2	boats	1	incorrect	1.28134650294669
67336	1	stim080_animate_insect_grasshopper_4.png	80	animate	insect	grasshopper	4	0	2	boats	1	incorrect	1.28134650294669
67386	1	stim137_inanimate_fruits_strawberry_1.png	137	inanimate	fruits	strawberry	1	0	2	boats	1	incorrect	1.28134650294669
67436	1	stim159_inanimate_furniture_table_3.png	159	inanimate	furniture	table	3	0	2	boats	1	incorrect	1.28134650294669
70902	1	stim145_inanimate_furniture_chair_1.png	145	inanimate	furniture	chair	1	0	3	boats	2	incorrect	0.564914113085251
70952	1	stim128_inanimate_fruits_banana_4.png	128	inanimate	fruits	banana	4	0	3	boats	2	incorrect	0.564914113085251
71002	1	stim026_animate_bird_duck_2.png	26	animate	bird	duck	2	0	3	boats	2	incorrect	0.564914113085251
71052	1	stim017_animate_aquatic_shrimp_1.png	17	animate	aquatic	shrimp	1	0	3	boats	2	incorrect	0.564914113085251
71102	1	stim164_inanimate_plants_bush_4.png	164	inanimate	plants	bush	4	0	3	boats	2	incorrect	0.564914113085251
71152	1	stim025_animate_bird_duck_1.png	25	animate	bird	duck	1	0	3	boats	2	incorrect	0.564914113085251
71202	1	stim080_animate_insect_grasshopper_4.png	80	animate	insect	grasshopper	4	0	3	boats	2	incorrect	0.564914113085251
71252	1	stim152_inanimate_furniture_closet_4.png	152	inanimate	furniture	closet	4	0	3	boats	2	incorrect	0.564914113085251
71302	1	stim173_inanimate_plants_tree_1.png	173	inanimate	plants	tree	1	0	3	boats	2	incorrect	0.564914113085251
71352	1	stim003_animate_aquatic_crab_3.png	3	animate	aquatic	crab	3	0	3	boats	2	incorrect	0.564914113085251
71402	1	stim027_animate_bird_duck_3.png	27	animate	bird	duck	3	0	3	boats	2	incorrect	0.564914113085251
71452	1	stim110_inanimate_clothing_jeans_2.png	110	inanimate	clothing	jeans	2	0	3	boats	2	incorrect	0.564914113085251
71502	1	stim159_inanimate_furniture_table_3.png	159	inanimate	furniture	table	3	0	3	boats	2	incorrect	0.564914113085251
71552	1	stim046_animate_human_child_2.png	46	animate	human	child	2	0	3	boats	2	incorrect	0.564914113085251
71602	1	stim062_animate_insect_ant_2.png	62	animate	insect	ant	2	0	3	boats	2	incorrect	0.564914113085251
71652	1	stim075_animate_insect_dragonfly_3.png	75	animate	insect	dragonfly	3	0	3	boats	2	incorrect	0.564914113085251
71702	1	stim168_inanimate_plants_cactus_4.png	168	inanimate	plants	cactus	4	0	3	boats	2	incorrect	0.564914113085251
71752	1	stim197_inanimate_tools_wrench_1.png	197	inanimate	tools	wrench	1	0	3	boats	2	incorrect	0.564914113085251
71802	1	stim079_animate_insect_grasshopper_3.png	79	animate	insect	grasshopper	3	0	3	boats	2	incorrect	0.564914113085251
71852	1	stim032_animate_bird_parrot_4.png	32	animate	bird	parrot	4	0	3	boats	2	incorrect	0.564914113085251
71902	1	stim049_animate_human_clown_1.png	49	animate	human	clown	1	0	3	boats	2	incorrect	0.564914113085251
71952	1	stim114_inanimate_clothing_shirt_2.png	114	inanimate	clothing	shirt	2	0	3	boats	2	incorrect	0.564914113085251
72002	1	stim007_animate_aquatic_fish_3.png	7	animate	aquatic	fish	3	0	3	boats	2	incorrect	0.564914113085251
72052	1	stim057_animate_human_sports_1.png	57	animate	human	sports	1	0	3	boats	2	incorrect	0.564914113085251
72102	1	stim136_inanimate_fruits_pineapple_4.png	136	inanimate	fruits	pineapple	4	0	3	boats	2	incorrect	0.564914113085251
72152	1	stim143_inanimate_furniture_bed_3.png	143	inanimate	furniture	bed	3	0	3	boats	2	incorrect	0.564914113085251
72202	1	stim044_animate_human_baby_4.png	44	animate	human	baby	4	0	3	boats	2	incorrect	0.564914113085251
72252	1	stim133_inanimate_fruits_pineapple_1.png	133	inanimate	fruits	pineapple	1	0	3	boats	2	incorrect	0.564914113085251
72302	1	stim194_inanimate_tools_scissors_2.png	194	inanimate	tools	scissors	2	0	3	boats	2	incorrect	0.564914113085251
72352	1	stim070_animate_insect_butterfly_2.png	70	animate	insect	butterfly	2	0	3	boats	2	incorrect	0.564914113085251
72402	1	stim021_animate_bird_chicken_1.png	21	animate	bird	chicken	1	0	3	boats	2	incorrect	0.564914113085251
72452	1	stim015_animate_aquatic_shark_3.png	15	animate	aquatic	shark	3	0	3	boats	2	incorrect	0.564914113085251
72502	1	stim061_animate_insect_ant_1.png	61	animate	insect	ant	1	0	3	boats	2	incorrect	0.564914113085251
72552	1	stim122_inanimate_fruits_apple_2.png	122	inanimate	fruits	apple	2	0	3	boats	2	incorrect	0.564914113085251
72602	1	stim115_inanimate_clothing_shirt_3.png	115	inanimate	clothing	shirt	3	0	3	boats	2	incorrect	0.564914113085251
72652	1	stim119_inanimate_clothing_socks_3.png	119	inanimate	clothing	socks	3	0	3	boats	2	incorrect	0.564914113085251
72702	1	stim088_animate_mammal_giraffe_4.png	88	animate	mammal	giraffe	4	0	3	boats	2	incorrect	0.564914113085251
72752	1	stim054_animate_human_faces_2.png	54	animate	human	faces	2	0	3	boats	2	incorrect	0.564914113085251
72802	1	stim123_inanimate_fruits_apple_3.png	123	inanimate	fruits	apple	3	0	3	boats	2	incorrect	0.564914113085251
72852	1	stim064_animate_insect_ant_4.png	64	animate	insect	ant	4	0	3	boats	2	incorrect	0.564914113085251
72902	1	stim200_inanimate_tools_wrench_4.png	200	inanimate	tools	wrench	4	0	3	boats	2	incorrect	0.564914113085251
72952	1	stim084_animate_mammal_cow_4.png	84	animate	mammal	cow	4	0	3	boats	2	incorrect	0.564914113085251
73002	1	stim058_animate_human_sports_2.png	58	animate	human	sports	2	0	3	boats	2	incorrect	0.564914113085251
73052	1	stim072_animate_insect_butterfly_4.png	72	animate	insect	butterfly	4	0	3	boats	2	incorrect	0.564914113085251
73102	1	stim043_animate_human_baby_3.png	43	animate	human	baby	3	0	3	boats	2	incorrect	0.564914113085251
73152	1	stim171_inanimate_plants_sunflower_3.png	171	inanimate	plants	sunflower	3	0	3	boats	2	incorrect	0.564914113085251
73202	1	stim093_animate_mammal_monkey_1.png	93	animate	mammal	monkey	1	0	3	boats	2	incorrect	0.564914113085251
73252	1	stim078_animate_insect_grasshopper_2.png	78	animate	insect	grasshopper	2	0	3	boats	2	incorrect	0.564914113085251
73302	1	stim207_targets_object_boats_3.png	207	targets	object	boats	3	1	3	boats	2	incorrect	0.564914113085251
73352	1	stim082_animate_mammal_cow_2.png	82	animate	mammal	cow	2	0	3	boats	2	incorrect	0.564914113085251
73402	1	stim010_animate_aquatic_seahorse_2.png	10	animate	aquatic	seahorse	2	0	3	boats	2	incorrect	0.564914113085251
73452	1	stim098_animate_mammal_rhino_2.png	98	animate	mammal	rhino	2	0	3	boats	2	incorrect	0.564914113085251
73502	1	stim157_inanimate_furniture_table_1.png	157	inanimate	furniture	table	1	0	3	boats	2	incorrect	0.564914113085251
73552	1	stim191_inanimate_tools_pan_3.png	191	inanimate	tools	pan	3	0	3	boats	2	incorrect	0.564914113085251
73602	1	stim184_inanimate_tools_broom_4.png	184	inanimate	tools	broom	4	0	3	boats	2	incorrect	0.564914113085251
73652	1	stim146_inanimate_furniture_chair_2.png	146	inanimate	furniture	chair	2	0	3	boats	2	incorrect	0.564914113085251
73702	1	stim001_animate_aquatic_crab_1.png	1	animate	aquatic	crab	1	0	3	boats	2	incorrect	0.564914113085251
73752	1	stim135_inanimate_fruits_pineapple_3.png	135	inanimate	fruits	pineapple	3	0	3	boats	2	incorrect	0.564914113085251
73802	1	stim195_inanimate_tools_scissors_3.png	195	inanimate	tools	scissors	3	0	3	boats	2	incorrect	0.564914113085251
73852	1	stim028_animate_bird_duck_4.png	28	animate	bird	duck	4	0	3	boats	2	incorrect	0.564914113085251
73902	1	stim154_inanimate_furniture_sofa_2.png	154	inanimate	furniture	sofa	2	0	3	boats	2	incorrect	0.564914113085251
73952	1	stim086_animate_mammal_giraffe_2.png	86	animate	mammal	giraffe	2	0	3	boats	2	incorrect	0.564914113085251
74002	1	stim150_inanimate_furniture_closet_2.png	150	inanimate	furniture	closet	2	0	3	boats	2	incorrect	0.564914113085251
74052	1	stim109_inanimate_clothing_jeans_1.png	109	inanimate	clothing	jeans	1	0	3	boats	2	incorrect	0.564914113085251
74102	1	stim134_inanimate_fruits_pineapple_2.png	134	inanimate	fruits	pineapple	2	0	3	boats	2	incorrect	0.564914113085251
74152	1	stim196_inanimate_tools_scissors_4.png	196	inanimate	tools	scissors	4	0	3	boats	2	incorrect	0.564914113085251
74202	1	stim101_inanimate_clothing_gloves_1.png	101	inanimate	clothing	gloves	1	0	3	boats	2	incorrect	0.564914113085251
74252	1	stim006_animate_aquatic_fish_2.png	6	animate	aquatic	fish	2	0	3	boats	2	incorrect	0.564914113085251
74302	1	stim024_animate_bird_chicken_4.png	24	animate	bird	chicken	4	0	3	boats	2	incorrect	0.564914113085251
74352	1	stim035_animate_bird_peacock_3.png	35	animate	bird	peacock	3	0	3	boats	2	incorrect	0.564914113085251
74402	1	stim199_inanimate_tools_wrench_3.png	199	inanimate	tools	wrench	3	0	3	boats	2	incorrect	0.564914113085251
74452	1	stim181_inanimate_tools_broom_1.png	181	inanimate	tools	broom	1	0	3	boats	2	incorrect	0.564914113085251
74502	1	stim037_animate_bird_penguin_1.png	37	animate	bird	penguin	1	0	3	boats	2	incorrect	0.564914113085251
74552	1	stim004_animate_aquatic_crab_4.png	4	animate	aquatic	crab	4	0	3	boats	2	incorrect	0.564914113085251
74602	1	stim158_inanimate_furniture_table_2.png	158	inanimate	furniture	table	2	0	3	boats	2	incorrect	0.564914113085251
74652	1	stim141_inanimate_furniture_bed_1.png	141	inanimate	furniture	bed	1	0	3	boats	2	incorrect	0.564914113085251
74702	1	stim190_inanimate_tools_pan_2.png	190	inanimate	tools	pan	2	0	3	boats	2	incorrect	0.564914113085251
74752	1	stim113_inanimate_clothing_shirt_1.png	113	inanimate	clothing	shirt	1	0	3	boats	2	incorrect	0.564914113085251
74802	1	stim177_inanimate_plants_tulip_1.png	177	inanimate	plants	tulip	1	0	3	boats	2	incorrect	0.564914113085251
74852	1	stim202_targets_object_boats_2.png	202	targets	object	boats	2	1	3	boats	2	incorrect	0.564914113085251
74902	1	stim012_animate_aquatic_seahorse_4.png	12	animate	aquatic	seahorse	4	0	3	boats	2	incorrect	0.564914113085251
74952	1	stim117_inanimate_clothing_socks_1.png	117	inanimate	clothing	socks	1	0	3	boats	2	incorrect	0.564914113085251
75002	1	stim188_inanimate_tools_hammer_4.png	188	inanimate	tools	hammer	4	0	3	boats	2	incorrect	0.564914113085251
75052	1	stim148_inanimate_furniture_chair_4.png	148	inanimate	furniture	chair	4	0	3	boats	2	incorrect	0.564914113085251
75102	1	stim020_animate_aquatic_shrimp_4.png	20	animate	aquatic	shrimp	4	0	3	boats	2	incorrect	0.564914113085251
75152	1	stim126_inanimate_fruits_banana_2.png	126	inanimate	fruits	banana	2	0	3	boats	2	incorrect	0.564914113085251
75202	1	stim151_inanimate_furniture_closet_3.png	151	inanimate	furniture	closet	3	0	3	boats	2	incorrect	0.564914113085251
75252	1	stim066_animate_insect_bug_2.png	66	animate	insect	bug	2	0	3	boats	2	incorrect	0.564914113085251
75302	1	stim142_inanimate_furniture_bed_2.png	142	inanimate	furniture	bed	2	0	3	boats	2	incorrect	0.564914113085251
75352	1	stim036_animate_bird_peacock_4.png	36	animate	bird	peacock	4	0	3	boats	2	incorrect	0.564914113085251
75402	1	stim031_animate_bird_parrot_3.png	31	animate	bird	parrot	3	0	3	boats	2	incorrect	0.564914113085251
75452	1	stim138_inanimate_fruits_strawberry_2.png	138	inanimate	fruits	strawberry	2	0	3	boats	2	incorrect	0.564914113085251
75502	1	stim014_animate_aquatic_shark_2.png	14	animate	aquatic	shark	2	0	3	boats	2	incorrect	0.564914113085251
75552	1	stim077_animate_insect_grasshopper_1.png	77	animate	insect	grasshopper	1	0	3	boats	2	incorrect	0.564914113085251
75602	1	stim176_inanimate_plants_tree_4.png	176	inanimate	plants	tree	4	0	3	boats	2	incorrect	0.564914113085251
75652	1	stim106_inanimate_clothing_hat_2.png	106	inanimate	clothing	hat	2	0	3	boats	2	incorrect	0.564914113085251
75702	1	stim048_animate_human_child_4.png	48	animate	human	child	4	0	3	boats	2	incorrect	0.564914113085251
75752	1	stim111_inanimate_clothing_jeans_3.png	111	inanimate	clothing	jeans	3	0	3	boats	2	incorrect	0.564914113085251
75802	1	stim051_animate_human_clown_3.png	51	animate	human	clown	3	0	3	boats	2	incorrect	0.564914113085251
75852	1	stim013_animate_aquatic_shark_1.png	13	animate	aquatic	shark	1	0	3	boats	2	incorrect	0.564914113085251
75902	1	stim089_animate_mammal_kangaroo_1.png	89	animate	mammal	kangaroo	1	0	3	boats	2	incorrect	0.564914113085251
75952	1	stim019_animate_aquatic_shrimp_3.png	19	animate	aquatic	shrimp	3	0	3	boats	2	incorrect	0.564914113085251
76002	1	stim090_animate_mammal_kangaroo_2.png	90	animate	mammal	kangaroo	2	0	3	boats	2	incorrect	0.564914113085251
76052	1	stim087_animate_mammal_giraffe_3.png	87	animate	mammal	giraffe	3	0	3	boats	2	incorrect	0.564914113085251
76102	1	stim140_inanimate_fruits_strawberry_4.png	140	inanimate	fruits	strawberry	4	0	3	boats	2	incorrect	0.564914113085251
76152	1	stim071_animate_insect_butterfly_3.png	71	animate	insect	butterfly	3	0	3	boats	2	incorrect	0.564914113085251
76202	1	stim144_inanimate_furniture_bed_4.png	144	inanimate	furniture	bed	4	0	3	boats	2	incorrect	0.564914113085251
76252	1	stim105_inanimate_clothing_hat_1.png	105	inanimate	clothing	hat	1	0	3	boats	2	incorrect	0.564914113085251
76302	1	stim130_inanimate_fruits_grape_2.png	130	inanimate	fruits	grape	2	0	3	boats	2	incorrect	0.564914113085251
76352	1	stim056_animate_human_faces_4.png	56	animate	human	faces	4	0	3	boats	2	incorrect	0.564914113085251
76402	1	stim042_animate_human_baby_2.png	42	animate	human	baby	2	0	3	boats	2	incorrect	0.564914113085251
76452	1	stim185_inanimate_tools_hammer_1.png	185	inanimate	tools	hammer	1	0	3	boats	2	incorrect	0.564914113085251
76502	1	stim204_targets_object_boats_4.png	204	targets	object	boats	4	1	3	boats	2	incorrect	0.564914113085251
76552	1	stim041_animate_human_baby_1.png	41	animate	human	baby	1	0	3	boats	2	incorrect	0.564914113085251
76602	1	stim116_inanimate_clothing_shirt_4.png	116	inanimate	clothing	shirt	4	0	3	boats	2	incorrect	0.564914113085251
76652	1	stim127_inanimate_fruits_banana_3.png	127	inanimate	fruits	banana	3	0	3	boats	2	incorrect	0.564914113085251
76702	1	stim167_inanimate_plants_cactus_3.png	167	inanimate	plants	cactus	3	0	3	boats	2	incorrect	0.564914113085251
76752	1	stim052_animate_human_clown_4.png	52	animate	human	clown	4	0	3	boats	2	incorrect	0.564914113085251
76802	1	stim192_inanimate_tools_pan_4.png	192	inanimate	tools	pan	4	0	3	boats	2	incorrect	0.564914113085251
76852	1	stim097_animate_mammal_rhino_1.png	97	animate	mammal	rhino	1	0	3	boats	2	incorrect	0.564914113085251
76902	1	stim040_animate_bird_penguin_4.png	40	animate	bird	penguin	4	0	3	boats	2	incorrect	0.564914113085251
76952	1	stim107_inanimate_clothing_hat_3.png	107	inanimate	clothing	hat	3	0	3	boats	2	incorrect	0.564914113085251
77002	1	stim120_inanimate_clothing_socks_4.png	120	inanimate	clothing	socks	4	0	3	boats	2	incorrect	0.564914113085251
77052	1	stim125_inanimate_fruits_banana_1.png	125	inanimate	fruits	banana	1	0	3	boats	2	incorrect	0.564914113085251
77102	1	stim099_animate_mammal_rhino_3.png	99	animate	mammal	rhino	3	0	3	boats	2	incorrect	0.564914113085251
77152	1	stim096_animate_mammal_monkey_4.png	96	animate	mammal	monkey	4	0	3	boats	2	incorrect	0.564914113085251
77202	1	stim050_animate_human_clown_2.png	50	animate	human	clown	2	0	3	boats	2	incorrect	0.564914113085251
77252	1	stim100_animate_mammal_rhino_4.png	100	animate	mammal	rhino	4	0	3	boats	2	incorrect	0.564914113085251
77302	1	stim060_animate_human_sports_4.png	60	animate	human	sports	4	0	3	boats	2	incorrect	0.564914113085251
77352	1	stim055_animate_human_faces_3.png	55	animate	human	faces	3	0	3	boats	2	incorrect	0.564914113085251
77402	1	stim162_inanimate_plants_bush_2.png	162	inanimate	plants	bush	2	0	3	boats	2	incorrect	0.564914113085251
77452	1	stim183_inanimate_tools_broom_3.png	183	inanimate	tools	broom	3	0	3	boats	2	incorrect	0.564914113085251
77502	1	stim178_inanimate_plants_tulip_2.png	178	inanimate	plants	tulip	2	0	3	boats	2	incorrect	0.564914113085251
77552	1	stim182_inanimate_tools_broom_2.png	182	inanimate	tools	broom	2	0	3	boats	2	incorrect	0.564914113085251
77602	1	stim118_inanimate_clothing_socks_2.png	118	inanimate	clothing	socks	2	0	3	boats	2	incorrect	0.564914113085251
77652	1	stim186_inanimate_tools_hammer_2.png	186	inanimate	tools	hammer	2	0	3	boats	2	incorrect	0.564914113085251
77702	1	stim081_animate_mammal_cow_1.png	81	animate	mammal	cow	1	0	3	boats	2	incorrect	0.564914113085251
77752	1	stim198_inanimate_tools_wrench_2.png	198	inanimate	tools	wrench	2	0	3	boats	2	incorrect	0.564914113085251
77802	1	stim180_inanimate_plants_tulip_4.png	180	inanimate	plants	tulip	4	0	3	boats	2	incorrect	0.564914113085251
77852	1	stim074_animate_insect_dragonfly_2.png	74	animate	insect	dragonfly	2	0	3	boats	2	incorrect	0.564914113085251
77902	1	stim153_inanimate_furniture_sofa_1.png	153	inanimate	furniture	sofa	1	0	3	boats	2	incorrect	0.564914113085251
77952	1	stim039_animate_bird_penguin_3.png	39	animate	bird	penguin	3	0	3	boats	2	incorrect	0.564914113085251
78002	1	stim073_animate_insect_dragonfly_1.png	73	animate	insect	dragonfly	1	0	3	boats	2	incorrect	0.564914113085251
78052	1	stim165_inanimate_plants_cactus_1.png	165	inanimate	plants	cactus	1	0	3	boats	2	incorrect	0.564914113085251
78102	1	stim029_animate_bird_parrot_1.png	29	animate	bird	parrot	1	0	3	boats	2	incorrect	0.564914113085251
78152	1	stim132_inanimate_fruits_grape_4.png	132	inanimate	fruits	grape	4	0	3	boats	2	incorrect	0.564914113085251
78202	1	stim083_animate_mammal_cow_3.png	83	animate	mammal	cow	3	0	3	boats	2	incorrect	0.564914113085251
78252	1	stim008_animate_aquatic_fish_4.png	8	animate	aquatic	fish	4	0	3	boats	2	incorrect	0.564914113085251
78302	1	stim170_inanimate_plants_sunflower_2.png	170	inanimate	plants	sunflower	2	0	3	boats	2	incorrect	0.564914113085251
78352	1	stim121_inanimate_fruits_apple_1.png	121	inanimate	fruits	apple	1	0	3	boats	2	incorrect	0.564914113085251
78402	1	stim206_targets_object_boats_2.png	206	targets	object	boats	2	1	3	boats	2	incorrect	0.564914113085251
78452	1	stim124_inanimate_fruits_apple_4.png	124	inanimate	fruits	apple	4	0	3	boats	2	incorrect	0.564914113085251
78502	1	stim053_animate_human_faces_1.png	53	animate	human	faces	1	0	3	boats	2	incorrect	0.564914113085251
78552	1	stim193_inanimate_tools_scissors_1.png	193	inanimate	tools	scissors	1	0	3	boats	2	incorrect	0.564914113085251
78602	1	stim108_inanimate_clothing_hat_4.png	108	inanimate	clothing	hat	4	0	3	boats	2	incorrect	0.564914113085251
78652	1	stim030_animate_bird_parrot_2.png	30	animate	bird	parrot	2	0	3	boats	2	incorrect	0.564914113085251
78702	1	stim131_inanimate_fruits_grape_3.png	131	inanimate	fruits	grape	3	0	3	boats	2	incorrect	0.564914113085251
78752	1	stim160_inanimate_furniture_table_4.png	160	inanimate	furniture	table	4	0	3	boats	2	incorrect	0.564914113085251
78802	1	stim172_inanimate_plants_sunflower_4.png	172	inanimate	plants	sunflower	4	0	3	boats	2	incorrect	0.564914113085251
78852	1	stim045_animate_human_child_1.png	45	animate	human	child	1	0	3	boats	2	incorrect	0.564914113085251
78902	1	stim091_animate_mammal_kangaroo_3.png	91	animate	mammal	kangaroo	3	0	3	boats	2	incorrect	0.564914113085251
78952	1	stim156_inanimate_furniture_sofa_4.png	156	inanimate	furniture	sofa	4	0	3	boats	2	incorrect	0.564914113085251
79002	1	stim005_animate_aquatic_fish_1.png	5	animate	aquatic	fish	1	0	3	boats	2	incorrect	0.564914113085251
79052	1	stim155_inanimate_furniture_sofa_3.png	155	inanimate	furniture	sofa	3	0	3	boats	2	incorrect	0.564914113085251
79102	1	stim038_animate_bird_penguin_2.png	38	animate	bird	penguin	2	0	3	boats	2	incorrect	0.564914113085251
79152	1	stim161_inanimate_plants_bush_1.png	161	inanimate	plants	bush	1	0	3	boats	2	incorrect	0.564914113085251
79202	1	stim011_animate_aquatic_seahorse_3.png	11	animate	aquatic	seahorse	3	0	3	boats	2	incorrect	0.564914113085251
79252	1	stim009_animate_aquatic_seahorse_1.png	9	animate	aquatic	seahorse	1	0	3	boats	2	incorrect	0.564914113085251
79302	1	stim023_animate_bird_chicken_3.png	23	animate	bird	chicken	3	0	3	boats	2	incorrect	0.564914113085251
79352	1	stim103_inanimate_clothing_gloves_3.png	103	inanimate	clothing	gloves	3	0	3	boats	2	incorrect	0.564914113085251
79402	1	stim085_animate_mammal_giraffe_1.png	85	animate	mammal	giraffe	1	0	3	boats	2	incorrect	0.564914113085251
79452	1	stim166_inanimate_plants_cactus_2.png	166	inanimate	plants	cactus	2	0	3	boats	2	incorrect	0.564914113085251
79502	1	stim063_animate_insect_ant_3.png	63	animate	insect	ant	3	0	3	boats	2	incorrect	0.564914113085251
79552	1	stim016_animate_aquatic_shark_4.png	16	animate	aquatic	shark	4	0	3	boats	2	incorrect	0.564914113085251
79602	1	stim065_animate_insect_bug_1.png	65	animate	insect	bug	1	0	3	boats	2	incorrect	0.564914113085251
79652	1	stim149_inanimate_furniture_closet_1.png	149	inanimate	furniture	closet	1	0	3	boats	2	incorrect	0.564914113085251
79702	1	stim002_animate_aquatic_crab_2.png	2	animate	aquatic	crab	2	0	3	boats	2	incorrect	0.564914113085251
79752	1	stim076_animate_insect_dragonfly_4.png	76	animate	insect	dragonfly	4	0	3	boats	2	incorrect	0.564914113085251
79802	1	stim112_inanimate_clothing_jeans_4.png	112	inanimate	clothing	jeans	4	0	3	boats	2	incorrect	0.564914113085251
79852	1	stim069_animate_insect_butterfly_1.png	69	animate	insect	butterfly	1	0	3	boats	2	incorrect	0.564914113085251
79902	1	stim137_inanimate_fruits_strawberry_1.png	137	inanimate	fruits	strawberry	1	0	3	boats	2	incorrect	0.564914113085251
79953	1	stim047_animate_human_child_3.png	47	animate	human	child	3	0	3	boats	2	incorrect	0.564914113085251
80002	1	stim033_animate_bird_peacock_1.png	33	animate	bird	peacock	1	0	3	boats	2	incorrect	0.564914113085251
80053	1	stim059_animate_human_sports_3.png	59	animate	human	sports	3	0	3	boats	2	incorrect	0.564914113085251
80102	1	stim092_animate_mammal_kangaroo_4.png	92	animate	mammal	kangaroo	4	0	3	boats	2	incorrect	0.564914113085251
80152	1	stim095_animate_mammal_monkey_3.png	95	animate	mammal	monkey	3	0	3	boats	2	incorrect	0.564914113085251
80202	1	stim189_inanimate_tools_pan_1.png	189	inanimate	tools	pan	1	0	3	boats	2	incorrect	0.564914113085251
80252	1	stim174_inanimate_plants_tree_2.png	174	inanimate	plants	tree	2	0	3	boats	2	incorrect	0.564914113085251
80302	1	stim139_inanimate_fruits_strawberry_3.png	139	inanimate	fruits	strawberry	3	0	3	boats	2	incorrect	0.564914113085251
80353	1	stim163_inanimate_plants_bush_3.png	163	inanimate	plants	bush	3	0	3	boats	2	incorrect	0.564914113085251
80403	1	stim147_inanimate_furniture_chair_3.png	147	inanimate	furniture	chair	3	0	3	boats	2	incorrect	0.564914113085251
80453	1	stim129_inanimate_fruits_grape_1.png	129	inanimate	fruits	grape	1	0	3	boats	2	incorrect	0.564914113085251
80502	1	stim022_animate_bird_chicken_2.png	22	animate	bird	chicken	2	0	3	boats	2	incorrect	0.564914113085251
80553	1	stim179_inanimate_plants_tulip_3.png	179	inanimate	plants	tulip	3	0	3	boats	2	incorrect	0.564914113085251
80603	1	stim068_animate_insect_bug_4.png	68	animate	insect	bug	4	0	3	boats	2	incorrect	0.564914113085251
80653	1	stim175_inanimate_plants_tree_3.png	175	inanimate	plants	tree	3	0	3	boats	2	incorrect	0.564914113085251
80702	1	stim169_inanimate_plants_sunflower_1.png	169	inanimate	plants	sunflower	1	0	3	boats	2	incorrect	0.564914113085251
80753	1	stim187_inanimate_tools_hammer_3.png	187	inanimate	tools	hammer	3	0	3	boats	2	incorrect	0.564914113085251
80803	1	stim094_animate_mammal_monkey_2.png	94	animate	mammal	monkey	2	0	3	boats	2	incorrect	0.564914113085251
80853	1	stim104_inanimate_clothing_gloves_4.png	104	inanimate	clothing	gloves	4	0	3	boats	2	incorrect	0.564914113085251
80903	1	stim102_inanimate_clothing_gloves_2.png	102	inanimate	clothing	gloves	2	0	3	boats	2	incorrect	0.564914113085251
80953	1	stim067_animate_insect_bug_3.png	67	animate	insect	bug	3	0	3	boats	2	incorrect	0.564914113085251
81003	1	stim034_animate_bird_peacock_2.png	34	animate	bird	peacock	2	0	3	boats	2	incorrect	0.564914113085251
81053	1	stim018_animate_aquatic_shrimp_2.png	18	animate	aquatic	shrimp	2	0	3	boats	2	incorrect	0.564914113085251
83569	1	stim160_inanimate_furniture_table_4.png	160	inanimate	furniture	table	4	0	4	stars	4	correct	0.395358544250485
83619	1	stim145_inanimate_furniture_chair_1.png	145	inanimate	furniture	chair	1	0	4	stars	4	correct	0.395358544250485
83669	1	stim152_inanimate_furniture_closet_4.png	152	inanimate	furniture	closet	4	0	4	stars	4	correct	0.395358544250485
83719	1	stim140_inanimate_fruits_strawberry_4.png	140	inanimate	fruits	strawberry	4	0	4	stars	4	correct	0.395358544250485
83769	1	stim154_inanimate_furniture_sofa_2.png	154	inanimate	furniture	sofa	2	0	4	stars	4	correct	0.395358544250485
83819	1	stim155_inanimate_furniture_sofa_3.png	155	inanimate	furniture	sofa	3	0	4	stars	4	correct	0.395358544250485
83869	1	stim164_inanimate_plants_bush_4.png	164	inanimate	plants	bush	4	0	4	stars	4	correct	0.395358544250485
83919	1	stim049_animate_human_clown_1.png	49	animate	human	clown	1	0	4	stars	4	correct	0.395358544250485
83969	1	stim068_animate_insect_bug_4.png	68	animate	insect	bug	4	0	4	stars	4	correct	0.395358544250485
84019	1	stim048_animate_human_child_4.png	48	animate	human	child	4	0	4	stars	4	correct	0.395358544250485
84069	1	stim034_animate_bird_peacock_2.png	34	animate	bird	peacock	2	0	4	stars	4	correct	0.395358544250485
84119	1	stim027_animate_bird_duck_3.png	27	animate	bird	duck	3	0	4	stars	4	correct	0.395358544250485
84169	1	stim185_inanimate_tools_hammer_1.png	185	inanimate	tools	hammer	1	0	4	stars	4	correct	0.395358544250485
84219	1	stim199_inanimate_tools_wrench_3.png	199	inanimate	tools	wrench	3	0	4	stars	4	correct	0.395358544250485
84269	1	stim023_animate_bird_chicken_3.png	23	animate	bird	chicken	3	0	4	stars	4	correct	0.395358544250485
84319	1	stim054_animate_human_faces_2.png	54	animate	human	faces	2	0	4	stars	4	correct	0.395358544250485
84369	1	stim165_inanimate_plants_cactus_1.png	165	inanimate	plants	cactus	1	0	4	stars	4	correct	0.395358544250485
84419	1	stim020_animate_aquatic_shrimp_4.png	20	animate	aquatic	shrimp	4	0	4	stars	4	correct	0.395358544250485
84469	1	stim078_animate_insect_grasshopper_2.png	78	animate	insect	grasshopper	2	0	4	stars	4	correct	0.395358544250485
84519	1	stim189_inanimate_tools_pan_1.png	189	inanimate	tools	pan	1	0	4	stars	4	correct	0.395358544250485
84569	1	stim135_inanimate_fruits_pineapple_3.png	135	inanimate	fruits	pineapple	3	0	4	stars	4	correct	0.395358544250485
84619	1	stim115_inanimate_clothing_shirt_3.png	115	inanimate	clothing	shirt	3	0	4	stars	4	correct	0.395358544250485
84669	1	stim047_animate_human_child_3.png	47	animate	human	child	3	0	4	stars	4	correct	0.395358544250485
84719	1	stim196_inanimate_tools_scissors_4.png	196	inanimate	tools	scissors	4	0	4	stars	4	correct	0.395358544250485
84769	1	stim044_animate_human_baby_4.png	44	animate	human	baby	4	0	4	stars	4	correct	0.395358544250485
84819	1	stim033_animate_bird_peacock_1.png	33	animate	bird	peacock	1	0	4	stars	4	correct	0.395358544250485
84869	1	stim127_inanimate_fruits_banana_3.png	127	inanimate	fruits	banana	3	0	4	stars	4	correct	0.395358544250485
84919	1	stim037_animate_bird_penguin_1.png	37	animate	bird	penguin	1	0	4	stars	4	correct	0.395358544250485
84969	1	stim132_inanimate_fruits_grape_4.png	132	inanimate	fruits	grape	4	0	4	stars	4	correct	0.395358544250485
85019	1	stim194_inanimate_tools_scissors_2.png	194	inanimate	tools	scissors	2	0	4	stars	4	correct	0.395358544250485
85069	1	stim200_inanimate_tools_wrench_4.png	200	inanimate	tools	wrench	4	0	4	stars	4	correct	0.395358544250485
85119	1	stim015_animate_aquatic_shark_3.png	15	animate	aquatic	shark	3	0	4	stars	4	correct	0.395358544250485
85169	1	stim035_animate_bird_peacock_3.png	35	animate	bird	peacock	3	0	4	stars	4	correct	0.395358544250485
85219	1	stim069_animate_insect_butterfly_1.png	69	animate	insect	butterfly	1	0	4	stars	4	correct	0.395358544250485
85269	1	stim107_inanimate_clothing_hat_3.png	107	inanimate	clothing	hat	3	0	4	stars	4	correct	0.395358544250485
85319	1	stim079_animate_insect_grasshopper_3.png	79	animate	insect	grasshopper	3	0	4	stars	4	correct	0.395358544250485
85369	1	stim118_inanimate_clothing_socks_2.png	118	inanimate	clothing	socks	2	0	4	stars	4	correct	0.395358544250485
85419	1	stim093_animate_mammal_monkey_1.png	93	animate	mammal	monkey	1	0	4	stars	4	correct	0.395358544250485
85469	1	stim050_animate_human_clown_2.png	50	animate	human	clown	2	0	4	stars	4	correct	0.395358544250485
85519	1	stim111_inanimate_clothing_jeans_3.png	111	inanimate	clothing	jeans	3	0	4	stars	4	correct	0.395358544250485
85569	1	stim009_animate_aquatic_seahorse_1.png	9	animate	aquatic	seahorse	1	0	4	stars	4	correct	0.395358544250485
85619	1	stim113_inanimate_clothing_shirt_1.png	113	inanimate	clothing	shirt	1	0	4	stars	4	correct	0.395358544250485
85669	1	stim071_animate_insect_butterfly_3.png	71	animate	insect	butterfly	3	0	4	stars	4	correct	0.395358544250485
85719	1	stim085_animate_mammal_giraffe_1.png	85	animate	mammal	giraffe	1	0	4	stars	4	correct	0.395358544250485
85769	1	stim017_animate_aquatic_shrimp_1.png	17	animate	aquatic	shrimp	1	0	4	stars	4	correct	0.395358544250485
85819	1	stim125_inanimate_fruits_banana_1.png	125	inanimate	fruits	banana	1	0	4	stars	4	correct	0.395358544250485
85869	1	stim159_inanimate_furniture_table_3.png	159	inanimate	furniture	table	3	0	4	stars	4	correct	0.395358544250485
85919	1	stim133_inanimate_fruits_pineapple_1.png	133	inanimate	fruits	pineapple	1	0	4	stars	4	correct	0.395358544250485
85969	1	stim099_animate_mammal_rhino_3.png	99	animate	mammal	rhino	3	0	4	stars	4	correct	0.395358544250485
86019	1	stim169_inanimate_plants_sunflower_1.png	169	inanimate	plants	sunflower	1	0	4	stars	4	correct	0.395358544250485
86069	1	stim087_animate_mammal_giraffe_3.png	87	animate	mammal	giraffe	3	0	4	stars	4	correct	0.395358544250485
86119	1	stim075_animate_insect_dragonfly_3.png	75	animate	insect	dragonfly	3	0	4	stars	4	correct	0.395358544250485
86169	1	stim070_animate_insect_butterfly_2.png	70	animate	insect	butterfly	2	0	4	stars	4	correct	0.395358544250485
86219	1	stim188_inanimate_tools_hammer_4.png	188	inanimate	tools	hammer	4	0	4	stars	4	correct	0.395358544250485
86269	1	stim166_inanimate_plants_cactus_2.png	166	inanimate	plants	cactus	2	0	4	stars	4	correct	0.395358544250485
86319	1	stim026_animate_bird_duck_2.png	26	animate	bird	duck	2	0	4	stars	4	correct	0.395358544250485
86369	1	stim101_inanimate_clothing_gloves_1.png	101	inanimate	clothing	gloves	1	0	4	stars	4	correct	0.395358544250485
86419	1	stim053_animate_human_faces_1.png	53	animate	human	faces	1	0	4	stars	4	correct	0.395358544250485
86469	1	stim036_animate_bird_peacock_4.png	36	animate	bird	peacock	4	0	4	stars	4	correct	0.395358544250485
86519	1	stim136_inanimate_fruits_pineapple_4.png	136	inanimate	fruits	pineapple	4	0	4	stars	4	correct	0.395358544250485
86569	1	stim214_targets_shapes_star_2.png	214	targets	shapes	star	2	1	4	stars	4	correct	0.395358544250485
86619	1	stim008_animate_aquatic_fish_4.png	8	animate	aquatic	fish	4	0	4	stars	4	correct	0.395358544250485
86669	1	stim184_inanimate_tools_broom_4.png	184	inanimate	tools	broom	4	0	4	stars	4	correct	0.395358544250485
86719	1	stim147_inanimate_furniture_chair_3.png	147	inanimate	furniture	chair	3	0	4	stars	4	correct	0.395358544250485
86769	1	stim092_animate_mammal_kangaroo_4.png	92	animate	mammal	kangaroo	4	0	4	stars	4	correct	0.395358544250485
86819	1	stim059_animate_human_sports_3.png	59	animate	human	sports	3	0	4	stars	4	correct	0.395358544250485
86869	1	stim060_animate_human_sports_4.png	60	animate	human	sports	4	0	4	stars	4	correct	0.395358544250485
86919	1	stim064_animate_insect_ant_4.png	64	animate	insect	ant	4	0	4	stars	4	correct	0.395358544250485
86969	1	stim004_animate_aquatic_crab_4.png	4	animate	aquatic	crab	4	0	4	stars	4	correct	0.395358544250485
87019	1	stim149_inanimate_furniture_closet_1.png	149	inanimate	furniture	closet	1	0	4	stars	4	correct	0.395358544250485
87069	1	stim098_animate_mammal_rhino_2.png	98	animate	mammal	rhino	2	0	4	stars	4	correct	0.395358544250485
87119	1	stim067_animate_insect_bug_3.png	67	animate	insect	bug	3	0	4	stars	4	correct	0.395358544250485
87169	1	stim172_inanimate_plants_sunflower_4.png	172	inanimate	plants	sunflower	4	0	4	stars	4	correct	0.395358544250485
87219	1	stim103_inanimate_clothing_gloves_3.png	103	inanimate	clothing	gloves	3	0	4	stars	4	correct	0.395358544250485
87269	1	stim116_inanimate_clothing_shirt_4.png	116	inanimate	clothing	shirt	4	0	4	stars	4	correct	0.395358544250485
87319	1	stim063_animate_insect_ant_3.png	63	animate	insect	ant	3	0	4	stars	4	correct	0.395358544250485
87369	1	stim010_animate_aquatic_seahorse_2.png	10	animate	aquatic	seahorse	2	0	4	stars	4	correct	0.395358544250485
87419	1	stim029_animate_bird_parrot_1.png	29	animate	bird	parrot	1	0	4	stars	4	correct	0.395358544250485
87469	1	stim077_animate_insect_grasshopper_1.png	77	animate	insect	grasshopper	1	0	4	stars	4	correct	0.395358544250485
87519	1	stim171_inanimate_plants_sunflower_3.png	171	inanimate	plants	sunflower	3	0	4	stars	4	correct	0.395358544250485
87569	1	stim161_inanimate_plants_bush_1.png	161	inanimate	plants	bush	1	0	4	stars	4	correct	0.395358544250485
87619	1	stim191_inanimate_tools_pan_3.png	191	inanimate	tools	pan	3	0	4	stars	4	correct	0.395358544250485
87669	1	stim182_inanimate_tools_broom_2.png	182	inanimate	tools	broom	2	0	4	stars	4	correct	0.395358544250485
87719	1	stim106_inanimate_clothing_hat_2.png	106	inanimate	clothing	hat	2	0	4	stars	4	correct	0.395358544250485
87769	1	stim081_animate_mammal_cow_1.png	81	animate	mammal	cow	1	0	4	stars	4	correct	0.395358544250485
87819	1	stim215_targets_shapes_star_3.png	215	targets	shapes	star	3	1	4	stars	4	correct	0.395358544250485
87869	1	stim108_inanimate_clothing_hat_4.png	108	inanimate	clothing	hat	4	0	4	stars	4	correct	0.395358544250485
87919	1	stim192_inanimate_tools_pan_4.png	192	inanimate	tools	pan	4	0	4	stars	4	correct	0.395358544250485
87969	1	stim150_inanimate_furniture_closet_2.png	150	inanimate	furniture	closet	2	0	4	stars	4	correct	0.395358544250485
88019	1	stim110_inanimate_clothing_jeans_2.png	110	inanimate	clothing	jeans	2	0	4	stars	4	correct	0.395358544250485
88069	1	stim173_inanimate_plants_tree_1.png	173	inanimate	plants	tree	1	0	4	stars	4	correct	0.395358544250485
88119	1	stim056_animate_human_faces_4.png	56	animate	human	faces	4	0	4	stars	4	correct	0.395358544250485
88169	1	stim177_inanimate_plants_tulip_1.png	177	inanimate	plants	tulip	1	0	4	stars	4	correct	0.395358544250485
88219	1	stim096_animate_mammal_monkey_4.png	96	animate	mammal	monkey	4	0	4	stars	4	correct	0.395358544250485
88269	1	stim121_inanimate_fruits_apple_1.png	121	inanimate	fruits	apple	1	0	4	stars	4	correct	0.395358544250485
88319	1	stim142_inanimate_furniture_bed_2.png	142	inanimate	furniture	bed	2	0	4	stars	4	correct	0.395358544250485
88369	1	stim190_inanimate_tools_pan_2.png	190	inanimate	tools	pan	2	0	4	stars	4	correct	0.395358544250485
88419	1	stim030_animate_bird_parrot_2.png	30	animate	bird	parrot	2	0	4	stars	4	correct	0.395358544250485
88469	1	stim025_animate_bird_duck_1.png	25	animate	bird	duck	1	0	4	stars	4	correct	0.395358544250485
88519	1	stim163_inanimate_plants_bush_3.png	163	inanimate	plants	bush	3	0	4	stars	4	correct	0.395358544250485
88569	1	stim065_animate_insect_bug_1.png	65	animate	insect	bug	1	0	4	stars	4	correct	0.395358544250485
88619	1	stim086_animate_mammal_giraffe_2.png	86	animate	mammal	giraffe	2	0	4	stars	4	correct	0.395358544250485
88669	1	stim105_inanimate_clothing_hat_1.png	105	inanimate	clothing	hat	1	0	4	stars	4	correct	0.395358544250485
88719	1	stim134_inanimate_fruits_pineapple_2.png	134	inanimate	fruits	pineapple	2	0	4	stars	4	correct	0.395358544250485
88769	1	stim076_animate_insect_dragonfly_4.png	76	animate	insect	dragonfly	4	0	4	stars	4	correct	0.395358544250485
88819	1	stim058_animate_human_sports_2.png	58	animate	human	sports	2	0	4	stars	4	correct	0.395358544250485
88869	1	stim042_animate_human_baby_2.png	42	animate	human	baby	2	0	4	stars	4	correct	0.395358544250485
88919	1	stim080_animate_insect_grasshopper_4.png	80	animate	insect	grasshopper	4	0	4	stars	4	correct	0.395358544250485
88969	1	stim102_inanimate_clothing_gloves_2.png	102	inanimate	clothing	gloves	2	0	4	stars	4	correct	0.395358544250485
89019	1	stim022_animate_bird_chicken_2.png	22	animate	bird	chicken	2	0	4	stars	4	correct	0.395358544250485
89069	1	stim119_inanimate_clothing_socks_3.png	119	inanimate	clothing	socks	3	0	4	stars	4	correct	0.395358544250485
89119	1	stim186_inanimate_tools_hammer_2.png	186	inanimate	tools	hammer	2	0	4	stars	4	correct	0.395358544250485
89169	1	stim021_animate_bird_chicken_1.png	21	animate	bird	chicken	1	0	4	stars	4	correct	0.395358544250485
89219	1	stim124_inanimate_fruits_apple_4.png	124	inanimate	fruits	apple	4	0	4	stars	4	correct	0.395358544250485
89269	1	stim061_animate_insect_ant_1.png	61	animate	insect	ant	1	0	4	stars	4	correct	0.395358544250485
89319	1	stim193_inanimate_tools_scissors_1.png	193	inanimate	tools	scissors	1	0	4	stars	4	correct	0.395358544250485
89369	1	stim066_animate_insect_bug_2.png	66	animate	insect	bug	2	0	4	stars	4	correct	0.395358544250485
89419	1	stim123_inanimate_fruits_apple_3.png	123	inanimate	fruits	apple	3	0	4	stars	4	correct	0.395358544250485
89469	1	stim024_animate_bird_chicken_4.png	24	animate	bird	chicken	4	0	4	stars	4	correct	0.395358544250485
89519	1	stim114_inanimate_clothing_shirt_2.png	114	inanimate	clothing	shirt	2	0	4	stars	4	correct	0.395358544250485
89569	1	stim109_inanimate_clothing_jeans_1.png	109	inanimate	clothing	jeans	1	0	4	stars	4	correct	0.395358544250485
89619	1	stim187_inanimate_tools_hammer_3.png	187	inanimate	tools	hammer	3	0	4	stars	4	correct	0.395358544250485
89669	1	stim038_animate_bird_penguin_2.png	38	animate	bird	penguin	2	0	4	stars	4	correct	0.395358544250485
89719	1	stim117_inanimate_clothing_socks_1.png	117	inanimate	clothing	socks	1	0	4	stars	4	correct	0.395358544250485
89769	1	stim211_targets_shapes_star_3.png	211	targets	shapes	star	3	1	4	stars	4	correct	0.395358544250485
89819	1	stim028_animate_bird_duck_4.png	28	animate	bird	duck	4	0	4	stars	4	correct	0.395358544250485
89869	1	stim180_inanimate_plants_tulip_4.png	180	inanimate	plants	tulip	4	0	4	stars	4	correct	0.395358544250485
89919	1	stim168_inanimate_plants_cactus_4.png	168	inanimate	plants	cactus	4	0	4	stars	4	correct	0.395358544250485
89969	1	stim013_animate_aquatic_shark_1.png	13	animate	aquatic	shark	1	0	4	stars	4	correct	0.395358544250485
90019	1	stim174_inanimate_plants_tree_2.png	174	inanimate	plants	tree	2	0	4	stars	4	correct	0.395358544250485
90069	1	stim019_animate_aquatic_shrimp_3.png	19	animate	aquatic	shrimp	3	0	4	stars	4	correct	0.395358544250485
90119	1	stim007_animate_aquatic_fish_3.png	7	animate	aquatic	fish	3	0	4	stars	4	correct	0.395358544250485
90169	1	stim151_inanimate_furniture_closet_3.png	151	inanimate	furniture	closet	3	0	4	stars	4	correct	0.395358544250485
90219	1	stim175_inanimate_plants_tree_3.png	175	inanimate	plants	tree	3	0	4	stars	4	correct	0.395358544250485
90269	1	stim091_animate_mammal_kangaroo_3.png	91	animate	mammal	kangaroo	3	0	4	stars	4	correct	0.395358544250485
90319	1	stim046_animate_human_child_2.png	46	animate	human	child	2	0	4	stars	4	correct	0.395358544250485
90369	1	stim104_inanimate_clothing_gloves_4.png	104	inanimate	clothing	gloves	4	0	4	stars	4	correct	0.395358544250485
90419	1	stim084_animate_mammal_cow_4.png	84	animate	mammal	cow	4	0	4	stars	4	correct	0.395358544250485
90469	1	stim183_inanimate_tools_broom_3.png	183	inanimate	tools	broom	3	0	4	stars	4	correct	0.395358544250485
90519	1	stim001_animate_aquatic_crab_1.png	1	animate	aquatic	crab	1	0	4	stars	4	correct	0.395358544250485
90569	1	stim018_animate_aquatic_shrimp_2.png	18	animate	aquatic	shrimp	2	0	4	stars	4	correct	0.395358544250485
90619	1	stim126_inanimate_fruits_banana_2.png	126	inanimate	fruits	banana	2	0	4	stars	4	correct	0.395358544250485
90669	1	stim210_targets_shapes_star_2.png	210	targets	shapes	star	2	1	4	stars	4	correct	0.395358544250485
90719	1	stim176_inanimate_plants_tree_4.png	176	inanimate	plants	tree	4	0	4	stars	4	correct	0.395358544250485
90769	1	stim073_animate_insect_dragonfly_1.png	73	animate	insect	dragonfly	1	0	4	stars	4	correct	0.395358544250485
90819	1	stim197_inanimate_tools_wrench_1.png	197	inanimate	tools	wrench	1	0	4	stars	4	correct	0.395358544250485
90869	1	stim002_animate_aquatic_crab_2.png	2	animate	aquatic	crab	2	0	4	stars	4	correct	0.395358544250485
90919	1	stim043_animate_human_baby_3.png	43	animate	human	baby	3	0	4	stars	4	correct	0.395358544250485
90969	1	stim170_inanimate_plants_sunflower_2.png	170	inanimate	plants	sunflower	2	0	4	stars	4	correct	0.395358544250485
91019	1	stim137_inanimate_fruits_strawberry_1.png	137	inanimate	fruits	strawberry	1	0	4	stars	4	correct	0.395358544250485
91069	1	stim089_animate_mammal_kangaroo_1.png	89	animate	mammal	kangaroo	1	0	4	stars	4	correct	0.395358544250485
91119	1	stim005_animate_aquatic_fish_1.png	5	animate	aquatic	fish	1	0	4	stars	4	correct	0.395358544250485
91169	1	stim131_inanimate_fruits_grape_3.png	131	inanimate	fruits	grape	3	0	4	stars	4	correct	0.395358544250485
91219	1	stim179_inanimate_plants_tulip_3.png	179	inanimate	plants	tulip	3	0	4	stars	4	correct	0.395358544250485
91269	1	stim157_inanimate_furniture_table_1.png	157	inanimate	furniture	table	1	0	4	stars	4	correct	0.395358544250485
91319	1	stim146_inanimate_furniture_chair_2.png	146	inanimate	furniture	chair	2	0	4	stars	4	correct	0.395358544250485
91369	1	stim138_inanimate_fruits_strawberry_2.png	138	inanimate	fruits	strawberry	2	0	4	stars	4	correct	0.395358544250485
91419	1	stim130_inanimate_fruits_grape_2.png	130	inanimate	fruits	grape	2	0	4	stars	4	correct	0.395358544250485
91469	1	stim083_animate_mammal_cow_3.png	83	animate	mammal	cow	3	0	4	stars	4	correct	0.395358544250485
91519	1	stim094_animate_mammal_monkey_2.png	94	animate	mammal	monkey	2	0	4	stars	4	correct	0.395358544250485
91569	1	stim052_animate_human_clown_4.png	52	animate	human	clown	4	0	4	stars	4	correct	0.395358544250485
91619	1	stim097_animate_mammal_rhino_1.png	97	animate	mammal	rhino	1	0	4	stars	4	correct	0.395358544250485
91669	1	stim129_inanimate_fruits_grape_1.png	129	inanimate	fruits	grape	1	0	4	stars	4	correct	0.395358544250485
91719	1	stim195_inanimate_tools_scissors_3.png	195	inanimate	tools	scissors	3	0	4	stars	4	correct	0.395358544250485
91769	1	stim012_animate_aquatic_seahorse_4.png	12	animate	aquatic	seahorse	4	0	4	stars	4	correct	0.395358544250485
91819	1	stim051_animate_human_clown_3.png	51	animate	human	clown	3	0	4	stars	4	correct	0.395358544250485
91869	1	stim141_inanimate_furniture_bed_1.png	141	inanimate	furniture	bed	1	0	4	stars	4	correct	0.395358544250485
91919	1	stim148_inanimate_furniture_chair_4.png	148	inanimate	furniture	chair	4	0	4	stars	4	correct	0.395358544250485
91969	1	stim045_animate_human_child_1.png	45	animate	human	child	1	0	4	stars	4	correct	0.395358544250485
92019	1	stim139_inanimate_fruits_strawberry_3.png	139	inanimate	fruits	strawberry	3	0	4	stars	4	correct	0.395358544250485
92069	1	stim090_animate_mammal_kangaroo_2.png	90	animate	mammal	kangaroo	2	0	4	stars	4	correct	0.395358544250485
92119	1	stim128_inanimate_fruits_banana_4.png	128	inanimate	fruits	banana	4	0	4	stars	4	correct	0.395358544250485
92169	1	stim040_animate_bird_penguin_4.png	40	animate	bird	penguin	4	0	4	stars	4	correct	0.395358544250485
92219	1	stim095_animate_mammal_monkey_3.png	95	animate	mammal	monkey	3	0	4	stars	4	correct	0.395358544250485
92269	1	stim006_animate_aquatic_fish_2.png	6	animate	aquatic	fish	2	0	4	stars	4	correct	0.395358544250485
92319	1	stim167_inanimate_plants_cactus_3.png	167	inanimate	plants	cactus	3	0	4	stars	4	correct	0.395358544250485
92369	1	stim014_animate_aquatic_shark_2.png	14	animate	aquatic	shark	2	0	4	stars	4	correct	0.395358544250485
92419	1	stim143_inanimate_furniture_bed_3.png	143	inanimate	furniture	bed	3	0	4	stars	4	correct	0.395358544250485
92469	1	stim120_inanimate_clothing_socks_4.png	120	inanimate	clothing	socks	4	0	4	stars	4	correct	0.395358544250485
92519	1	stim156_inanimate_furniture_sofa_4.png	156	inanimate	furniture	sofa	4	0	4	stars	4	correct	0.395358544250485
92569	1	stim041_animate_human_baby_1.png	41	animate	human	baby	1	0	4	stars	4	correct	0.395358544250485
92619	1	stim016_animate_aquatic_shark_4.png	16	animate	aquatic	shark	4	0	4	stars	4	correct	0.395358544250485
92669	1	stim162_inanimate_plants_bush_2.png	162	inanimate	plants	bush	2	0	4	stars	4	correct	0.395358544250485
92719	1	stim100_animate_mammal_rhino_4.png	100	animate	mammal	rhino	4	0	4	stars	4	correct	0.395358544250485
92769	1	stim039_animate_bird_penguin_3.png	39	animate	bird	penguin	3	0	4	stars	4	correct	0.395358544250485
92819	1	stim032_animate_bird_parrot_4.png	32	animate	bird	parrot	4	0	4	stars	4	correct	0.395358544250485
92869	1	stim057_animate_human_sports_1.png	57	animate	human	sports	1	0	4	stars	4	correct	0.395358544250485
92919	1	stim198_inanimate_tools_wrench_2.png	198	inanimate	tools	wrench	2	0	4	stars	4	correct	0.395358544250485
92969	1	stim158_inanimate_furniture_table_2.png	158	inanimate	furniture	table	2	0	4	stars	4	correct	0.395358544250485
93019	1	stim178_inanimate_plants_tulip_2.png	178	inanimate	plants	tulip	2	0	4	stars	4	correct	0.395358544250485
93069	1	stim055_animate_human_faces_3.png	55	animate	human	faces	3	0	4	stars	4	correct	0.395358544250485
93119	1	stim062_animate_insect_ant_2.png	62	animate	insect	ant	2	0	4	stars	4	correct	0.395358544250485
93169	1	stim074_animate_insect_dragonfly_2.png	74	animate	insect	dragonfly	2	0	4	stars	4	correct	0.395358544250485
93219	1	stim181_inanimate_tools_broom_1.png	181	inanimate	tools	broom	1	0	4	stars	4	correct	0.395358544250485
93269	1	stim153_inanimate_furniture_sofa_1.png	153	inanimate	furniture	sofa	1	0	4	stars	4	correct	0.395358544250485
93319	1	stim031_animate_bird_parrot_3.png	31	animate	bird	parrot	3	0	4	stars	4	correct	0.395358544250485
93369	1	stim082_animate_mammal_cow_2.png	82	animate	mammal	cow	2	0	4	stars	4	correct	0.395358544250485
93419	1	stim122_inanimate_fruits_apple_2.png	122	inanimate	fruits	apple	2	0	4	stars	4	correct	0.395358544250485
93469	1	stim144_inanimate_furniture_bed_4.png	144	inanimate	furniture	bed	4	0	4	stars	4	correct	0.395358544250485
93519	1	stim088_animate_mammal_giraffe_4.png	88	animate	mammal	giraffe	4	0	4	stars	4	correct	0.395358544250485
93569	1	stim112_inanimate_clothing_jeans_4.png	112	inanimate	clothing	jeans	4	0	4	stars	4	correct	0.395358544250485
93619	1	stim011_animate_aquatic_seahorse_3.png	11	animate	aquatic	seahorse	3	0	4	stars	4	correct	0.395358544250485
93670	1	stim072_animate_insect_butterfly_4.png	72	animate	insect	butterfly	4	0	4	stars	4	correct	0.395358544250485
93719	1	stim003_animate_aquatic_crab_3.png	3	animate	aquatic	crab	3	0	4	stars	4	correct	0.395358544250485
95903	1	stim073_animate_insect_dragonfly_1.png	73	animate	insect	dragonfly	1	0	5	stars	2	incorrect	1.1727684942889
95953	1	stim058_animate_human_sports_2.png	58	animate	human	sports	2	0	5	stars	2	incorrect	1.1727684942889
96003	1	stim050_animate_human_clown_2.png	50	animate	human	clown	2	0	5	stars	2	incorrect	1.1727684942889
96053	1	stim023_animate_bird_chicken_3.png	23	animate	bird	chicken	3	0	5	stars	2	incorrect	1.1727684942889
96103	1	stim162_inanimate_plants_bush_2.png	162	inanimate	plants	bush	2	0	5	stars	2	incorrect	1.1727684942889
96153	1	stim130_inanimate_fruits_grape_2.png	130	inanimate	fruits	grape	2	0	5	stars	2	incorrect	1.1727684942889
96203	1	stim136_inanimate_fruits_pineapple_4.png	136	inanimate	fruits	pineapple	4	0	5	stars	2	incorrect	1.1727684942889
96253	1	stim160_inanimate_furniture_table_4.png	160	inanimate	furniture	table	4	0	5	stars	2	incorrect	1.1727684942889
96303	1	stim101_inanimate_clothing_gloves_1.png	101	inanimate	clothing	gloves	1	0	5	stars	2	incorrect	1.1727684942889
96353	1	stim031_animate_bird_parrot_3.png	31	animate	bird	parrot	3	0	5	stars	2	incorrect	1.1727684942889
96403	1	stim055_animate_human_faces_3.png	55	animate	human	faces	3	0	5	stars	2	incorrect	1.1727684942889
96453	1	stim175_inanimate_plants_tree_3.png	175	inanimate	plants	tree	3	0	5	stars	2	incorrect	1.1727684942889
96503	1	stim178_inanimate_plants_tulip_2.png	178	inanimate	plants	tulip	2	0	5	stars	2	incorrect	1.1727684942889
96553	1	stim131_inanimate_fruits_grape_3.png	131	inanimate	fruits	grape	3	0	5	stars	2	incorrect	1.1727684942889
96603	1	stim024_animate_bird_chicken_4.png	24	animate	bird	chicken	4	0	5	stars	2	incorrect	1.1727684942889
96653	1	stim015_animate_aquatic_shark_3.png	15	animate	aquatic	shark	3	0	5	stars	2	incorrect	1.1727684942889
96703	1	stim128_inanimate_fruits_banana_4.png	128	inanimate	fruits	banana	4	0	5	stars	2	incorrect	1.1727684942889
96753	1	stim011_animate_aquatic_seahorse_3.png	11	animate	aquatic	seahorse	3	0	5	stars	2	incorrect	1.1727684942889
96803	1	stim003_animate_aquatic_crab_3.png	3	animate	aquatic	crab	3	0	5	stars	2	incorrect	1.1727684942889
96853	1	stim088_animate_mammal_giraffe_4.png	88	animate	mammal	giraffe	4	0	5	stars	2	incorrect	1.1727684942889
96903	1	stim016_animate_aquatic_shark_4.png	16	animate	aquatic	shark	4	0	5	stars	2	incorrect	1.1727684942889
96953	1	stim117_inanimate_clothing_socks_1.png	117	inanimate	clothing	socks	1	0	5	stars	2	incorrect	1.1727684942889
97003	1	stim112_inanimate_clothing_jeans_4.png	112	inanimate	clothing	jeans	4	0	5	stars	2	incorrect	1.1727684942889
97053	1	stim004_animate_aquatic_crab_4.png	4	animate	aquatic	crab	4	0	5	stars	2	incorrect	1.1727684942889
97103	1	stim196_inanimate_tools_scissors_4.png	196	inanimate	tools	scissors	4	0	5	stars	2	incorrect	1.1727684942889
97153	1	stim109_inanimate_clothing_jeans_1.png	109	inanimate	clothing	jeans	1	0	5	stars	2	incorrect	1.1727684942889
97203	1	stim108_inanimate_clothing_hat_4.png	108	inanimate	clothing	hat	4	0	5	stars	2	incorrect	1.1727684942889
97253	1	stim129_inanimate_fruits_grape_1.png	129	inanimate	fruits	grape	1	0	5	stars	2	incorrect	1.1727684942889
97303	1	stim156_inanimate_furniture_sofa_4.png	156	inanimate	furniture	sofa	4	0	5	stars	2	incorrect	1.1727684942889
97353	1	stim032_animate_bird_parrot_4.png	32	animate	bird	parrot	4	0	5	stars	2	incorrect	1.1727684942889
97403	1	stim105_inanimate_clothing_hat_1.png	105	inanimate	clothing	hat	1	0	5	stars	2	incorrect	1.1727684942889
97453	1	stim139_inanimate_fruits_strawberry_3.png	139	inanimate	fruits	strawberry	3	0	5	stars	2	incorrect	1.1727684942889
97503	1	stim200_inanimate_tools_wrench_4.png	200	inanimate	tools	wrench	4	0	5	stars	2	incorrect	1.1727684942889
97553	1	stim157_inanimate_furniture_table_1.png	157	inanimate	furniture	table	1	0	5	stars	2	incorrect	1.1727684942889
97603	1	stim154_inanimate_furniture_sofa_2.png	154	inanimate	furniture	sofa	2	0	5	stars	2	incorrect	1.1727684942889
97653	1	stim100_animate_mammal_rhino_4.png	100	animate	mammal	rhino	4	0	5	stars	2	incorrect	1.1727684942889
97703	1	stim174_inanimate_plants_tree_2.png	174	inanimate	plants	tree	2	0	5	stars	2	incorrect	1.1727684942889
97753	1	stim121_inanimate_fruits_apple_1.png	121	inanimate	fruits	apple	1	0	5	stars	2	incorrect	1.1727684942889
97803	1	stim147_inanimate_furniture_chair_3.png	147	inanimate	furniture	chair	3	0	5	stars	2	incorrect	1.1727684942889
97853	1	stim116_inanimate_clothing_shirt_4.png	116	inanimate	clothing	shirt	4	0	5	stars	2	incorrect	1.1727684942889
97903	1	stim132_inanimate_fruits_grape_4.png	132	inanimate	fruits	grape	4	0	5	stars	2	incorrect	1.1727684942889
97953	1	stim047_animate_human_child_3.png	47	animate	human	child	3	0	5	stars	2	incorrect	1.1727684942889
98003	1	stim177_inanimate_plants_tulip_1.png	177	inanimate	plants	tulip	1	0	5	stars	2	incorrect	1.1727684942889
98053	1	stim083_animate_mammal_cow_3.png	83	animate	mammal	cow	3	0	5	stars	2	incorrect	1.1727684942889
98103	1	stim163_inanimate_plants_bush_3.png	163	inanimate	plants	bush	3	0	5	stars	2	incorrect	1.1727684942889
98153	1	stim145_inanimate_furniture_chair_1.png	145	inanimate	furniture	chair	1	0	5	stars	2	incorrect	1.1727684942889
98203	1	stim151_inanimate_furniture_closet_3.png	151	inanimate	furniture	closet	3	0	5	stars	2	incorrect	1.1727684942889
98253	1	stim027_animate_bird_duck_3.png	27	animate	bird	duck	3	0	5	stars	2	incorrect	1.1727684942889
98303	1	stim181_inanimate_tools_broom_1.png	181	inanimate	tools	broom	1	0	5	stars	2	incorrect	1.1727684942889
98353	1	stim123_inanimate_fruits_apple_3.png	123	inanimate	fruits	apple	3	0	5	stars	2	incorrect	1.1727684942889
98403	1	stim054_animate_human_faces_2.png	54	animate	human	faces	2	0	5	stars	2	incorrect	1.1727684942889
98453	1	stim060_animate_human_sports_4.png	60	animate	human	sports	4	0	5	stars	2	incorrect	1.1727684942889
98503	1	stim103_inanimate_clothing_gloves_3.png	103	inanimate	clothing	gloves	3	0	5	stars	2	incorrect	1.1727684942889
98553	1	stim005_animate_aquatic_fish_1.png	5	animate	aquatic	fish	1	0	5	stars	2	incorrect	1.1727684942889
98603	1	stim152_inanimate_furniture_closet_4.png	152	inanimate	furniture	closet	4	0	5	stars	2	incorrect	1.1727684942889
98653	1	stim142_inanimate_furniture_bed_2.png	142	inanimate	furniture	bed	2	0	5	stars	2	incorrect	1.1727684942889
98703	1	stim170_inanimate_plants_sunflower_2.png	170	inanimate	plants	sunflower	2	0	5	stars	2	incorrect	1.1727684942889
98753	1	stim099_animate_mammal_rhino_3.png	99	animate	mammal	rhino	3	0	5	stars	2	incorrect	1.1727684942889
98803	1	stim126_inanimate_fruits_banana_2.png	126	inanimate	fruits	banana	2	0	5	stars	2	incorrect	1.1727684942889
98853	1	stim102_inanimate_clothing_gloves_2.png	102	inanimate	clothing	gloves	2	0	5	stars	2	incorrect	1.1727684942889
98903	1	stim041_animate_human_baby_1.png	41	animate	human	baby	1	0	5	stars	2	incorrect	1.1727684942889
98953	1	stim167_inanimate_plants_cactus_3.png	167	inanimate	plants	cactus	3	0	5	stars	2	incorrect	1.1727684942889
99003	1	stim150_inanimate_furniture_closet_2.png	150	inanimate	furniture	closet	2	0	5	stars	2	incorrect	1.1727684942889
99053	1	stim079_animate_insect_grasshopper_3.png	79	animate	insect	grasshopper	3	0	5	stars	2	incorrect	1.1727684942889
99103	1	stim114_inanimate_clothing_shirt_2.png	114	inanimate	clothing	shirt	2	0	5	stars	2	incorrect	1.1727684942889
99153	1	stim141_inanimate_furniture_bed_1.png	141	inanimate	furniture	bed	1	0	5	stars	2	incorrect	1.1727684942889
99203	1	stim111_inanimate_clothing_jeans_3.png	111	inanimate	clothing	jeans	3	0	5	stars	2	incorrect	1.1727684942889
99253	1	stim113_inanimate_clothing_shirt_1.png	113	inanimate	clothing	shirt	1	0	5	stars	2	incorrect	1.1727684942889
99303	1	stim062_animate_insect_ant_2.png	62	animate	insect	ant	2	0	5	stars	2	incorrect	1.1727684942889
99353	1	stim044_animate_human_baby_4.png	44	animate	human	baby	4	0	5	stars	2	incorrect	1.1727684942889
99403	1	stim143_inanimate_furniture_bed_3.png	143	inanimate	furniture	bed	3	0	5	stars	2	incorrect	1.1727684942889
99453	1	stim135_inanimate_fruits_pineapple_3.png	135	inanimate	fruits	pineapple	3	0	5	stars	2	incorrect	1.1727684942889
99503	1	stim187_inanimate_tools_hammer_3.png	187	inanimate	tools	hammer	3	0	5	stars	2	incorrect	1.1727684942889
99553	1	stim158_inanimate_furniture_table_2.png	158	inanimate	furniture	table	2	0	5	stars	2	incorrect	1.1727684942889
99603	1	stim042_animate_human_baby_2.png	42	animate	human	baby	2	0	5	stars	2	incorrect	1.1727684942889
99653	1	stim021_animate_bird_chicken_1.png	21	animate	bird	chicken	1	0	5	stars	2	incorrect	1.1727684942889
99703	1	stim164_inanimate_plants_bush_4.png	164	inanimate	plants	bush	4	0	5	stars	2	incorrect	1.1727684942889
99753	1	stim064_animate_insect_ant_4.png	64	animate	insect	ant	4	0	5	stars	2	incorrect	1.1727684942889
99803	1	stim122_inanimate_fruits_apple_2.png	122	inanimate	fruits	apple	2	0	5	stars	2	incorrect	1.1727684942889
99853	1	stim001_animate_aquatic_crab_1.png	1	animate	aquatic	crab	1	0	5	stars	2	incorrect	1.1727684942889
99903	1	stim008_animate_aquatic_fish_4.png	8	animate	aquatic	fish	4	0	5	stars	2	incorrect	1.1727684942889
99953	1	stim067_animate_insect_bug_3.png	67	animate	insect	bug	3	0	5	stars	2	incorrect	1.1727684942889
