onset	duration	stimulusname	stimulusnumber	levelA	levelB	levelC	withinexemplarnumber	istarget	trialnumber	condition	response	correct	rt
62989	1	stim126_inanimate_fruits_banana_2.png	126	inanimate	fruits	banana	2	0	1	boats	4	correct	1.12134385970421
63189	1	stim190_inanimate_tools_pan_2.png	190	inanimate	tools	pan	2	0	1	boats	4	correct	1.12134385970421
63389	1	stim038_animate_bird_penguin_2.png	38	animate	bird	penguin	2	0	1	boats	4	correct	1.12134385970421
63589	1	stim070_animate_insect_butterfly_2.png	70	animate	insect	butterfly	2	0	1	boats	4	correct	1.12134385970421
63790	1	stim046_animate_human_child_2.png	46	animate	human	child	2	0	1	boats	4	correct	1.12134385970421
63989	1	stim171_inanimate_plants_sunflower_3.png	171	inanimate	plants	sunflower	3	0	1	boats	4	correct	1.12134385970421
64189	1	stim091_animate_mammal_kangaroo_3.png	91	animate	mammal	kangaroo	3	0	1	boats	4	correct	1.12134385970421
64389	1	stim198_inanimate_tools_wrench_2.png	198	inanimate	tools	wrench	2	0	1	boats	4	correct	1.12134385970421
64589	1	stim169_inanimate_plants_sunflower_1.png	169	inanimate	plants	sunflower	1	0	1	boats	4	correct	1.12134385970421
64789	1	stim018_animate_aquatic_shrimp_2.png	18	animate	aquatic	shrimp	2	0	1	boats	4	correct	1.12134385970421
64989	1	stim090_animate_mammal_kangaroo_2.png	90	animate	mammal	kangaroo	2	0	1	boats	4	correct	1.12134385970421
65189	1	stim088_animate_mammal_giraffe_4.png	88	animate	mammal	giraffe	4	0	1	boats	4	correct	1.12134385970421
65389	1	stim044_animate_human_baby_4.png	44	animate	human	baby	4	0	1	boats	4	correct	1.12134385970421
65589	1	stim196_inanimate_tools_scissors_4.png	196	inanimate	tools	scissors	4	0	1	boats	4	correct	1.12134385970421
65789	1	stim025_animate_bird_duck_1.png	25	animate	bird	duck	1	0	1	boats	4	correct	1.12134385970421
65989	1	stim148_inanimate_furniture_chair_4.png	148	inanimate	furniture	chair	4	0	1	boats	4	correct	1.12134385970421
66189	1	stim158_inanimate_furniture_table_2.png	158	inanimate	furniture	table	2	0	1	boats	4	correct	1.12134385970421
66389	1	stim069_animate_insect_butterfly_1.png	69	animate	insect	butterfly	1	0	1	boats	4	correct	1.12134385970421
66590	1	stim081_animate_mammal_cow_1.png	81	animate	mammal	cow	1	0	1	boats	4	correct	1.12134385970421
66789	1	stim063_animate_insect_ant_3.png	63	animate	insect	ant	3	0	1	boats	4	correct	1.12134385970421
66989	1	stim103_inanimate_clothing_gloves_3.png	103	inanimate	clothing	gloves	3	0	1	boats	4	correct	1.12134385970421
67189	1	stim031_animate_bird_parrot_3.png	31	animate	bird	parrot	3	0	1	boats	4	correct	1.12134385970421
67389	1	stim019_animate_aquatic_shrimp_3.png	19	animate	aquatic	shrimp	3	0	1	boats	4	correct	1.12134385970421
67589	1	stim009_animate_aquatic_seahorse_1.png	9	animate	aquatic	seahorse	1	0	1	boats	4	correct	1.12134385970421
67789	1	stim185_inanimate_tools_hammer_1.png	185	inanimate	tools	hammer	1	0	1	boats	4	correct	1.12134385970421
67989	1	stim114_inanimate_clothing_shirt_2.png	114	inanimate	clothing	shirt	2	0	1	boats	4	correct	1.12134385970421
68189	1	stim097_animate_mammal_rhino_1.png	97	animate	mammal	rhino	1	0	1	boats	4	correct	1.12134385970421
68389	1	stim027_animate_bird_duck_3.png	27	animate	bird	duck	3	0	1	boats	4	correct	1.12134385970421
68589	1	stim085_animate_mammal_giraffe_1.png	85	animate	mammal	giraffe	1	0	1	boats	4	correct	1.12134385970421
68789	1	stim016_animate_aquatic_shark_4.png	16	animate	aquatic	shark	4	0	1	boats	4	correct	1.12134385970421
68989	1	stim008_animate_aquatic_fish_4.png	8	animate	aquatic	fish	4	0	1	boats	4	correct	1.12134385970421
69189	1	stim130_inanimate_fruits_grape_2.png	130	inanimate	fruits	grape	2	0	1	boats	4	correct	1.12134385970421
69389	1	stim194_inanimate_tools_scissors_2.png	194	inanimate	tools	scissors	2	0	1	boats	4	correct	1.12134385970421
69589	1	stim053_animate_human_faces_1.png	53	animate	human	faces	1	0	1	boats	4	correct	1.12134385970421
69789	1	stim072_animate_insect_butterfly_4.png	72	animate	insect	butterfly	4	0	1	boats	4	correct	1.12134385970421
69989	1	stim128_inanimate_fruits_banana_4.png	128	inanimate	fruits	banana	4	0	1	boats	4	correct	1.12134385970421
70189	1	stim132_inanimate_fruits_grape_4.png	132	inanimate	fruits	grape	4	0	1	boats	4	correct	1.12134385970421
70389	1	stim057_animate_human_sports_1.png	57	animate	human	sports	1	0	1	boats	4	correct	1.12134385970421
70589	1	stim003_animate_aquatic_crab_3.png	3	animate	aquatic	crab	3	0	1	boats	4	correct	1.12134385970421
70789	1	stim141_inanimate_furniture_bed_1.png	141	inanimate	furniture	bed	1	0	1	boats	4	correct	1.12134385970421
70989	1	stim200_inanimate_tools_wrench_4.png	200	inanimate	tools	wrench	4	0	1	boats	4	correct	1.12134385970421
71189	1	stim054_animate_human_faces_2.png	54	animate	human	faces	2	0	1	boats	4	correct	1.12134385970421
71389	1	stim160_inanimate_furniture_table_4.png	160	inanimate	furniture	table	4	0	1	boats	4	correct	1.12134385970421
71589	1	stim098_animate_mammal_rhino_2.png	98	animate	mammal	rhino	2	0	1	boats	4	correct	1.12134385970421
71789	1	stim120_inanimate_clothing_socks_4.png	120	inanimate	clothing	socks	4	0	1	boats	4	correct	1.12134385970421
71989	1	stim117_inanimate_clothing_socks_1.png	117	inanimate	clothing	socks	1	0	1	boats	4	correct	1.12134385970421
72189	1	stim051_animate_human_clown_3.png	51	animate	human	clown	3	0	1	boats	4	correct	1.12134385970421
72389	1	stim060_animate_human_sports_4.png	60	animate	human	sports	4	0	1	boats	4	correct	1.12134385970421
72589	1	stim156_inanimate_furniture_sofa_4.png	156	inanimate	furniture	sofa	4	0	1	boats	4	correct	1.12134385970421
72789	1	stim084_animate_mammal_cow_4.png	84	animate	mammal	cow	4	0	1	boats	4	correct	1.12134385970421
72989	1	stim032_animate_bird_parrot_4.png	32	animate	bird	parrot	4	0	1	boats	4	correct	1.12134385970421
73189	1	stim133_inanimate_fruits_pineapple_1.png	133	inanimate	fruits	pineapple	1	0	1	boats	4	correct	1.12134385970421
73389	1	stim127_inanimate_fruits_banana_3.png	127	inanimate	fruits	banana	3	0	1	boats	4	correct	1.12134385970421
73589	1	stim184_inanimate_tools_broom_4.png	184	inanimate	tools	broom	4	0	1	boats	4	correct	1.12134385970421
73789	1	stim203_targets_object_boats_3.png	203	targets	object	boats	3	1	1	boats	4	correct	1.12134385970421
73989	1	stim092_animate_mammal_kangaroo_4.png	92	animate	mammal	kangaroo	4	0	1	boats	4	correct	1.12134385970421
74189	1	stim077_animate_insect_grasshopper_1.png	77	animate	insect	grasshopper	1	0	1	boats	4	correct	1.12134385970421
74389	1	stim024_animate_bird_chicken_4.png	24	animate	bird	chicken	4	0	1	boats	4	correct	1.12134385970421
74589	1	stim096_animate_mammal_monkey_4.png	96	animate	mammal	monkey	4	0	1	boats	4	correct	1.12134385970421
74789	1	stim062_animate_insect_ant_2.png	62	animate	insect	ant	2	0	1	boats	4	correct	1.12134385970421
74989	1	stim022_animate_bird_chicken_2.png	22	animate	bird	chicken	2	0	1	boats	4	correct	1.12134385970421
75190	1	stim094_animate_mammal_monkey_2.png	94	animate	mammal	monkey	2	0	1	boats	4	correct	1.12134385970421
75390	1	stim175_inanimate_plants_tree_3.png	175	inanimate	plants	tree	3	0	1	boats	4	correct	1.12134385970421
75590	1	stim073_animate_insect_dragonfly_1.png	73	animate	insect	dragonfly	1	0	1	boats	4	correct	1.12134385970421
75790	1	stim061_animate_insect_ant_1.png	61	animate	insect	ant	1	0	1	boats	4	correct	1.12134385970421
75990	1	stim083_animate_mammal_cow_3.png	83	animate	mammal	cow	3	0	1	boats	4	correct	1.12134385970421
76190	1	stim189_inanimate_tools_pan_1.png	189	inanimate	tools	pan	1	0	1	boats	4	correct	1.12134385970421
76390	1	stim017_animate_aquatic_shrimp_1.png	17	animate	aquatic	shrimp	1	0	1	boats	4	correct	1.12134385970421
76590	1	stim002_animate_aquatic_crab_2.png	2	animate	aquatic	crab	2	0	1	boats	4	correct	1.12134385970421
76790	1	stim035_animate_bird_peacock_3.png	35	animate	bird	peacock	3	0	1	boats	4	correct	1.12134385970421
76990	1	stim135_inanimate_fruits_pineapple_3.png	135	inanimate	fruits	pineapple	3	0	1	boats	4	correct	1.12134385970421
77190	1	stim199_inanimate_tools_wrench_3.png	199	inanimate	tools	wrench	3	0	1	boats	4	correct	1.12134385970421
77390	1	stim056_animate_human_faces_4.png	56	animate	human	faces	4	0	1	boats	4	correct	1.12134385970421
77590	1	stim113_inanimate_clothing_shirt_1.png	113	inanimate	clothing	shirt	1	0	1	boats	4	correct	1.12134385970421
77790	1	stim187_inanimate_tools_hammer_3.png	187	inanimate	tools	hammer	3	0	1	boats	4	correct	1.12134385970421
77990	1	stim047_animate_human_child_3.png	47	animate	human	child	3	0	1	boats	4	correct	1.12134385970421
78190	1	stim166_inanimate_plants_cactus_2.png	166	inanimate	plants	cactus	2	0	1	boats	4	correct	1.12134385970421
78390	1	stim142_inanimate_furniture_bed_2.png	142	inanimate	furniture	bed	2	0	1	boats	4	correct	1.12134385970421
78590	1	stim154_inanimate_furniture_sofa_2.png	154	inanimate	furniture	sofa	2	0	1	boats	4	correct	1.12134385970421
78790	1	stim004_animate_aquatic_crab_4.png	4	animate	aquatic	crab	4	0	1	boats	4	correct	1.12134385970421
78990	1	stim010_animate_aquatic_seahorse_2.png	10	animate	aquatic	seahorse	2	0	1	boats	4	correct	1.12134385970421
79190	1	stim164_inanimate_plants_bush_4.png	164	inanimate	plants	bush	4	0	1	boats	4	correct	1.12134385970421
79390	1	stim182_inanimate_tools_broom_2.png	182	inanimate	tools	broom	2	0	1	boats	4	correct	1.12134385970421
79590	1	stim150_inanimate_furniture_closet_2.png	150	inanimate	furniture	closet	2	0	1	boats	4	correct	1.12134385970421
79790	1	stim109_inanimate_clothing_jeans_1.png	109	inanimate	clothing	jeans	1	0	1	boats	4	correct	1.12134385970421
79990	1	stim086_animate_mammal_giraffe_2.png	86	animate	mammal	giraffe	2	0	1	boats	4	correct	1.12134385970421
80190	1	stim177_inanimate_plants_tulip_1.png	177	inanimate	plants	tulip	1	0	1	boats	4	correct	1.12134385970421
80390	1	stim048_animate_human_child_4.png	48	animate	human	child	4	0	1	boats	4	correct	1.12134385970421
80590	1	stim172_inanimate_plants_sunflower_4.png	172	inanimate	plants	sunflower	4	0	1	boats	4	correct	1.12134385970421
80790	1	stim202_targets_object_boats_2.png	202	targets	object	boats	2	1	1	boats	4	correct	1.12134385970421
80990	1	stim066_animate_insect_bug_2.png	66	animate	insect	bug	2	0	1	boats	4	correct	1.12134385970421
81190	1	stim108_inanimate_clothing_hat_4.png	108	inanimate	clothing	hat	4	0	1	boats	4	correct	1.12134385970421
81390	1	stim079_animate_insect_grasshopper_3.png	79	animate	insect	grasshopper	3	0	1	boats	4	correct	1.12134385970421
81590	1	stim116_inanimate_clothing_shirt_4.png	116	inanimate	clothing	shirt	4	0	1	boats	4	correct	1.12134385970421
81790	1	stim147_inanimate_furniture_chair_3.png	147	inanimate	furniture	chair	3	0	1	boats	4	correct	1.12134385970421
81990	1	stim121_inanimate_fruits_apple_1.png	121	inanimate	fruits	apple	1	0	1	boats	4	correct	1.12134385970421
82190	1	stim058_animate_human_sports_2.png	58	animate	human	sports	2	0	1	boats	4	correct	1.12134385970421
82390	1	stim181_inanimate_tools_broom_1.png	181	inanimate	tools	broom	1	0	1	boats	4	correct	1.12134385970421
82590	1	stim014_animate_aquatic_shark_2.png	14	animate	aquatic	shark	2	0	1	boats	4	correct	1.12134385970421
82790	1	stim076_animate_insect_dragonfly_4.png	76	animate	insect	dragonfly	4	0	1	boats	4	correct	1.12134385970421
82990	1	stim068_animate_insect_bug_4.png	68	animate	insect	bug	4	0	1	boats	4	correct	1.12134385970421
83190	1	stim138_inanimate_fruits_strawberry_2.png	138	inanimate	fruits	strawberry	2	0	1	boats	4	correct	1.12134385970421
83390	1	stim111_inanimate_clothing_jeans_3.png	111	inanimate	clothing	jeans	3	0	1	boats	4	correct	1.12134385970421
83590	1	stim140_inanimate_fruits_strawberry_4.png	140	inanimate	fruits	strawberry	4	0	1	boats	4	correct	1.12134385970421
83790	1	stim013_animate_aquatic_shark_1.png	13	animate	aquatic	shark	1	0	1	boats	4	correct	1.12134385970421
83990	1	stim041_animate_human_baby_1.png	41	animate	human	baby	1	0	1	boats	4	correct	1.12134385970421
84190	1	stim162_inanimate_plants_bush_2.png	162	inanimate	plants	bush	2	0	1	boats	4	correct	1.12134385970421
84390	1	stim174_inanimate_plants_tree_2.png	174	inanimate	plants	tree	2	0	1	boats	4	correct	1.12134385970421
84590	1	stim137_inanimate_fruits_strawberry_1.png	137	inanimate	fruits	strawberry	1	0	1	boats	4	correct	1.12134385970421
84790	1	stim078_animate_insect_grasshopper_2.png	78	animate	insect	grasshopper	2	0	1	boats	4	correct	1.12134385970421
84990	1	stim100_animate_mammal_rhino_4.png	100	animate	mammal	rhino	4	0	1	boats	4	correct	1.12134385970421
85190	1	stim207_targets_object_boats_3.png	207	targets	object	boats	3	1	1	boats	4	correct	1.12134385970421
85390	1	stim173_inanimate_plants_tree_1.png	173	inanimate	plants	tree	1	0	1	boats	4	correct	1.12134385970421
85590	1	stim191_inanimate_tools_pan_3.png	191	inanimate	tools	pan	3	0	1	boats	4	correct	1.12134385970421
85790	1	stim049_animate_human_clown_1.png	49	animate	human	clown	1	0	1	boats	4	correct	1.12134385970421
85990	1	stim006_animate_aquatic_fish_2.png	6	animate	aquatic	fish	2	0	1	boats	4	correct	1.12134385970421
86190	1	stim050_animate_human_clown_2.png	50	animate	human	clown	2	0	1	boats	4	correct	1.12134385970421
86390	1	stim095_animate_mammal_monkey_3.png	95	animate	mammal	monkey	3	0	1	boats	4	correct	1.12134385970421
86590	1	stim105_inanimate_clothing_hat_1.png	105	inanimate	clothing	hat	1	0	1	boats	4	correct	1.12134385970421
86790	1	stim089_animate_mammal_kangaroo_1.png	89	animate	mammal	kangaroo	1	0	1	boats	4	correct	1.12134385970421
86990	1	stim071_animate_insect_butterfly_3.png	71	animate	insect	butterfly	3	0	1	boats	4	correct	1.12134385970421
87190	1	stim074_animate_insect_dragonfly_2.png	74	animate	insect	dragonfly	2	0	1	boats	4	correct	1.12134385970421
87390	1	stim012_animate_aquatic_seahorse_4.png	12	animate	aquatic	seahorse	4	0	1	boats	4	correct	1.12134385970421
87590	1	stim122_inanimate_fruits_apple_2.png	122	inanimate	fruits	apple	2	0	1	boats	4	correct	1.12134385970421
87790	1	stim106_inanimate_clothing_hat_2.png	106	inanimate	clothing	hat	2	0	1	boats	4	correct	1.12134385970421
87990	1	stim005_animate_aquatic_fish_1.png	5	animate	aquatic	fish	1	0	1	boats	4	correct	1.12134385970421
88190	1	stim052_animate_human_clown_4.png	52	animate	human	clown	4	0	1	boats	4	correct	1.12134385970421
88390	1	stim119_inanimate_clothing_socks_3.png	119	inanimate	clothing	socks	3	0	1	boats	4	correct	1.12134385970421
88590	1	stim139_inanimate_fruits_strawberry_3.png	139	inanimate	fruits	strawberry	3	0	1	boats	4	correct	1.12134385970421
88790	1	stim104_inanimate_clothing_gloves_4.png	104	inanimate	clothing	gloves	4	0	1	boats	4	correct	1.12134385970421
88990	1	stim178_inanimate_plants_tulip_2.png	178	inanimate	plants	tulip	2	0	1	boats	4	correct	1.12134385970421
89190	1	stim007_animate_aquatic_fish_3.png	7	animate	aquatic	fish	3	0	1	boats	4	correct	1.12134385970421
89390	1	stim080_animate_insect_grasshopper_4.png	80	animate	insect	grasshopper	4	0	1	boats	4	correct	1.12134385970421
89590	1	stim082_animate_mammal_cow_2.png	82	animate	mammal	cow	2	0	1	boats	4	correct	1.12134385970421
89790	1	stim129_inanimate_fruits_grape_1.png	129	inanimate	fruits	grape	1	0	1	boats	4	correct	1.12134385970421
89990	1	stim037_animate_bird_penguin_1.png	37	animate	bird	penguin	1	0	1	boats	4	correct	1.12134385970421
90190	1	stim188_inanimate_tools_hammer_4.png	188	inanimate	tools	hammer	4	0	1	boats	4	correct	1.12134385970421
90390	1	stim157_inanimate_furniture_table_1.png	157	inanimate	furniture	table	1	0	1	boats	4	correct	1.12134385970421
90590	1	stim034_animate_bird_peacock_2.png	34	animate	bird	peacock	2	0	1	boats	4	correct	1.12134385970421
90790	1	stim168_inanimate_plants_cactus_4.png	168	inanimate	plants	cactus	4	0	1	boats	4	correct	1.12134385970421
90990	1	stim152_inanimate_furniture_closet_4.png	152	inanimate	furniture	closet	4	0	1	boats	4	correct	1.12134385970421
91190	1	stim015_animate_aquatic_shark_3.png	15	animate	aquatic	shark	3	0	1	boats	4	correct	1.12134385970421
91390	1	stim112_inanimate_clothing_jeans_4.png	112	inanimate	clothing	jeans	4	0	1	boats	4	correct	1.12134385970421
91590	1	stim064_animate_insect_ant_4.png	64	animate	insect	ant	4	0	1	boats	4	correct	1.12134385970421
91790	1	stim030_animate_bird_parrot_2.png	30	animate	bird	parrot	2	0	1	boats	4	correct	1.12134385970421
91990	1	stim159_inanimate_furniture_table_3.png	159	inanimate	furniture	table	3	0	1	boats	4	correct	1.12134385970421
92190	1	stim026_animate_bird_duck_2.png	26	animate	bird	duck	2	0	1	boats	4	correct	1.12134385970421
92390	1	stim149_inanimate_furniture_closet_1.png	149	inanimate	furniture	closet	1	0	1	boats	4	correct	1.12134385970421
92590	1	stim134_inanimate_fruits_pineapple_2.png	134	inanimate	fruits	pineapple	2	0	1	boats	4	correct	1.12134385970421
92790	1	stim143_inanimate_furniture_bed_3.png	143	inanimate	furniture	bed	3	0	1	boats	4	correct	1.12134385970421
92990	1	stim179_inanimate_plants_tulip_3.png	179	inanimate	plants	tulip	3	0	1	boats	4	correct	1.12134385970421
93190	1	stim155_inanimate_furniture_sofa_3.png	155	inanimate	furniture	sofa	3	0	1	boats	4	correct	1.12134385970421
93390	1	stim205_targets_object_boats_1.png	205	targets	object	boats	1	1	1	boats	4	correct	1.12134385970421
93590	1	stim197_inanimate_tools_wrench_1.png	197	inanimate	tools	wrench	1	0	1	boats	4	correct	1.12134385970421
93790	1	stim167_inanimate_plants_cactus_3.png	167	inanimate	plants	cactus	3	0	1	boats	4	correct	1.12134385970421
93990	1	stim170_inanimate_plants_sunflower_2.png	170	inanimate	plants	sunflower	2	0	1	boats	4	correct	1.12134385970421
94190	1	stim101_inanimate_clothing_gloves_1.png	101	inanimate	clothing	gloves	1	0	1	boats	4	correct	1.12134385970421
94390	1	stim125_inanimate_fruits_banana_1.png	125	inanimate	fruits	banana	1	0	1	boats	4	correct	1.12134385970421
94590	1	stim136_inanimate_fruits_pineapple_4.png	136	inanimate	fruits	pineapple	4	0	1	boats	4	correct	1.12134385970421
94790	1	stim075_animate_insect_dragonfly_3.png	75	animate	insect	dragonfly	3	0	1	boats	4	correct	1.12134385970421
94990	1	stim110_inanimate_clothing_jeans_2.png	110	inanimate	clothing	jeans	2	0	1	boats	4	correct	1.12134385970421
95190	1	stim107_inanimate_clothing_hat_3.png	107	inanimate	clothing	hat	3	0	1	boats	4	correct	1.12134385970421
95390	1	stim146_inanimate_furniture_chair_2.png	146	inanimate	furniture	chair	2	0	1	boats	4	correct	1.12134385970421
95590	1	stim195_inanimate_tools_scissors_3.png	195	inanimate	tools	scissors	3	0	1	boats	4	correct	1.12134385970421
95790	1	stim115_inanimate_clothing_shirt_3.png	115	inanimate	clothing	shirt	3	0	1	boats	4	correct	1.12134385970421
95990	1	stim144_inanimate_furniture_bed_4.png	144	inanimate	furniture	bed	4	0	1	boats	4	correct	1.12134385970421
96190	1	stim102_inanimate_clothing_gloves_2.png	102	inanimate	clothing	gloves	2	0	1	boats	4	correct	1.12134385970421
96390	1	stim131_inanimate_fruits_grape_3.png	131	inanimate	fruits	grape	3	0	1	boats	4	correct	1.12134385970421
96590	1	stim165_inanimate_plants_cactus_1.png	165	inanimate	plants	cactus	1	0	1	boats	4	correct	1.12134385970421
96790	1	stim020_animate_aquatic_shrimp_4.png	20	animate	aquatic	shrimp	4	0	1	boats	4	correct	1.12134385970421
96990	1	stim011_animate_aquatic_seahorse_3.png	11	animate	aquatic	seahorse	3	0	1	boats	4	correct	1.12134385970421
97190	1	stim029_animate_bird_parrot_1.png	29	animate	bird	parrot	1	0	1	boats	4	correct	1.12134385970421
97390	1	stim099_animate_mammal_rhino_3.png	99	animate	mammal	rhino	3	0	1	boats	4	correct	1.12134385970421
97590	1	stim192_inanimate_tools_pan_4.png	192	inanimate	tools	pan	4	0	1	boats	4	correct	1.12134385970421
97790	1	stim036_animate_bird_peacock_4.png	36	animate	bird	peacock	4	0	1	boats	4	correct	1.12134385970421
97990	1	stim145_inanimate_furniture_chair_1.png	145	inanimate	furniture	chair	1	0	1	boats	4	correct	1.12134385970421
98190	1	stim153_inanimate_furniture_sofa_1.png	153	inanimate	furniture	sofa	1	0	1	boats	4	correct	1.12134385970421
98390	1	stim001_animate_aquatic_crab_1.png	1	animate	aquatic	crab	1	0	1	boats	4	correct	1.12134385970421
98590	1	stim028_animate_bird_duck_4.png	28	animate	bird	duck	4	0	1	boats	4	correct	1.12134385970421
98790	1	stim055_animate_human_faces_3.png	55	animate	human	faces	3	0	1	boats	4	correct	1.12134385970421
98990	1	stim059_animate_human_sports_3.png	59	animate	human	sports	3	0	1	boats	4	correct	1.12134385970421
99190	1	stim021_animate_bird_chicken_1.png	21	animate	bird	chicken	1	0	1	boats	4	correct	1.12134385970421
99390	1	stim039_animate_bird_penguin_3.png	39	animate	bird	penguin	3	0	1	boats	4	correct	1.12134385970421
99590	1	stim065_animate_insect_bug_1.png	65	animate	insect	bug	1	0	1	boats	4	correct	1.12134385970421
99790	1	stim176_inanimate_plants_tree_4.png	176	inanimate	plants	tree	4	0	1	boats	4	correct	1.12134385970421
99990	1	stim163_inanimate_plants_bush_3.png	163	inanimate	plants	bush	3	0	1	boats	4	correct	1.12134385970421
100190	1	stim186_inanimate_tools_hammer_2.png	186	inanimate	tools	hammer	2	0	1	boats	4	correct	1.12134385970421
100390	1	stim180_inanimate_plants_tulip_4.png	180	inanimate	plants	tulip	4	0	1	boats	4	correct	1.12134385970421
100590	1	stim087_animate_mammal_giraffe_3.png	87	animate	mammal	giraffe	3	0	1	boats	4	correct	1.12134385970421
100790	1	stim183_inanimate_tools_broom_3.png	183	inanimate	tools	broom	3	0	1	boats	4	correct	1.12134385970421
100990	1	stim124_inanimate_fruits_apple_4.png	124	inanimate	fruits	apple	4	0	1	boats	4	correct	1.12134385970421
101190	1	stim118_inanimate_clothing_socks_2.png	118	inanimate	clothing	socks	2	0	1	boats	4	correct	1.12134385970421
101390	1	stim023_animate_bird_chicken_3.png	23	animate	bird	chicken	3	0	1	boats	4	correct	1.12134385970421
101590	1	stim042_animate_human_baby_2.png	42	animate	human	baby	2	0	1	boats	4	correct	1.12134385970421
101790	1	stim123_inanimate_fruits_apple_3.png	123	inanimate	fruits	apple	3	0	1	boats	4	correct	1.12134385970421
101990	1	stim161_inanimate_plants_bush_1.png	161	inanimate	plants	bush	1	0	1	boats	4	correct	1.12134385970421
102190	1	stim045_animate_human_child_1.png	45	animate	human	child	1	0	1	boats	4	correct	1.12134385970421
102390	1	stim043_animate_human_baby_3.png	43	animate	human	baby	3	0	1	boats	4	correct	1.12134385970421
102590	1	stim151_inanimate_furniture_closet_3.png	151	inanimate	furniture	closet	3	0	1	boats	4	correct	1.12134385970421
102790	1	stim093_animate_mammal_monkey_1.png	93	animate	mammal	monkey	1	0	1	boats	4	correct	1.12134385970421
102990	1	stim040_animate_bird_penguin_4.png	40	animate	bird	penguin	4	0	1	boats	4	correct	1.12134385970421
103190	1	stim193_inanimate_tools_scissors_1.png	193	inanimate	tools	scissors	1	0	1	boats	4	correct	1.12134385970421
103390	1	stim067_animate_insect_bug_3.png	67	animate	insect	bug	3	0	1	boats	4	correct	1.12134385970421
103590	1	stim033_animate_bird_peacock_1.png	33	animate	bird	peacock	1	0	1	boats	4	correct	1.12134385970421
111157	1	stim145_inanimate_furniture_chair_1.png	145	inanimate	furniture	chair	1	0	2	boats	1	correct	0.885034446837381
111357	1	stim125_inanimate_fruits_banana_1.png	125	inanimate	fruits	banana	1	0	2	boats	1	correct	0.885034446837381
111557	1	stim030_animate_bird_parrot_2.png	30	animate	bird	parrot	2	0	2	boats	1	correct	0.885034446837381
111757	1	stim019_animate_aquatic_shrimp_3.png	19	animate	aquatic	shrimp	3	0	2	boats	1	correct	0.885034446837381
111957	1	stim079_animate_insect_grasshopper_3.png	79	animate	insect	grasshopper	3	0	2	boats	1	correct	0.885034446837381
112157	1	stim155_inanimate_furniture_sofa_3.png	155	inanimate	furniture	sofa	3	0	2	boats	1	correct	0.885034446837381
112357	1	stim139_inanimate_fruits_strawberry_3.png	139	inanimate	fruits	strawberry	3	0	2	boats	1	correct	0.885034446837381
112557	1	stim035_animate_bird_peacock_3.png	35	animate	bird	peacock	3	0	2	boats	1	correct	0.885034446837381
112757	1	stim198_inanimate_tools_wrench_2.png	198	inanimate	tools	wrench	2	0	2	boats	1	correct	0.885034446837381
112957	1	stim146_inanimate_furniture_chair_2.png	146	inanimate	furniture	chair	2	0	2	boats	1	correct	0.885034446837381
113157	1	stim088_animate_mammal_giraffe_4.png	88	animate	mammal	giraffe	4	0	2	boats	1	correct	0.885034446837381
113357	1	stim069_animate_insect_butterfly_1.png	69	animate	insect	butterfly	1	0	2	boats	1	correct	0.885034446837381
113557	1	stim018_animate_aquatic_shrimp_2.png	18	animate	aquatic	shrimp	2	0	2	boats	1	correct	0.885034446837381
113757	1	stim087_animate_mammal_giraffe_3.png	87	animate	mammal	giraffe	3	0	2	boats	1	correct	0.885034446837381
113957	1	stim021_animate_bird_chicken_1.png	21	animate	bird	chicken	1	0	2	boats	1	correct	0.885034446837381
114157	1	stim133_inanimate_fruits_pineapple_1.png	133	inanimate	fruits	pineapple	1	0	2	boats	1	correct	0.885034446837381
114357	1	stim070_animate_insect_butterfly_2.png	70	animate	insect	butterfly	2	0	2	boats	1	correct	0.885034446837381
114557	1	stim039_animate_bird_penguin_3.png	39	animate	bird	penguin	3	0	2	boats	1	correct	0.885034446837381
114757	1	stim093_animate_mammal_monkey_1.png	93	animate	mammal	monkey	1	0	2	boats	1	correct	0.885034446837381
114957	1	stim058_animate_human_sports_2.png	58	animate	human	sports	2	0	2	boats	1	correct	0.885034446837381
115157	1	stim110_inanimate_clothing_jeans_2.png	110	inanimate	clothing	jeans	2	0	2	boats	1	correct	0.885034446837381
115357	1	stim099_animate_mammal_rhino_3.png	99	animate	mammal	rhino	3	0	2	boats	1	correct	0.885034446837381
115557	1	stim095_animate_mammal_monkey_3.png	95	animate	mammal	monkey	3	0	2	boats	1	correct	0.885034446837381
115757	1	stim083_animate_mammal_cow_3.png	83	animate	mammal	cow	3	0	2	boats	1	correct	0.885034446837381
115957	1	stim167_inanimate_plants_cactus_3.png	167	inanimate	plants	cactus	3	0	2	boats	1	correct	0.885034446837381
116157	1	stim016_animate_aquatic_shark_4.png	16	animate	aquatic	shark	4	0	2	boats	1	correct	0.885034446837381
116357	1	stim138_inanimate_fruits_strawberry_2.png	138	inanimate	fruits	strawberry	2	0	2	boats	1	correct	0.885034446837381
116557	1	stim179_inanimate_plants_tulip_3.png	179	inanimate	plants	tulip	3	0	2	boats	1	correct	0.885034446837381
116757	1	stim085_animate_mammal_giraffe_1.png	85	animate	mammal	giraffe	1	0	2	boats	1	correct	0.885034446837381
116957	1	stim051_animate_human_clown_3.png	51	animate	human	clown	3	0	2	boats	1	correct	0.885034446837381
117157	1	stim107_inanimate_clothing_hat_3.png	107	inanimate	clothing	hat	3	0	2	boats	1	correct	0.885034446837381
117357	1	stim157_inanimate_furniture_table_1.png	157	inanimate	furniture	table	1	0	2	boats	1	correct	0.885034446837381
117557	1	stim024_animate_bird_chicken_4.png	24	animate	bird	chicken	4	0	2	boats	1	correct	0.885034446837381
117757	1	stim032_animate_bird_parrot_4.png	32	animate	bird	parrot	4	0	2	boats	1	correct	0.885034446837381
117957	1	stim119_inanimate_clothing_socks_3.png	119	inanimate	clothing	socks	3	0	2	boats	1	correct	0.885034446837381
118157	1	stim060_animate_human_sports_4.png	60	animate	human	sports	4	0	2	boats	1	correct	0.885034446837381
118357	1	stim142_inanimate_furniture_bed_2.png	142	inanimate	furniture	bed	2	0	2	boats	1	correct	0.885034446837381
118557	1	stim043_animate_human_baby_3.png	43	animate	human	baby	3	0	2	boats	1	correct	0.885034446837381
118757	1	stim149_inanimate_furniture_closet_1.png	149	inanimate	furniture	closet	1	0	2	boats	1	correct	0.885034446837381
118957	1	stim150_inanimate_furniture_closet_2.png	150	inanimate	furniture	closet	2	0	2	boats	1	correct	0.885034446837381
119157	1	stim090_animate_mammal_kangaroo_2.png	90	animate	mammal	kangaroo	2	0	2	boats	1	correct	0.885034446837381
119357	1	stim175_inanimate_plants_tree_3.png	175	inanimate	plants	tree	3	0	2	boats	1	correct	0.885034446837381
119557	1	stim190_inanimate_tools_pan_2.png	190	inanimate	tools	pan	2	0	2	boats	1	correct	0.885034446837381
119757	1	stim101_inanimate_clothing_gloves_1.png	101	inanimate	clothing	gloves	1	0	2	boats	1	correct	0.885034446837381
119957	1	stim082_animate_mammal_cow_2.png	82	animate	mammal	cow	2	0	2	boats	1	correct	0.885034446837381
120157	1	stim158_inanimate_furniture_table_2.png	158	inanimate	furniture	table	2	0	2	boats	1	correct	0.885034446837381
120357	1	stim108_inanimate_clothing_hat_4.png	108	inanimate	clothing	hat	4	0	2	boats	1	correct	0.885034446837381
120557	1	stim037_animate_bird_penguin_1.png	37	animate	bird	penguin	1	0	2	boats	1	correct	0.885034446837381
120757	1	stim072_animate_insect_butterfly_4.png	72	animate	insect	butterfly	4	0	2	boats	1	correct	0.885034446837381
120957	1	stim115_inanimate_clothing_shirt_3.png	115	inanimate	clothing	shirt	3	0	2	boats	1	correct	0.885034446837381
121157	1	stim052_animate_human_clown_4.png	52	animate	human	clown	4	0	2	boats	1	correct	0.885034446837381
121357	1	stim128_inanimate_fruits_banana_4.png	128	inanimate	fruits	banana	4	0	2	boats	1	correct	0.885034446837381
121557	1	stim162_inanimate_plants_bush_2.png	162	inanimate	plants	bush	2	0	2	boats	1	correct	0.885034446837381
121757	1	stim076_animate_insect_dragonfly_4.png	76	animate	insect	dragonfly	4	0	2	boats	1	correct	0.885034446837381
121957	1	stim184_inanimate_tools_broom_4.png	184	inanimate	tools	broom	4	0	2	boats	1	correct	0.885034446837381
122157	1	stim012_animate_aquatic_seahorse_4.png	12	animate	aquatic	seahorse	4	0	2	boats	1	correct	0.885034446837381
122357	1	stim169_inanimate_plants_sunflower_1.png	169	inanimate	plants	sunflower	1	0	2	boats	1	correct	0.885034446837381
122557	1	stim137_inanimate_fruits_strawberry_1.png	137	inanimate	fruits	strawberry	1	0	2	boats	1	correct	0.885034446837381
122757	1	stim121_inanimate_fruits_apple_1.png	121	inanimate	fruits	apple	1	0	2	boats	1	correct	0.885034446837381
122957	1	stim078_animate_insect_grasshopper_2.png	78	animate	insect	grasshopper	2	0	2	boats	1	correct	0.885034446837381
123157	1	stim126_inanimate_fruits_banana_2.png	126	inanimate	fruits	banana	2	0	2	boats	1	correct	0.885034446837381
123357	1	stim011_animate_aquatic_seahorse_3.png	11	animate	aquatic	seahorse	3	0	2	boats	1	correct	0.885034446837381
123557	1	stim170_inanimate_plants_sunflower_2.png	170	inanimate	plants	sunflower	2	0	2	boats	1	correct	0.885034446837381
123757	1	stim193_inanimate_tools_scissors_1.png	193	inanimate	tools	scissors	1	0	2	boats	1	correct	0.885034446837381
123957	1	stim152_inanimate_furniture_closet_4.png	152	inanimate	furniture	closet	4	0	2	boats	1	correct	0.885034446837381
124157	1	stim165_inanimate_plants_cactus_1.png	165	inanimate	plants	cactus	1	0	2	boats	1	correct	0.885034446837381
124357	1	stim091_animate_mammal_kangaroo_3.png	91	animate	mammal	kangaroo	3	0	2	boats	1	correct	0.885034446837381
124557	1	stim017_animate_aquatic_shrimp_1.png	17	animate	aquatic	shrimp	1	0	2	boats	1	correct	0.885034446837381
124757	1	stim177_inanimate_plants_tulip_1.png	177	inanimate	plants	tulip	1	0	2	boats	1	correct	0.885034446837381
124957	1	stim026_animate_bird_duck_2.png	26	animate	bird	duck	2	0	2	boats	1	correct	0.885034446837381
125157	1	stim013_animate_aquatic_shark_1.png	13	animate	aquatic	shark	1	0	2	boats	1	correct	0.885034446837381
125357	1	stim186_inanimate_tools_hammer_2.png	186	inanimate	tools	hammer	2	0	2	boats	1	correct	0.885034446837381
125557	1	stim197_inanimate_tools_wrench_1.png	197	inanimate	tools	wrench	1	0	2	boats	1	correct	0.885034446837381
125757	1	stim086_animate_mammal_giraffe_2.png	86	animate	mammal	giraffe	2	0	2	boats	1	correct	0.885034446837381
125957	1	stim174_inanimate_plants_tree_2.png	174	inanimate	plants	tree	2	0	2	boats	1	correct	0.885034446837381
126157	1	stim010_animate_aquatic_seahorse_2.png	10	animate	aquatic	seahorse	2	0	2	boats	1	correct	0.885034446837381
126357	1	stim200_inanimate_tools_wrench_4.png	200	inanimate	tools	wrench	4	0	2	boats	1	correct	0.885034446837381
126557	1	stim173_inanimate_plants_tree_1.png	173	inanimate	plants	tree	1	0	2	boats	1	correct	0.885034446837381
126757	1	stim029_animate_bird_parrot_1.png	29	animate	bird	parrot	1	0	2	boats	1	correct	0.885034446837381
126957	1	stim084_animate_mammal_cow_4.png	84	animate	mammal	cow	4	0	2	boats	1	correct	0.885034446837381
127157	1	stim189_inanimate_tools_pan_1.png	189	inanimate	tools	pan	1	0	2	boats	1	correct	0.885034446837381
127357	1	stim057_animate_human_sports_1.png	57	animate	human	sports	1	0	2	boats	1	correct	0.885034446837381
127557	1	stim002_animate_aquatic_crab_2.png	2	animate	aquatic	crab	2	0	2	boats	1	correct	0.885034446837381
127757	1	stim080_animate_insect_grasshopper_4.png	80	animate	insect	grasshopper	4	0	2	boats	1	correct	0.885034446837381
127957	1	stim135_inanimate_fruits_pineapple_3.png	135	inanimate	fruits	pineapple	3	0	2	boats	1	correct	0.885034446837381
128157	1	stim068_animate_insect_bug_4.png	68	animate	insect	bug	4	0	2	boats	1	correct	0.885034446837381
128357	1	stim027_animate_bird_duck_3.png	27	animate	bird	duck	3	0	2	boats	1	correct	0.885034446837381
128557	1	stim103_inanimate_clothing_gloves_3.png	103	inanimate	clothing	gloves	3	0	2	boats	1	correct	0.885034446837381
128757	1	stim075_animate_insect_dragonfly_3.png	75	animate	insect	dragonfly	3	0	2	boats	1	correct	0.885034446837381
128957	1	stim129_inanimate_fruits_grape_1.png	129	inanimate	fruits	grape	1	0	2	boats	1	correct	0.885034446837381
129157	1	stim097_animate_mammal_rhino_1.png	97	animate	mammal	rhino	1	0	2	boats	1	correct	0.885034446837381
129357	1	stim005_animate_aquatic_fish_1.png	5	animate	aquatic	fish	1	0	2	boats	1	correct	0.885034446837381
129557	1	stim014_animate_aquatic_shark_2.png	14	animate	aquatic	shark	2	0	2	boats	1	correct	0.885034446837381
129757	1	stim065_animate_insect_bug_1.png	65	animate	insect	bug	1	0	2	boats	1	correct	0.885034446837381
129957	1	stim045_animate_human_child_1.png	45	animate	human	child	1	0	2	boats	1	correct	0.885034446837381
130157	1	stim134_inanimate_fruits_pineapple_2.png	134	inanimate	fruits	pineapple	2	0	2	boats	1	correct	0.885034446837381
130357	1	stim001_animate_aquatic_crab_1.png	1	animate	aquatic	crab	1	0	2	boats	1	correct	0.885034446837381
130557	1	stim156_inanimate_furniture_sofa_4.png	156	inanimate	furniture	sofa	4	0	2	boats	1	correct	0.885034446837381
130757	1	stim007_animate_aquatic_fish_3.png	7	animate	aquatic	fish	3	0	2	boats	1	correct	0.885034446837381
130957	1	stim053_animate_human_faces_1.png	53	animate	human	faces	1	0	2	boats	1	correct	0.885034446837381
131157	1	stim168_inanimate_plants_cactus_4.png	168	inanimate	plants	cactus	4	0	2	boats	1	correct	0.885034446837381
131357	1	stim207_targets_object_boats_3.png	207	targets	object	boats	3	1	2	boats	1	correct	0.885034446837381
131557	1	stim159_inanimate_furniture_table_3.png	159	inanimate	furniture	table	3	0	2	boats	1	correct	0.885034446837381
131757	1	stim132_inanimate_fruits_grape_4.png	132	inanimate	fruits	grape	4	0	2	boats	1	correct	0.885034446837381
131957	1	stim106_inanimate_clothing_hat_2.png	106	inanimate	clothing	hat	2	0	2	boats	1	correct	0.885034446837381
132157	1	stim116_inanimate_clothing_shirt_4.png	116	inanimate	clothing	shirt	4	0	2	boats	1	correct	0.885034446837381
132357	1	stim096_animate_mammal_monkey_4.png	96	animate	mammal	monkey	4	0	2	boats	1	correct	0.885034446837381
132557	1	stim112_inanimate_clothing_jeans_4.png	112	inanimate	clothing	jeans	4	0	2	boats	1	correct	0.885034446837381
132757	1	stim105_inanimate_clothing_hat_1.png	105	inanimate	clothing	hat	1	0	2	boats	1	correct	0.885034446837381
132957	1	stim023_animate_bird_chicken_3.png	23	animate	bird	chicken	3	0	2	boats	1	correct	0.885034446837381
133157	1	stim141_inanimate_furniture_bed_1.png	141	inanimate	furniture	bed	1	0	2	boats	1	correct	0.885034446837381
133357	1	stim059_animate_human_sports_3.png	59	animate	human	sports	3	0	2	boats	1	correct	0.885034446837381
133558	1	stim034_animate_bird_peacock_2.png	34	animate	bird	peacock	2	0	2	boats	1	correct	0.885034446837381
133758	1	stim036_animate_bird_peacock_4.png	36	animate	bird	peacock	4	0	2	boats	1	correct	0.885034446837381
133958	1	stim054_animate_human_faces_2.png	54	animate	human	faces	2	0	2	boats	1	correct	0.885034446837381
134158	1	stim123_inanimate_fruits_apple_3.png	123	inanimate	fruits	apple	3	0	2	boats	1	correct	0.885034446837381
134358	1	stim148_inanimate_furniture_chair_4.png	148	inanimate	furniture	chair	4	0	2	boats	1	correct	0.885034446837381
134558	1	stim192_inanimate_tools_pan_4.png	192	inanimate	tools	pan	4	0	2	boats	1	correct	0.885034446837381
134758	1	stim081_animate_mammal_cow_1.png	81	animate	mammal	cow	1	0	2	boats	1	correct	0.885034446837381
134957	1	stim120_inanimate_clothing_socks_4.png	120	inanimate	clothing	socks	4	0	2	boats	1	correct	0.885034446837381
135158	1	stim046_animate_human_child_2.png	46	animate	human	child	2	0	2	boats	1	correct	0.885034446837381
135358	1	stim166_inanimate_plants_cactus_2.png	166	inanimate	plants	cactus	2	0	2	boats	1	correct	0.885034446837381
135558	1	stim151_inanimate_furniture_closet_3.png	151	inanimate	furniture	closet	3	0	2	boats	1	correct	0.885034446837381
135758	1	stim127_inanimate_fruits_banana_3.png	127	inanimate	fruits	banana	3	0	2	boats	1	correct	0.885034446837381
135958	1	stim100_animate_mammal_rhino_4.png	100	animate	mammal	rhino	4	0	2	boats	1	correct	0.885034446837381
136158	1	stim161_inanimate_plants_bush_1.png	161	inanimate	plants	bush	1	0	2	boats	1	correct	0.885034446837381
136358	1	stim040_animate_bird_penguin_4.png	40	animate	bird	penguin	4	0	2	boats	1	correct	0.885034446837381
136558	1	stim140_inanimate_fruits_strawberry_4.png	140	inanimate	fruits	strawberry	4	0	2	boats	1	correct	0.885034446837381
136758	1	stim061_animate_insect_ant_1.png	61	animate	insect	ant	1	0	2	boats	1	correct	0.885034446837381
136958	1	stim102_inanimate_clothing_gloves_2.png	102	inanimate	clothing	gloves	2	0	2	boats	1	correct	0.885034446837381
137158	1	stim176_inanimate_plants_tree_4.png	176	inanimate	plants	tree	4	0	2	boats	1	correct	0.885034446837381
137358	1	stim009_animate_aquatic_seahorse_1.png	9	animate	aquatic	seahorse	1	0	2	boats	1	correct	0.885034446837381
137558	1	stim092_animate_mammal_kangaroo_4.png	92	animate	mammal	kangaroo	4	0	2	boats	1	correct	0.885034446837381
137758	1	stim111_inanimate_clothing_jeans_3.png	111	inanimate	clothing	jeans	3	0	2	boats	1	correct	0.885034446837381
137958	1	stim098_animate_mammal_rhino_2.png	98	animate	mammal	rhino	2	0	2	boats	1	correct	0.885034446837381
138158	1	stim147_inanimate_furniture_chair_3.png	147	inanimate	furniture	chair	3	0	2	boats	1	correct	0.885034446837381
138358	1	stim094_animate_mammal_monkey_2.png	94	animate	mammal	monkey	2	0	2	boats	1	correct	0.885034446837381
138558	1	stim077_animate_insect_grasshopper_1.png	77	animate	insect	grasshopper	1	0	2	boats	1	correct	0.885034446837381
138758	1	stim191_inanimate_tools_pan_3.png	191	inanimate	tools	pan	3	0	2	boats	1	correct	0.885034446837381
138958	1	stim117_inanimate_clothing_socks_1.png	117	inanimate	clothing	socks	1	0	2	boats	1	correct	0.885034446837381
139158	1	stim056_animate_human_faces_4.png	56	animate	human	faces	4	0	2	boats	1	correct	0.885034446837381
139358	1	stim194_inanimate_tools_scissors_2.png	194	inanimate	tools	scissors	2	0	2	boats	1	correct	0.885034446837381
139558	1	stim195_inanimate_tools_scissors_3.png	195	inanimate	tools	scissors	3	0	2	boats	1	correct	0.885034446837381
139758	1	stim171_inanimate_plants_sunflower_3.png	171	inanimate	plants	sunflower	3	0	2	boats	1	correct	0.885034446837381
139958	1	stim187_inanimate_tools_hammer_3.png	187	inanimate	tools	hammer	3	0	2	boats	1	correct	0.885034446837381
140158	1	stim028_animate_bird_duck_4.png	28	animate	bird	duck	4	0	2	boats	1	correct	0.885034446837381
140358	1	stim113_inanimate_clothing_shirt_1.png	113	inanimate	clothing	shirt	1	0	2	boats	1	correct	0.885034446837381
140558	1	stim031_animate_bird_parrot_3.png	31	animate	bird	parrot	3	0	2	boats	1	correct	0.885034446837381
140758	1	stim144_inanimate_furniture_bed_4.png	144	inanimate	furniture	bed	4	0	2	boats	1	correct	0.885034446837381
140958	1	stim044_animate_human_baby_4.png	44	animate	human	baby	4	0	2	boats	1	correct	0.885034446837381
141158	1	stim196_inanimate_tools_scissors_4.png	196	inanimate	tools	scissors	4	0	2	boats	1	correct	0.885034446837381
141358	1	stim122_inanimate_fruits_apple_2.png	122	inanimate	fruits	apple	2	0	2	boats	1	correct	0.885034446837381
141558	1	stim136_inanimate_fruits_pineapple_4.png	136	inanimate	fruits	pineapple	4	0	2	boats	1	correct	0.885034446837381
141758	1	stim163_inanimate_plants_bush_3.png	163	inanimate	plants	bush	3	0	2	boats	1	correct	0.885034446837381
141958	1	stim041_animate_human_baby_1.png	41	animate	human	baby	1	0	2	boats	1	correct	0.885034446837381
142158	1	stim022_animate_bird_chicken_2.png	22	animate	bird	chicken	2	0	2	boats	1	correct	0.885034446837381
142358	1	stim188_inanimate_tools_hammer_4.png	188	inanimate	tools	hammer	4	0	2	boats	1	correct	0.885034446837381
142558	1	stim153_inanimate_furniture_sofa_1.png	153	inanimate	furniture	sofa	1	0	2	boats	1	correct	0.885034446837381
142758	1	stim109_inanimate_clothing_jeans_1.png	109	inanimate	clothing	jeans	1	0	2	boats	1	correct	0.885034446837381
142958	1	stim131_inanimate_fruits_grape_3.png	131	inanimate	fruits	grape	3	0	2	boats	1	correct	0.885034446837381
143158	1	stim089_animate_mammal_kangaroo_1.png	89	animate	mammal	kangaroo	1	0	2	boats	1	correct	0.885034446837381
143358	1	stim180_inanimate_plants_tulip_4.png	180	inanimate	plants	tulip	4	0	2	boats	1	correct	0.885034446837381
143558	1	stim172_inanimate_plants_sunflower_4.png	172	inanimate	plants	sunflower	4	0	2	boats	1	correct	0.885034446837381
143758	1	stim008_animate_aquatic_fish_4.png	8	animate	aquatic	fish	4	0	2	boats	1	correct	0.885034446837381
143958	1	stim064_animate_insect_ant_4.png	64	animate	insect	ant	4	0	2	boats	1	correct	0.885034446837381
144158	1	stim004_animate_aquatic_crab_4.png	4	animate	aquatic	crab	4	0	2	boats	1	correct	0.885034446837381
144358	1	stim143_inanimate_furniture_bed_3.png	143	inanimate	furniture	bed	3	0	2	boats	1	correct	0.885034446837381
144558	1	stim178_inanimate_plants_tulip_2.png	178	inanimate	plants	tulip	2	0	2	boats	1	correct	0.885034446837381
144758	1	stim050_animate_human_clown_2.png	50	animate	human	clown	2	0	2	boats	1	correct	0.885034446837381
144958	1	stim183_inanimate_tools_broom_3.png	183	inanimate	tools	broom	3	0	2	boats	1	correct	0.885034446837381
145158	1	stim063_animate_insect_ant_3.png	63	animate	insect	ant	3	0	2	boats	1	correct	0.885034446837381
145358	1	stim048_animate_human_child_4.png	48	animate	human	child	4	0	2	boats	1	correct	0.885034446837381
145558	1	stim160_inanimate_furniture_table_4.png	160	inanimate	furniture	table	4	0	2	boats	1	correct	0.885034446837381
145758	1	stim038_animate_bird_penguin_2.png	38	animate	bird	penguin	2	0	2	boats	1	correct	0.885034446837381
145958	1	stim181_inanimate_tools_broom_1.png	181	inanimate	tools	broom	1	0	2	boats	1	correct	0.885034446837381
146158	1	stim071_animate_insect_butterfly_3.png	71	animate	insect	butterfly	3	0	2	boats	1	correct	0.885034446837381
146358	1	stim114_inanimate_clothing_shirt_2.png	114	inanimate	clothing	shirt	2	0	2	boats	1	correct	0.885034446837381
146558	1	stim033_animate_bird_peacock_1.png	33	animate	bird	peacock	1	0	2	boats	1	correct	0.885034446837381
146758	1	stim118_inanimate_clothing_socks_2.png	118	inanimate	clothing	socks	2	0	2	boats	1	correct	0.885034446837381
146958	1	stim199_inanimate_tools_wrench_3.png	199	inanimate	tools	wrench	3	0	2	boats	1	correct	0.885034446837381
147158	1	stim062_animate_insect_ant_2.png	62	animate	insect	ant	2	0	2	boats	1	correct	0.885034446837381
147358	1	stim104_inanimate_clothing_gloves_4.png	104	inanimate	clothing	gloves	4	0	2	boats	1	correct	0.885034446837381
147558	1	stim154_inanimate_furniture_sofa_2.png	154	inanimate	furniture	sofa	2	0	2	boats	1	correct	0.885034446837381
147758	1	stim074_animate_insect_dragonfly_2.png	74	animate	insect	dragonfly	2	0	2	boats	1	correct	0.885034446837381
147958	1	stim055_animate_human_faces_3.png	55	animate	human	faces	3	0	2	boats	1	correct	0.885034446837381
148158	1	stim049_animate_human_clown_1.png	49	animate	human	clown	1	0	2	boats	1	correct	0.885034446837381
148358	1	stim067_animate_insect_bug_3.png	67	animate	insect	bug	3	0	2	boats	1	correct	0.885034446837381
148558	1	stim130_inanimate_fruits_grape_2.png	130	inanimate	fruits	grape	2	0	2	boats	1	correct	0.885034446837381
148758	1	stim073_animate_insect_dragonfly_1.png	73	animate	insect	dragonfly	1	0	2	boats	1	correct	0.885034446837381
148958	1	stim047_animate_human_child_3.png	47	animate	human	child	3	0	2	boats	1	correct	0.885034446837381
149158	1	stim020_animate_aquatic_shrimp_4.png	20	animate	aquatic	shrimp	4	0	2	boats	1	correct	0.885034446837381
149358	1	stim182_inanimate_tools_broom_2.png	182	inanimate	tools	broom	2	0	2	boats	1	correct	0.885034446837381
149558	1	stim185_inanimate_tools_hammer_1.png	185	inanimate	tools	hammer	1	0	2	boats	1	correct	0.885034446837381
149758	1	stim025_animate_bird_duck_1.png	25	animate	bird	duck	1	0	2	boats	1	correct	0.885034446837381
149958	1	stim066_animate_insect_bug_2.png	66	animate	insect	bug	2	0	2	boats	1	correct	0.885034446837381
150158	1	stim006_animate_aquatic_fish_2.png	6	animate	aquatic	fish	2	0	2	boats	1	correct	0.885034446837381
150358	1	stim164_inanimate_plants_bush_4.png	164	inanimate	plants	bush	4	0	2	boats	1	correct	0.885034446837381
150558	1	stim003_animate_aquatic_crab_3.png	3	animate	aquatic	crab	3	0	2	boats	1	correct	0.885034446837381
150758	1	stim042_animate_human_baby_2.png	42	animate	human	baby	2	0	2	boats	1	correct	0.885034446837381
150958	1	stim015_animate_aquatic_shark_3.png	15	animate	aquatic	shark	3	0	2	boats	1	correct	0.885034446837381
151158	1	stim124_inanimate_fruits_apple_4.png	124	inanimate	fruits	apple	4	0	2	boats	1	correct	0.885034446837381
163492	1	stim078_animate_insect_grasshopper_2.png	78	animate	insect	grasshopper	2	0	3	stars	1	correct	0.803430841770023
163692	1	stim116_inanimate_clothing_shirt_4.png	116	inanimate	clothing	shirt	4	0	3	stars	1	correct	0.803430841770023
163891	1	stim191_inanimate_tools_pan_3.png	191	inanimate	tools	pan	3	0	3	stars	1	correct	0.803430841770023
164092	1	stim115_inanimate_clothing_shirt_3.png	115	inanimate	clothing	shirt	3	0	3	stars	1	correct	0.803430841770023
164292	1	stim040_animate_bird_penguin_4.png	40	animate	bird	penguin	4	0	3	stars	1	correct	0.803430841770023
164492	1	stim176_inanimate_plants_tree_4.png	176	inanimate	plants	tree	4	0	3	stars	1	correct	0.803430841770023
164692	1	stim171_inanimate_plants_sunflower_3.png	171	inanimate	plants	sunflower	3	0	3	stars	1	correct	0.803430841770023
164892	1	stim075_animate_insect_dragonfly_3.png	75	animate	insect	dragonfly	3	0	3	stars	1	correct	0.803430841770023
165092	1	stim058_animate_human_sports_2.png	58	animate	human	sports	2	0	3	stars	1	correct	0.803430841770023
165292	1	stim068_animate_insect_bug_4.png	68	animate	insect	bug	4	0	3	stars	1	correct	0.803430841770023
165492	1	stim043_animate_human_baby_3.png	43	animate	human	baby	3	0	3	stars	1	correct	0.803430841770023
165692	1	stim041_animate_human_baby_1.png	41	animate	human	baby	1	0	3	stars	1	correct	0.803430841770023
165892	1	stim188_inanimate_tools_hammer_4.png	188	inanimate	tools	hammer	4	0	3	stars	1	correct	0.803430841770023
166092	1	stim062_animate_insect_ant_2.png	62	animate	insect	ant	2	0	3	stars	1	correct	0.803430841770023
166292	1	stim076_animate_insect_dragonfly_4.png	76	animate	insect	dragonfly	4	0	3	stars	1	correct	0.803430841770023
166492	1	stim112_inanimate_clothing_jeans_4.png	112	inanimate	clothing	jeans	4	0	3	stars	1	correct	0.803430841770023
166692	1	stim053_animate_human_faces_1.png	53	animate	human	faces	1	0	3	stars	1	correct	0.803430841770023
166892	1	stim167_inanimate_plants_cactus_3.png	167	inanimate	plants	cactus	3	0	3	stars	1	correct	0.803430841770023
167092	1	stim142_inanimate_furniture_bed_2.png	142	inanimate	furniture	bed	2	0	3	stars	1	correct	0.803430841770023
167292	1	stim048_animate_human_child_4.png	48	animate	human	child	4	0	3	stars	1	correct	0.803430841770023
167492	1	stim152_inanimate_furniture_closet_4.png	152	inanimate	furniture	closet	4	0	3	stars	1	correct	0.803430841770023
167692	1	stim054_animate_human_faces_2.png	54	animate	human	faces	2	0	3	stars	1	correct	0.803430841770023
167892	1	stim017_animate_aquatic_shrimp_1.png	17	animate	aquatic	shrimp	1	0	3	stars	1	correct	0.803430841770023
168092	1	stim127_inanimate_fruits_banana_3.png	127	inanimate	fruits	banana	3	0	3	stars	1	correct	0.803430841770023
168292	1	stim028_animate_bird_duck_4.png	28	animate	bird	duck	4	0	3	stars	1	correct	0.803430841770023
168492	1	stim172_inanimate_plants_sunflower_4.png	172	inanimate	plants	sunflower	4	0	3	stars	1	correct	0.803430841770023
168692	1	stim034_animate_bird_peacock_2.png	34	animate	bird	peacock	2	0	3	stars	1	correct	0.803430841770023
168892	1	stim120_inanimate_clothing_socks_4.png	120	inanimate	clothing	socks	4	0	3	stars	1	correct	0.803430841770023
169092	1	stim018_animate_aquatic_shrimp_2.png	18	animate	aquatic	shrimp	2	0	3	stars	1	correct	0.803430841770023
169292	1	stim114_inanimate_clothing_shirt_2.png	114	inanimate	clothing	shirt	2	0	3	stars	1	correct	0.803430841770023
169492	1	stim159_inanimate_furniture_table_3.png	159	inanimate	furniture	table	3	0	3	stars	1	correct	0.803430841770023
169692	1	stim179_inanimate_plants_tulip_3.png	179	inanimate	plants	tulip	3	0	3	stars	1	correct	0.803430841770023
169892	1	stim083_animate_mammal_cow_3.png	83	animate	mammal	cow	3	0	3	stars	1	correct	0.803430841770023
170092	1	stim074_animate_insect_dragonfly_2.png	74	animate	insect	dragonfly	2	0	3	stars	1	correct	0.803430841770023
170292	1	stim052_animate_human_clown_4.png	52	animate	human	clown	4	0	3	stars	1	correct	0.803430841770023
170492	1	stim131_inanimate_fruits_grape_3.png	131	inanimate	fruits	grape	3	0	3	stars	1	correct	0.803430841770023
170692	1	stim198_inanimate_tools_wrench_2.png	198	inanimate	tools	wrench	2	0	3	stars	1	correct	0.803430841770023
170892	1	stim175_inanimate_plants_tree_3.png	175	inanimate	plants	tree	3	0	3	stars	1	correct	0.803430841770023
171092	1	stim016_animate_aquatic_shark_4.png	16	animate	aquatic	shark	4	0	3	stars	1	correct	0.803430841770023
171292	1	stim027_animate_bird_duck_3.png	27	animate	bird	duck	3	0	3	stars	1	correct	0.803430841770023
171492	1	stim015_animate_aquatic_shark_3.png	15	animate	aquatic	shark	3	0	3	stars	1	correct	0.803430841770023
171692	1	stim067_animate_insect_bug_3.png	67	animate	insect	bug	3	0	3	stars	1	correct	0.803430841770023
171892	1	stim122_inanimate_fruits_apple_2.png	122	inanimate	fruits	apple	2	0	3	stars	1	correct	0.803430841770023
172092	1	stim095_animate_mammal_monkey_3.png	95	animate	mammal	monkey	3	0	3	stars	1	correct	0.803430841770023
172292	1	stim125_inanimate_fruits_banana_1.png	125	inanimate	fruits	banana	1	0	3	stars	1	correct	0.803430841770023
172492	1	stim082_animate_mammal_cow_2.png	82	animate	mammal	cow	2	0	3	stars	1	correct	0.803430841770023
172692	1	stim111_inanimate_clothing_jeans_3.png	111	inanimate	clothing	jeans	3	0	3	stars	1	correct	0.803430841770023
172892	1	stim055_animate_human_faces_3.png	55	animate	human	faces	3	0	3	stars	1	correct	0.803430841770023
173092	1	stim094_animate_mammal_monkey_2.png	94	animate	mammal	monkey	2	0	3	stars	1	correct	0.803430841770023
173292	1	stim136_inanimate_fruits_pineapple_4.png	136	inanimate	fruits	pineapple	4	0	3	stars	1	correct	0.803430841770023
173492	1	stim091_animate_mammal_kangaroo_3.png	91	animate	mammal	kangaroo	3	0	3	stars	1	correct	0.803430841770023
173692	1	stim153_inanimate_furniture_sofa_1.png	153	inanimate	furniture	sofa	1	0	3	stars	1	correct	0.803430841770023
173892	1	stim005_animate_aquatic_fish_1.png	5	animate	aquatic	fish	1	0	3	stars	1	correct	0.803430841770023
174092	1	stim101_inanimate_clothing_gloves_1.png	101	inanimate	clothing	gloves	1	0	3	stars	1	correct	0.803430841770023
174292	1	stim144_inanimate_furniture_bed_4.png	144	inanimate	furniture	bed	4	0	3	stars	1	correct	0.803430841770023
174492	1	stim019_animate_aquatic_shrimp_3.png	19	animate	aquatic	shrimp	3	0	3	stars	1	correct	0.803430841770023
174692	1	stim138_inanimate_fruits_strawberry_2.png	138	inanimate	fruits	strawberry	2	0	3	stars	1	correct	0.803430841770023
174892	1	stim013_animate_aquatic_shark_1.png	13	animate	aquatic	shark	1	0	3	stars	1	correct	0.803430841770023
175092	1	stim118_inanimate_clothing_socks_2.png	118	inanimate	clothing	socks	2	0	3	stars	1	correct	0.803430841770023
175292	1	stim143_inanimate_furniture_bed_3.png	143	inanimate	furniture	bed	3	0	3	stars	1	correct	0.803430841770023
175492	1	stim166_inanimate_plants_cactus_2.png	166	inanimate	plants	cactus	2	0	3	stars	1	correct	0.803430841770023
175692	1	stim133_inanimate_fruits_pineapple_1.png	133	inanimate	fruits	pineapple	1	0	3	stars	1	correct	0.803430841770023
175892	1	stim033_animate_bird_peacock_1.png	33	animate	bird	peacock	1	0	3	stars	1	correct	0.803430841770023
176092	1	stim148_inanimate_furniture_chair_4.png	148	inanimate	furniture	chair	4	0	3	stars	1	correct	0.803430841770023
176292	1	stim039_animate_bird_penguin_3.png	39	animate	bird	penguin	3	0	3	stars	1	correct	0.803430841770023
176492	1	stim150_inanimate_furniture_closet_2.png	150	inanimate	furniture	closet	2	0	3	stars	1	correct	0.803430841770023
176692	1	stim161_inanimate_plants_bush_1.png	161	inanimate	plants	bush	1	0	3	stars	1	correct	0.803430841770023
176892	1	stim135_inanimate_fruits_pineapple_3.png	135	inanimate	fruits	pineapple	3	0	3	stars	1	correct	0.803430841770023
177092	1	stim084_animate_mammal_cow_4.png	84	animate	mammal	cow	4	0	3	stars	1	correct	0.803430841770023
177292	1	stim088_animate_mammal_giraffe_4.png	88	animate	mammal	giraffe	4	0	3	stars	1	correct	0.803430841770023
177492	1	stim130_inanimate_fruits_grape_2.png	130	inanimate	fruits	grape	2	0	3	stars	1	correct	0.803430841770023
177692	1	stim010_animate_aquatic_seahorse_2.png	10	animate	aquatic	seahorse	2	0	3	stars	1	correct	0.803430841770023
177892	1	stim178_inanimate_plants_tulip_2.png	178	inanimate	plants	tulip	2	0	3	stars	1	correct	0.803430841770023
178092	1	stim104_inanimate_clothing_gloves_4.png	104	inanimate	clothing	gloves	4	0	3	stars	1	correct	0.803430841770023
178292	1	stim061_animate_insect_ant_1.png	61	animate	insect	ant	1	0	3	stars	1	correct	0.803430841770023
178492	1	stim168_inanimate_plants_cactus_4.png	168	inanimate	plants	cactus	4	0	3	stars	1	correct	0.803430841770023
178692	1	stim065_animate_insect_bug_1.png	65	animate	insect	bug	1	0	3	stars	1	correct	0.803430841770023
178892	1	stim087_animate_mammal_giraffe_3.png	87	animate	mammal	giraffe	3	0	3	stars	1	correct	0.803430841770023
179092	1	stim156_inanimate_furniture_sofa_4.png	156	inanimate	furniture	sofa	4	0	3	stars	1	correct	0.803430841770023
179292	1	stim072_animate_insect_butterfly_4.png	72	animate	insect	butterfly	4	0	3	stars	1	correct	0.803430841770023
179492	1	stim132_inanimate_fruits_grape_4.png	132	inanimate	fruits	grape	4	0	3	stars	1	correct	0.803430841770023
179692	1	stim051_animate_human_clown_3.png	51	animate	human	clown	3	0	3	stars	1	correct	0.803430841770023
179892	1	stim036_animate_bird_peacock_4.png	36	animate	bird	peacock	4	0	3	stars	1	correct	0.803430841770023
180092	1	stim189_inanimate_tools_pan_1.png	189	inanimate	tools	pan	1	0	3	stars	1	correct	0.803430841770023
180292	1	stim200_inanimate_tools_wrench_4.png	200	inanimate	tools	wrench	4	0	3	stars	1	correct	0.803430841770023
180492	1	stim023_animate_bird_chicken_3.png	23	animate	bird	chicken	3	0	3	stars	1	correct	0.803430841770023
180692	1	stim184_inanimate_tools_broom_4.png	184	inanimate	tools	broom	4	0	3	stars	1	correct	0.803430841770023
180892	1	stim109_inanimate_clothing_jeans_1.png	109	inanimate	clothing	jeans	1	0	3	stars	1	correct	0.803430841770023
181092	1	stim181_inanimate_tools_broom_1.png	181	inanimate	tools	broom	1	0	3	stars	1	correct	0.803430841770023
181292	1	stim145_inanimate_furniture_chair_1.png	145	inanimate	furniture	chair	1	0	3	stars	1	correct	0.803430841770023
181492	1	stim026_animate_bird_duck_2.png	26	animate	bird	duck	2	0	3	stars	1	correct	0.803430841770023
181692	1	stim073_animate_insect_dragonfly_1.png	73	animate	insect	dragonfly	1	0	3	stars	1	correct	0.803430841770023
181892	1	stim214_targets_shapes_star_2.png	214	targets	shapes	star	2	1	3	stars	1	correct	0.803430841770023
182092	1	stim107_inanimate_clothing_hat_3.png	107	inanimate	clothing	hat	3	0	3	stars	1	correct	0.803430841770023
182292	1	stim147_inanimate_furniture_chair_3.png	147	inanimate	furniture	chair	3	0	3	stars	1	correct	0.803430841770023
182492	1	stim173_inanimate_plants_tree_1.png	173	inanimate	plants	tree	1	0	3	stars	1	correct	0.803430841770023
182692	1	stim100_animate_mammal_rhino_4.png	100	animate	mammal	rhino	4	0	3	stars	1	correct	0.803430841770023
182892	1	stim121_inanimate_fruits_apple_1.png	121	inanimate	fruits	apple	1	0	3	stars	1	correct	0.803430841770023
183092	1	stim170_inanimate_plants_sunflower_2.png	170	inanimate	plants	sunflower	2	0	3	stars	1	correct	0.803430841770023
183292	1	stim164_inanimate_plants_bush_4.png	164	inanimate	plants	bush	4	0	3	stars	1	correct	0.803430841770023
183492	1	stim009_animate_aquatic_seahorse_1.png	9	animate	aquatic	seahorse	1	0	3	stars	1	correct	0.803430841770023
183692	1	stim069_animate_insect_butterfly_1.png	69	animate	insect	butterfly	1	0	3	stars	1	correct	0.803430841770023
183892	1	stim117_inanimate_clothing_socks_1.png	117	inanimate	clothing	socks	1	0	3	stars	1	correct	0.803430841770023
184092	1	stim070_animate_insect_butterfly_2.png	70	animate	insect	butterfly	2	0	3	stars	1	correct	0.803430841770023
184292	1	stim004_animate_aquatic_crab_4.png	4	animate	aquatic	crab	4	0	3	stars	1	correct	0.803430841770023
184492	1	stim008_animate_aquatic_fish_4.png	8	animate	aquatic	fish	4	0	3	stars	1	correct	0.803430841770023
184692	1	stim096_animate_mammal_monkey_4.png	96	animate	mammal	monkey	4	0	3	stars	1	correct	0.803430841770023
184892	1	stim035_animate_bird_peacock_3.png	35	animate	bird	peacock	3	0	3	stars	1	correct	0.803430841770023
185092	1	stim106_inanimate_clothing_hat_2.png	106	inanimate	clothing	hat	2	0	3	stars	1	correct	0.803430841770023
185292	1	stim057_animate_human_sports_1.png	57	animate	human	sports	1	0	3	stars	1	correct	0.803430841770023
185492	1	stim158_inanimate_furniture_table_2.png	158	inanimate	furniture	table	2	0	3	stars	1	correct	0.803430841770023
185692	1	stim119_inanimate_clothing_socks_3.png	119	inanimate	clothing	socks	3	0	3	stars	1	correct	0.803430841770023
185892	1	stim037_animate_bird_penguin_1.png	37	animate	bird	penguin	1	0	3	stars	1	correct	0.803430841770023
186092	1	stim182_inanimate_tools_broom_2.png	182	inanimate	tools	broom	2	0	3	stars	1	correct	0.803430841770023
186292	1	stim124_inanimate_fruits_apple_4.png	124	inanimate	fruits	apple	4	0	3	stars	1	correct	0.803430841770023
186492	1	stim063_animate_insect_ant_3.png	63	animate	insect	ant	3	0	3	stars	1	correct	0.803430841770023
186692	1	stim007_animate_aquatic_fish_3.png	7	animate	aquatic	fish	3	0	3	stars	1	correct	0.803430841770023
186892	1	stim134_inanimate_fruits_pineapple_2.png	134	inanimate	fruits	pineapple	2	0	3	stars	1	correct	0.803430841770023
187092	1	stim066_animate_insect_bug_2.png	66	animate	insect	bug	2	0	3	stars	1	correct	0.803430841770023
187292	1	stim194_inanimate_tools_scissors_2.png	194	inanimate	tools	scissors	2	0	3	stars	1	correct	0.803430841770023
187492	1	stim128_inanimate_fruits_banana_4.png	128	inanimate	fruits	banana	4	0	3	stars	1	correct	0.803430841770023
187692	1	stim090_animate_mammal_kangaroo_2.png	90	animate	mammal	kangaroo	2	0	3	stars	1	correct	0.803430841770023
187892	1	stim110_inanimate_clothing_jeans_2.png	110	inanimate	clothing	jeans	2	0	3	stars	1	correct	0.803430841770023
188092	1	stim011_animate_aquatic_seahorse_3.png	11	animate	aquatic	seahorse	3	0	3	stars	1	correct	0.803430841770023
188292	1	stim030_animate_bird_parrot_2.png	30	animate	bird	parrot	2	0	3	stars	1	correct	0.803430841770023
188492	1	stim086_animate_mammal_giraffe_2.png	86	animate	mammal	giraffe	2	0	3	stars	1	correct	0.803430841770023
188692	1	stim155_inanimate_furniture_sofa_3.png	155	inanimate	furniture	sofa	3	0	3	stars	1	correct	0.803430841770023
188892	1	stim029_animate_bird_parrot_1.png	29	animate	bird	parrot	1	0	3	stars	1	correct	0.803430841770023
189092	1	stim193_inanimate_tools_scissors_1.png	193	inanimate	tools	scissors	1	0	3	stars	1	correct	0.803430841770023
189292	1	stim102_inanimate_clothing_gloves_2.png	102	inanimate	clothing	gloves	2	0	3	stars	1	correct	0.803430841770023
189492	1	stim163_inanimate_plants_bush_3.png	163	inanimate	plants	bush	3	0	3	stars	1	correct	0.803430841770023
189692	1	stim123_inanimate_fruits_apple_3.png	123	inanimate	fruits	apple	3	0	3	stars	1	correct	0.803430841770023
189892	1	stim154_inanimate_furniture_sofa_2.png	154	inanimate	furniture	sofa	2	0	3	stars	1	correct	0.803430841770023
190092	1	stim045_animate_human_child_1.png	45	animate	human	child	1	0	3	stars	1	correct	0.803430841770023
190292	1	stim044_animate_human_baby_4.png	44	animate	human	baby	4	0	3	stars	1	correct	0.803430841770023
190492	1	stim031_animate_bird_parrot_3.png	31	animate	bird	parrot	3	0	3	stars	1	correct	0.803430841770023
190692	1	stim032_animate_bird_parrot_4.png	32	animate	bird	parrot	4	0	3	stars	1	correct	0.803430841770023
190892	1	stim089_animate_mammal_kangaroo_1.png	89	animate	mammal	kangaroo	1	0	3	stars	1	correct	0.803430841770023
191092	1	stim020_animate_aquatic_shrimp_4.png	20	animate	aquatic	shrimp	4	0	3	stars	1	correct	0.803430841770023
191292	1	stim103_inanimate_clothing_gloves_3.png	103	inanimate	clothing	gloves	3	0	3	stars	1	correct	0.803430841770023
191492	1	stim108_inanimate_clothing_hat_4.png	108	inanimate	clothing	hat	4	0	3	stars	1	correct	0.803430841770023
191692	1	stim080_animate_insect_grasshopper_4.png	80	animate	insect	grasshopper	4	0	3	stars	1	correct	0.803430841770023
191892	1	stim050_animate_human_clown_2.png	50	animate	human	clown	2	0	3	stars	1	correct	0.803430841770023
192092	1	stim105_inanimate_clothing_hat_1.png	105	inanimate	clothing	hat	1	0	3	stars	1	correct	0.803430841770023
192292	1	stim022_animate_bird_chicken_2.png	22	animate	bird	chicken	2	0	3	stars	1	correct	0.803430841770023
192492	1	stim160_inanimate_furniture_table_4.png	160	inanimate	furniture	table	4	0	3	stars	1	correct	0.803430841770023
192692	1	stim149_inanimate_furniture_closet_1.png	149	inanimate	furniture	closet	1	0	3	stars	1	correct	0.803430841770023
192892	1	stim060_animate_human_sports_4.png	60	animate	human	sports	4	0	3	stars	1	correct	0.803430841770023
193092	1	stim141_inanimate_furniture_bed_1.png	141	inanimate	furniture	bed	1	0	3	stars	1	correct	0.803430841770023
193292	1	stim140_inanimate_fruits_strawberry_4.png	140	inanimate	fruits	strawberry	4	0	3	stars	1	correct	0.803430841770023
193492	1	stim003_animate_aquatic_crab_3.png	3	animate	aquatic	crab	3	0	3	stars	1	correct	0.803430841770023
193692	1	stim180_inanimate_plants_tulip_4.png	180	inanimate	plants	tulip	4	0	3	stars	1	correct	0.803430841770023
193892	1	stim049_animate_human_clown_1.png	49	animate	human	clown	1	0	3	stars	1	correct	0.803430841770023
194092	1	stim025_animate_bird_duck_1.png	25	animate	bird	duck	1	0	3	stars	1	correct	0.803430841770023
194292	1	stim162_inanimate_plants_bush_2.png	162	inanimate	plants	bush	2	0	3	stars	1	correct	0.803430841770023
194492	1	stim199_inanimate_tools_wrench_3.png	199	inanimate	tools	wrench	3	0	3	stars	1	correct	0.803430841770023
194692	1	stim085_animate_mammal_giraffe_1.png	85	animate	mammal	giraffe	1	0	3	stars	1	correct	0.803430841770023
194892	1	stim077_animate_insect_grasshopper_1.png	77	animate	insect	grasshopper	1	0	3	stars	1	correct	0.803430841770023
195092	1	stim183_inanimate_tools_broom_3.png	183	inanimate	tools	broom	3	0	3	stars	1	correct	0.803430841770023
195292	1	stim192_inanimate_tools_pan_4.png	192	inanimate	tools	pan	4	0	3	stars	1	correct	0.803430841770023
195492	1	stim174_inanimate_plants_tree_2.png	174	inanimate	plants	tree	2	0	3	stars	1	correct	0.803430841770023
195692	1	stim012_animate_aquatic_seahorse_4.png	12	animate	aquatic	seahorse	4	0	3	stars	1	correct	0.803430841770023
195892	1	stim014_animate_aquatic_shark_2.png	14	animate	aquatic	shark	2	0	3	stars	1	correct	0.803430841770023
196092	1	stim097_animate_mammal_rhino_1.png	97	animate	mammal	rhino	1	0	3	stars	1	correct	0.803430841770023
196292	1	stim002_animate_aquatic_crab_2.png	2	animate	aquatic	crab	2	0	3	stars	1	correct	0.803430841770023
196492	1	stim165_inanimate_plants_cactus_1.png	165	inanimate	plants	cactus	1	0	3	stars	1	correct	0.803430841770023
196692	1	stim146_inanimate_furniture_chair_2.png	146	inanimate	furniture	chair	2	0	3	stars	1	correct	0.803430841770023
196892	1	stim129_inanimate_fruits_grape_1.png	129	inanimate	fruits	grape	1	0	3	stars	1	correct	0.803430841770023
197092	1	stim047_animate_human_child_3.png	47	animate	human	child	3	0	3	stars	1	correct	0.803430841770023
197292	1	stim059_animate_human_sports_3.png	59	animate	human	sports	3	0	3	stars	1	correct	0.803430841770023
197492	1	stim064_animate_insect_ant_4.png	64	animate	insect	ant	4	0	3	stars	1	correct	0.803430841770023
197692	1	stim190_inanimate_tools_pan_2.png	190	inanimate	tools	pan	2	0	3	stars	1	correct	0.803430841770023
197892	1	stim185_inanimate_tools_hammer_1.png	185	inanimate	tools	hammer	1	0	3	stars	1	correct	0.803430841770023
198092	1	stim099_animate_mammal_rhino_3.png	99	animate	mammal	rhino	3	0	3	stars	1	correct	0.803430841770023
198292	1	stim157_inanimate_furniture_table_1.png	157	inanimate	furniture	table	1	0	3	stars	1	correct	0.803430841770023
198492	1	stim071_animate_insect_butterfly_3.png	71	animate	insect	butterfly	3	0	3	stars	1	correct	0.803430841770023
198692	1	stim021_animate_bird_chicken_1.png	21	animate	bird	chicken	1	0	3	stars	1	correct	0.803430841770023
198892	1	stim024_animate_bird_chicken_4.png	24	animate	bird	chicken	4	0	3	stars	1	correct	0.803430841770023
199092	1	stim197_inanimate_tools_wrench_1.png	197	inanimate	tools	wrench	1	0	3	stars	1	correct	0.803430841770023
199292	1	stim186_inanimate_tools_hammer_2.png	186	inanimate	tools	hammer	2	0	3	stars	1	correct	0.803430841770023
199492	1	stim093_animate_mammal_monkey_1.png	93	animate	mammal	monkey	1	0	3	stars	1	correct	0.803430841770023
199692	1	stim081_animate_mammal_cow_1.png	81	animate	mammal	cow	1	0	3	stars	1	correct	0.803430841770023
199892	1	stim038_animate_bird_penguin_2.png	38	animate	bird	penguin	2	0	3	stars	1	correct	0.803430841770023
200092	1	stim001_animate_aquatic_crab_1.png	1	animate	aquatic	crab	1	0	3	stars	1	correct	0.803430841770023
200292	1	stim046_animate_human_child_2.png	46	animate	human	child	2	0	3	stars	1	correct	0.803430841770023
200492	1	stim151_inanimate_furniture_closet_3.png	151	inanimate	furniture	closet	3	0	3	stars	1	correct	0.803430841770023
200692	1	stim139_inanimate_fruits_strawberry_3.png	139	inanimate	fruits	strawberry	3	0	3	stars	1	correct	0.803430841770023
200892	1	stim042_animate_human_baby_2.png	42	animate	human	baby	2	0	3	stars	1	correct	0.803430841770023
201092	1	stim195_inanimate_tools_scissors_3.png	195	inanimate	tools	scissors	3	0	3	stars	1	correct	0.803430841770023
201292	1	stim137_inanimate_fruits_strawberry_1.png	137	inanimate	fruits	strawberry	1	0	3	stars	1	correct	0.803430841770023
201492	1	stim177_inanimate_plants_tulip_1.png	177	inanimate	plants	tulip	1	0	3	stars	1	correct	0.803430841770023
201692	1	stim187_inanimate_tools_hammer_3.png	187	inanimate	tools	hammer	3	0	3	stars	1	correct	0.803430841770023
201892	1	stim079_animate_insect_grasshopper_3.png	79	animate	insect	grasshopper	3	0	3	stars	1	correct	0.803430841770023
202092	1	stim006_animate_aquatic_fish_2.png	6	animate	aquatic	fish	2	0	3	stars	1	correct	0.803430841770023
202292	1	stim113_inanimate_clothing_shirt_1.png	113	inanimate	clothing	shirt	1	0	3	stars	1	correct	0.803430841770023
202492	1	stim169_inanimate_plants_sunflower_1.png	169	inanimate	plants	sunflower	1	0	3	stars	1	correct	0.803430841770023
202692	1	stim056_animate_human_faces_4.png	56	animate	human	faces	4	0	3	stars	1	correct	0.803430841770023
202892	1	stim098_animate_mammal_rhino_2.png	98	animate	mammal	rhino	2	0	3	stars	1	correct	0.803430841770023
203092	1	stim126_inanimate_fruits_banana_2.png	126	inanimate	fruits	banana	2	0	3	stars	1	correct	0.803430841770023
203292	1	stim196_inanimate_tools_scissors_4.png	196	inanimate	tools	scissors	4	0	3	stars	1	correct	0.803430841770023
203492	1	stim092_animate_mammal_kangaroo_4.png	92	animate	mammal	kangaroo	4	0	3	stars	1	correct	0.803430841770023
215043	1	stim146_inanimate_furniture_chair_2.png	146	inanimate	furniture	chair	2	0	4	stars	2	correct	1.06717982119881
215243	1	stim085_animate_mammal_giraffe_1.png	85	animate	mammal	giraffe	1	0	4	stars	2	correct	1.06717982119881
215443	1	stim181_inanimate_tools_broom_1.png	181	inanimate	tools	broom	1	0	4	stars	2	correct	1.06717982119881
215643	1	stim109_inanimate_clothing_jeans_1.png	109	inanimate	clothing	jeans	1	0	4	stars	2	correct	1.06717982119881
215843	1	stim008_animate_aquatic_fish_4.png	8	animate	aquatic	fish	4	0	4	stars	2	correct	1.06717982119881
216043	1	stim177_inanimate_plants_tulip_1.png	177	inanimate	plants	tulip	1	0	4	stars	2	correct	1.06717982119881
216243	1	stim037_animate_bird_penguin_1.png	37	animate	bird	penguin	1	0	4	stars	2	correct	1.06717982119881
216443	1	stim068_animate_insect_bug_4.png	68	animate	insect	bug	4	0	4	stars	2	correct	1.06717982119881
216643	1	stim192_inanimate_tools_pan_4.png	192	inanimate	tools	pan	4	0	4	stars	2	correct	1.06717982119881
216843	1	stim166_inanimate_plants_cactus_2.png	166	inanimate	plants	cactus	2	0	4	stars	2	correct	1.06717982119881
217043	1	stim162_inanimate_plants_bush_2.png	162	inanimate	plants	bush	2	0	4	stars	2	correct	1.06717982119881
217243	1	stim199_inanimate_tools_wrench_3.png	199	inanimate	tools	wrench	3	0	4	stars	2	correct	1.06717982119881
217443	1	stim100_animate_mammal_rhino_4.png	100	animate	mammal	rhino	4	0	4	stars	2	correct	1.06717982119881
217643	1	stim107_inanimate_clothing_hat_3.png	107	inanimate	clothing	hat	3	0	4	stars	2	correct	1.06717982119881
217843	1	stim053_animate_human_faces_1.png	53	animate	human	faces	1	0	4	stars	2	correct	1.06717982119881
218043	1	stim051_animate_human_clown_3.png	51	animate	human	clown	3	0	4	stars	2	correct	1.06717982119881
218243	1	stim108_inanimate_clothing_hat_4.png	108	inanimate	clothing	hat	4	0	4	stars	2	correct	1.06717982119881
218443	1	stim164_inanimate_plants_bush_4.png	164	inanimate	plants	bush	4	0	4	stars	2	correct	1.06717982119881
218643	1	stim062_animate_insect_ant_2.png	62	animate	insect	ant	2	0	4	stars	2	correct	1.06717982119881
218843	1	stim079_animate_insect_grasshopper_3.png	79	animate	insect	grasshopper	3	0	4	stars	2	correct	1.06717982119881
219043	1	stim200_inanimate_tools_wrench_4.png	200	inanimate	tools	wrench	4	0	4	stars	2	correct	1.06717982119881
219243	1	stim114_inanimate_clothing_shirt_2.png	114	inanimate	clothing	shirt	2	0	4	stars	2	correct	1.06717982119881
219443	1	stim084_animate_mammal_cow_4.png	84	animate	mammal	cow	4	0	4	stars	2	correct	1.06717982119881
219643	1	stim149_inanimate_furniture_closet_1.png	149	inanimate	furniture	closet	1	0	4	stars	2	correct	1.06717982119881
219843	1	stim135_inanimate_fruits_pineapple_3.png	135	inanimate	fruits	pineapple	3	0	4	stars	2	correct	1.06717982119881
220043	1	stim190_inanimate_tools_pan_2.png	190	inanimate	tools	pan	2	0	4	stars	2	correct	1.06717982119881
220243	1	stim139_inanimate_fruits_strawberry_3.png	139	inanimate	fruits	strawberry	3	0	4	stars	2	correct	1.06717982119881
220443	1	stim045_animate_human_child_1.png	45	animate	human	child	1	0	4	stars	2	correct	1.06717982119881
220643	1	stim185_inanimate_tools_hammer_1.png	185	inanimate	tools	hammer	1	0	4	stars	2	correct	1.06717982119881
220843	1	stim091_animate_mammal_kangaroo_3.png	91	animate	mammal	kangaroo	3	0	4	stars	2	correct	1.06717982119881
221043	1	stim157_inanimate_furniture_table_1.png	157	inanimate	furniture	table	1	0	4	stars	2	correct	1.06717982119881
221243	1	stim093_animate_mammal_monkey_1.png	93	animate	mammal	monkey	1	0	4	stars	2	correct	1.06717982119881
221443	1	stim014_animate_aquatic_shark_2.png	14	animate	aquatic	shark	2	0	4	stars	2	correct	1.06717982119881
221643	1	stim169_inanimate_plants_sunflower_1.png	169	inanimate	plants	sunflower	1	0	4	stars	2	correct	1.06717982119881
221843	1	stim041_animate_human_baby_1.png	41	animate	human	baby	1	0	4	stars	2	correct	1.06717982119881
222043	1	stim025_animate_bird_duck_1.png	25	animate	bird	duck	1	0	4	stars	2	correct	1.06717982119881
222243	1	stim193_inanimate_tools_scissors_1.png	193	inanimate	tools	scissors	1	0	4	stars	2	correct	1.06717982119881
222443	1	stim021_animate_bird_chicken_1.png	21	animate	bird	chicken	1	0	4	stars	2	correct	1.06717982119881
222643	1	stim144_inanimate_furniture_bed_4.png	144	inanimate	furniture	bed	4	0	4	stars	2	correct	1.06717982119881
222843	1	stim186_inanimate_tools_hammer_2.png	186	inanimate	tools	hammer	2	0	4	stars	2	correct	1.06717982119881
223043	1	stim005_animate_aquatic_fish_1.png	5	animate	aquatic	fish	1	0	4	stars	2	correct	1.06717982119881
223243	1	stim026_animate_bird_duck_2.png	26	animate	bird	duck	2	0	4	stars	2	correct	1.06717982119881
223443	1	stim188_inanimate_tools_hammer_4.png	188	inanimate	tools	hammer	4	0	4	stars	2	correct	1.06717982119881
223643	1	stim129_inanimate_fruits_grape_1.png	129	inanimate	fruits	grape	1	0	4	stars	2	correct	1.06717982119881
223843	1	stim023_animate_bird_chicken_3.png	23	animate	bird	chicken	3	0	4	stars	2	correct	1.06717982119881
224043	1	stim104_inanimate_clothing_gloves_4.png	104	inanimate	clothing	gloves	4	0	4	stars	2	correct	1.06717982119881
224243	1	stim117_inanimate_clothing_socks_1.png	117	inanimate	clothing	socks	1	0	4	stars	2	correct	1.06717982119881
224443	1	stim020_animate_aquatic_shrimp_4.png	20	animate	aquatic	shrimp	4	0	4	stars	2	correct	1.06717982119881
224643	1	stim047_animate_human_child_3.png	47	animate	human	child	3	0	4	stars	2	correct	1.06717982119881
224843	1	stim137_inanimate_fruits_strawberry_1.png	137	inanimate	fruits	strawberry	1	0	4	stars	2	correct	1.06717982119881
225043	1	stim122_inanimate_fruits_apple_2.png	122	inanimate	fruits	apple	2	0	4	stars	2	correct	1.06717982119881
225243	1	stim182_inanimate_tools_broom_2.png	182	inanimate	tools	broom	2	0	4	stars	2	correct	1.06717982119881
225443	1	stim191_inanimate_tools_pan_3.png	191	inanimate	tools	pan	3	0	4	stars	2	correct	1.06717982119881
225643	1	stim042_animate_human_baby_2.png	42	animate	human	baby	2	0	4	stars	2	correct	1.06717982119881
225843	1	stim112_inanimate_clothing_jeans_4.png	112	inanimate	clothing	jeans	4	0	4	stars	2	correct	1.06717982119881
226043	1	stim171_inanimate_plants_sunflower_3.png	171	inanimate	plants	sunflower	3	0	4	stars	2	correct	1.06717982119881
226243	1	stim069_animate_insect_butterfly_1.png	69	animate	insect	butterfly	1	0	4	stars	2	correct	1.06717982119881
226443	1	stim121_inanimate_fruits_apple_1.png	121	inanimate	fruits	apple	1	0	4	stars	2	correct	1.06717982119881
226643	1	stim075_animate_insect_dragonfly_3.png	75	animate	insect	dragonfly	3	0	4	stars	2	correct	1.06717982119881
226843	1	stim081_animate_mammal_cow_1.png	81	animate	mammal	cow	1	0	4	stars	2	correct	1.06717982119881
227043	1	stim142_inanimate_furniture_bed_2.png	142	inanimate	furniture	bed	2	0	4	stars	2	correct	1.06717982119881
227243	1	stim161_inanimate_plants_bush_1.png	161	inanimate	plants	bush	1	0	4	stars	2	correct	1.06717982119881
227443	1	stim147_inanimate_furniture_chair_3.png	147	inanimate	furniture	chair	3	0	4	stars	2	correct	1.06717982119881
227643	1	stim210_targets_shapes_star_2.png	210	targets	shapes	star	2	1	4	stars	2	correct	1.06717982119881
227843	1	stim022_animate_bird_chicken_2.png	22	animate	bird	chicken	2	0	4	stars	2	correct	1.06717982119881
228043	1	stim012_animate_aquatic_seahorse_4.png	12	animate	aquatic	seahorse	4	0	4	stars	2	correct	1.06717982119881
228243	1	stim078_animate_insect_grasshopper_2.png	78	animate	insect	grasshopper	2	0	4	stars	2	correct	1.06717982119881
228443	1	stim111_inanimate_clothing_jeans_3.png	111	inanimate	clothing	jeans	3	0	4	stars	2	correct	1.06717982119881
228643	1	stim016_animate_aquatic_shark_4.png	16	animate	aquatic	shark	4	0	4	stars	2	correct	1.06717982119881
228843	1	stim179_inanimate_plants_tulip_3.png	179	inanimate	plants	tulip	3	0	4	stars	2	correct	1.06717982119881
229043	1	stim038_animate_bird_penguin_2.png	38	animate	bird	penguin	2	0	4	stars	2	correct	1.06717982119881
229243	1	stim011_animate_aquatic_seahorse_3.png	11	animate	aquatic	seahorse	3	0	4	stars	2	correct	1.06717982119881
229443	1	stim003_animate_aquatic_crab_3.png	3	animate	aquatic	crab	3	0	4	stars	2	correct	1.06717982119881
229643	1	stim148_inanimate_furniture_chair_4.png	148	inanimate	furniture	chair	4	0	4	stars	2	correct	1.06717982119881
229843	1	stim175_inanimate_plants_tree_3.png	175	inanimate	plants	tree	3	0	4	stars	2	correct	1.06717982119881
230043	1	stim017_animate_aquatic_shrimp_1.png	17	animate	aquatic	shrimp	1	0	4	stars	2	correct	1.06717982119881
230243	1	stim064_animate_insect_ant_4.png	64	animate	insect	ant	4	0	4	stars	2	correct	1.06717982119881
230443	1	stim065_animate_insect_bug_1.png	65	animate	insect	bug	1	0	4	stars	2	correct	1.06717982119881
230643	1	stim094_animate_mammal_monkey_2.png	94	animate	mammal	monkey	2	0	4	stars	2	correct	1.06717982119881
230843	1	stim009_animate_aquatic_seahorse_1.png	9	animate	aquatic	seahorse	1	0	4	stars	2	correct	1.06717982119881
231043	1	stim151_inanimate_furniture_closet_3.png	151	inanimate	furniture	closet	3	0	4	stars	2	correct	1.06717982119881
231243	1	stim010_animate_aquatic_seahorse_2.png	10	animate	aquatic	seahorse	2	0	4	stars	2	correct	1.06717982119881
231443	1	stim086_animate_mammal_giraffe_2.png	86	animate	mammal	giraffe	2	0	4	stars	2	correct	1.06717982119881
231643	1	stim031_animate_bird_parrot_3.png	31	animate	bird	parrot	3	0	4	stars	2	correct	1.06717982119881
231843	1	stim130_inanimate_fruits_grape_2.png	130	inanimate	fruits	grape	2	0	4	stars	2	correct	1.06717982119881
232043	1	stim115_inanimate_clothing_shirt_3.png	115	inanimate	clothing	shirt	3	0	4	stars	2	correct	1.06717982119881
232243	1	stim046_animate_human_child_2.png	46	animate	human	child	2	0	4	stars	2	correct	1.06717982119881
232443	1	stim056_animate_human_faces_4.png	56	animate	human	faces	4	0	4	stars	2	correct	1.06717982119881
232643	1	stim136_inanimate_fruits_pineapple_4.png	136	inanimate	fruits	pineapple	4	0	4	stars	2	correct	1.06717982119881
232843	1	stim103_inanimate_clothing_gloves_3.png	103	inanimate	clothing	gloves	3	0	4	stars	2	correct	1.06717982119881
233043	1	stim132_inanimate_fruits_grape_4.png	132	inanimate	fruits	grape	4	0	4	stars	2	correct	1.06717982119881
233243	1	stim063_animate_insect_ant_3.png	63	animate	insect	ant	3	0	4	stars	2	correct	1.06717982119881
233443	1	stim052_animate_human_clown_4.png	52	animate	human	clown	4	0	4	stars	2	correct	1.06717982119881
233643	1	stim019_animate_aquatic_shrimp_3.png	19	animate	aquatic	shrimp	3	0	4	stars	2	correct	1.06717982119881
233843	1	stim197_inanimate_tools_wrench_1.png	197	inanimate	tools	wrench	1	0	4	stars	2	correct	1.06717982119881
234043	1	stim124_inanimate_fruits_apple_4.png	124	inanimate	fruits	apple	4	0	4	stars	2	correct	1.06717982119881
234243	1	stim066_animate_insect_bug_2.png	66	animate	insect	bug	2	0	4	stars	2	correct	1.06717982119881
234443	1	stim090_animate_mammal_kangaroo_2.png	90	animate	mammal	kangaroo	2	0	4	stars	2	correct	1.06717982119881
234643	1	stim015_animate_aquatic_shark_3.png	15	animate	aquatic	shark	3	0	4	stars	2	correct	1.06717982119881
234843	1	stim060_animate_human_sports_4.png	60	animate	human	sports	4	0	4	stars	2	correct	1.06717982119881
235043	1	stim153_inanimate_furniture_sofa_1.png	153	inanimate	furniture	sofa	1	0	4	stars	2	correct	1.06717982119881
235243	1	stim131_inanimate_fruits_grape_3.png	131	inanimate	fruits	grape	3	0	4	stars	2	correct	1.06717982119881
235443	1	stim176_inanimate_plants_tree_4.png	176	inanimate	plants	tree	4	0	4	stars	2	correct	1.06717982119881
235643	1	stim072_animate_insect_butterfly_4.png	72	animate	insect	butterfly	4	0	4	stars	2	correct	1.06717982119881
235843	1	stim039_animate_bird_penguin_3.png	39	animate	bird	penguin	3	0	4	stars	2	correct	1.06717982119881
236043	1	stim159_inanimate_furniture_table_3.png	159	inanimate	furniture	table	3	0	4	stars	2	correct	1.06717982119881
236243	1	stim050_animate_human_clown_2.png	50	animate	human	clown	2	0	4	stars	2	correct	1.06717982119881
236443	1	stim087_animate_mammal_giraffe_3.png	87	animate	mammal	giraffe	3	0	4	stars	2	correct	1.06717982119881
236643	1	stim049_animate_human_clown_1.png	49	animate	human	clown	1	0	4	stars	2	correct	1.06717982119881
236843	1	stim057_animate_human_sports_1.png	57	animate	human	sports	1	0	4	stars	2	correct	1.06717982119881
237043	1	stim001_animate_aquatic_crab_1.png	1	animate	aquatic	crab	1	0	4	stars	2	correct	1.06717982119881
237243	1	stim128_inanimate_fruits_banana_4.png	128	inanimate	fruits	banana	4	0	4	stars	2	correct	1.06717982119881
237443	1	stim088_animate_mammal_giraffe_4.png	88	animate	mammal	giraffe	4	0	4	stars	2	correct	1.06717982119881
237643	1	stim155_inanimate_furniture_sofa_3.png	155	inanimate	furniture	sofa	3	0	4	stars	2	correct	1.06717982119881
237843	1	stim006_animate_aquatic_fish_2.png	6	animate	aquatic	fish	2	0	4	stars	2	correct	1.06717982119881
238043	1	stim194_inanimate_tools_scissors_2.png	194	inanimate	tools	scissors	2	0	4	stars	2	correct	1.06717982119881
238243	1	stim061_animate_insect_ant_1.png	61	animate	insect	ant	1	0	4	stars	2	correct	1.06717982119881
238443	1	stim165_inanimate_plants_cactus_1.png	165	inanimate	plants	cactus	1	0	4	stars	2	correct	1.06717982119881
238643	1	stim096_animate_mammal_monkey_4.png	96	animate	mammal	monkey	4	0	4	stars	2	correct	1.06717982119881
238843	1	stim097_animate_mammal_rhino_1.png	97	animate	mammal	rhino	1	0	4	stars	2	correct	1.06717982119881
239043	1	stim209_targets_shapes_star_1.png	209	targets	shapes	star	1	1	4	stars	2	correct	1.06717982119881
239243	1	stim058_animate_human_sports_2.png	58	animate	human	sports	2	0	4	stars	2	correct	1.06717982119881
239443	1	stim178_inanimate_plants_tulip_2.png	178	inanimate	plants	tulip	2	0	4	stars	2	correct	1.06717982119881
239643	1	stim002_animate_aquatic_crab_2.png	2	animate	aquatic	crab	2	0	4	stars	2	correct	1.06717982119881
239843	1	stim004_animate_aquatic_crab_4.png	4	animate	aquatic	crab	4	0	4	stars	2	correct	1.06717982119881
240043	1	stim170_inanimate_plants_sunflower_2.png	170	inanimate	plants	sunflower	2	0	4	stars	2	correct	1.06717982119881
240243	1	stim133_inanimate_fruits_pineapple_1.png	133	inanimate	fruits	pineapple	1	0	4	stars	2	correct	1.06717982119881
240443	1	stim044_animate_human_baby_4.png	44	animate	human	baby	4	0	4	stars	2	correct	1.06717982119881
240643	1	stim126_inanimate_fruits_banana_2.png	126	inanimate	fruits	banana	2	0	4	stars	2	correct	1.06717982119881
240843	1	stim173_inanimate_plants_tree_1.png	173	inanimate	plants	tree	1	0	4	stars	2	correct	1.06717982119881
241043	1	stim154_inanimate_furniture_sofa_2.png	154	inanimate	furniture	sofa	2	0	4	stars	2	correct	1.06717982119881
241243	1	stim145_inanimate_furniture_chair_1.png	145	inanimate	furniture	chair	1	0	4	stars	2	correct	1.06717982119881
241443	1	stim183_inanimate_tools_broom_3.png	183	inanimate	tools	broom	3	0	4	stars	2	correct	1.06717982119881
241643	1	stim172_inanimate_plants_sunflower_4.png	172	inanimate	plants	sunflower	4	0	4	stars	2	correct	1.06717982119881
241843	1	stim141_inanimate_furniture_bed_1.png	141	inanimate	furniture	bed	1	0	4	stars	2	correct	1.06717982119881
242043	1	stim024_animate_bird_chicken_4.png	24	animate	bird	chicken	4	0	4	stars	2	correct	1.06717982119881
242243	1	stim018_animate_aquatic_shrimp_2.png	18	animate	aquatic	shrimp	2	0	4	stars	2	correct	1.06717982119881
242443	1	stim140_inanimate_fruits_strawberry_4.png	140	inanimate	fruits	strawberry	4	0	4	stars	2	correct	1.06717982119881
242643	1	stim083_animate_mammal_cow_3.png	83	animate	mammal	cow	3	0	4	stars	2	correct	1.06717982119881
242843	1	stim073_animate_insect_dragonfly_1.png	73	animate	insect	dragonfly	1	0	4	stars	2	correct	1.06717982119881
243043	1	stim071_animate_insect_butterfly_3.png	71	animate	insect	butterfly	3	0	4	stars	2	correct	1.06717982119881
243243	1	stim077_animate_insect_grasshopper_1.png	77	animate	insect	grasshopper	1	0	4	stars	2	correct	1.06717982119881
243443	1	stim080_animate_insect_grasshopper_4.png	80	animate	insect	grasshopper	4	0	4	stars	2	correct	1.06717982119881
243643	1	stim101_inanimate_clothing_gloves_1.png	101	inanimate	clothing	gloves	1	0	4	stars	2	correct	1.06717982119881
243843	1	stim158_inanimate_furniture_table_2.png	158	inanimate	furniture	table	2	0	4	stars	2	correct	1.06717982119881
244043	1	stim033_animate_bird_peacock_1.png	33	animate	bird	peacock	1	0	4	stars	2	correct	1.06717982119881
244243	1	stim043_animate_human_baby_3.png	43	animate	human	baby	3	0	4	stars	2	correct	1.06717982119881
244443	1	stim113_inanimate_clothing_shirt_1.png	113	inanimate	clothing	shirt	1	0	4	stars	2	correct	1.06717982119881
244643	1	stim119_inanimate_clothing_socks_3.png	119	inanimate	clothing	socks	3	0	4	stars	2	correct	1.06717982119881
244843	1	stim116_inanimate_clothing_shirt_4.png	116	inanimate	clothing	shirt	4	0	4	stars	2	correct	1.06717982119881
245043	1	stim123_inanimate_fruits_apple_3.png	123	inanimate	fruits	apple	3	0	4	stars	2	correct	1.06717982119881
245243	1	stim089_animate_mammal_kangaroo_1.png	89	animate	mammal	kangaroo	1	0	4	stars	2	correct	1.06717982119881
245443	1	stim030_animate_bird_parrot_2.png	30	animate	bird	parrot	2	0	4	stars	2	correct	1.06717982119881
245643	1	stim110_inanimate_clothing_jeans_2.png	110	inanimate	clothing	jeans	2	0	4	stars	2	correct	1.06717982119881
245843	1	stim163_inanimate_plants_bush_3.png	163	inanimate	plants	bush	3	0	4	stars	2	correct	1.06717982119881
246043	1	stim196_inanimate_tools_scissors_4.png	196	inanimate	tools	scissors	4	0	4	stars	2	correct	1.06717982119881
246243	1	stim059_animate_human_sports_3.png	59	animate	human	sports	3	0	4	stars	2	correct	1.06717982119881
246443	1	stim184_inanimate_tools_broom_4.png	184	inanimate	tools	broom	4	0	4	stars	2	correct	1.06717982119881
246643	1	stim067_animate_insect_bug_3.png	67	animate	insect	bug	3	0	4	stars	2	correct	1.06717982119881
246843	1	stim082_animate_mammal_cow_2.png	82	animate	mammal	cow	2	0	4	stars	2	correct	1.06717982119881
247043	1	stim036_animate_bird_peacock_4.png	36	animate	bird	peacock	4	0	4	stars	2	correct	1.06717982119881
247243	1	stim007_animate_aquatic_fish_3.png	7	animate	aquatic	fish	3	0	4	stars	2	correct	1.06717982119881
247443	1	stim027_animate_bird_duck_3.png	27	animate	bird	duck	3	0	4	stars	2	correct	1.06717982119881
247643	1	stim013_animate_aquatic_shark_1.png	13	animate	aquatic	shark	1	0	4	stars	2	correct	1.06717982119881
247843	1	stim092_animate_mammal_kangaroo_4.png	92	animate	mammal	kangaroo	4	0	4	stars	2	correct	1.06717982119881
248043	1	stim034_animate_bird_peacock_2.png	34	animate	bird	peacock	2	0	4	stars	2	correct	1.06717982119881
248243	1	stim198_inanimate_tools_wrench_2.png	198	inanimate	tools	wrench	2	0	4	stars	2	correct	1.06717982119881
248443	1	stim168_inanimate_plants_cactus_4.png	168	inanimate	plants	cactus	4	0	4	stars	2	correct	1.06717982119881
248643	1	stim138_inanimate_fruits_strawberry_2.png	138	inanimate	fruits	strawberry	2	0	4	stars	2	correct	1.06717982119881
248843	1	stim120_inanimate_clothing_socks_4.png	120	inanimate	clothing	socks	4	0	4	stars	2	correct	1.06717982119881
249043	1	stim099_animate_mammal_rhino_3.png	99	animate	mammal	rhino	3	0	4	stars	2	correct	1.06717982119881
249243	1	stim102_inanimate_clothing_gloves_2.png	102	inanimate	clothing	gloves	2	0	4	stars	2	correct	1.06717982119881
249443	1	stim134_inanimate_fruits_pineapple_2.png	134	inanimate	fruits	pineapple	2	0	4	stars	2	correct	1.06717982119881
249643	1	stim048_animate_human_child_4.png	48	animate	human	child	4	0	4	stars	2	correct	1.06717982119881
249843	1	stim074_animate_insect_dragonfly_2.png	74	animate	insect	dragonfly	2	0	4	stars	2	correct	1.06717982119881
250043	1	stim180_inanimate_plants_tulip_4.png	180	inanimate	plants	tulip	4	0	4	stars	2	correct	1.06717982119881
250243	1	stim156_inanimate_furniture_sofa_4.png	156	inanimate	furniture	sofa	4	0	4	stars	2	correct	1.06717982119881
250443	1	stim125_inanimate_fruits_banana_1.png	125	inanimate	fruits	banana	1	0	4	stars	2	correct	1.06717982119881
250644	1	stim143_inanimate_furniture_bed_3.png	143	inanimate	furniture	bed	3	0	4	stars	2	correct	1.06717982119881
250844	1	stim189_inanimate_tools_pan_1.png	189	inanimate	tools	pan	1	0	4	stars	2	correct	1.06717982119881
251044	1	stim095_animate_mammal_monkey_3.png	95	animate	mammal	monkey	3	0	4	stars	2	correct	1.06717982119881
251244	1	stim032_animate_bird_parrot_4.png	32	animate	bird	parrot	4	0	4	stars	2	correct	1.06717982119881
251444	1	stim070_animate_insect_butterfly_2.png	70	animate	insect	butterfly	2	0	4	stars	2	correct	1.06717982119881
251644	1	stim187_inanimate_tools_hammer_3.png	187	inanimate	tools	hammer	3	0	4	stars	2	correct	1.06717982119881
251844	1	stim118_inanimate_clothing_socks_2.png	118	inanimate	clothing	socks	2	0	4	stars	2	correct	1.06717982119881
252044	1	stim127_inanimate_fruits_banana_3.png	127	inanimate	fruits	banana	3	0	4	stars	2	correct	1.06717982119881
252244	1	stim174_inanimate_plants_tree_2.png	174	inanimate	plants	tree	2	0	4	stars	2	correct	1.06717982119881
252444	1	stim035_animate_bird_peacock_3.png	35	animate	bird	peacock	3	0	4	stars	2	correct	1.06717982119881
252644	1	stim152_inanimate_furniture_closet_4.png	152	inanimate	furniture	closet	4	0	4	stars	2	correct	1.06717982119881
252844	1	stim195_inanimate_tools_scissors_3.png	195	inanimate	tools	scissors	3	0	4	stars	2	correct	1.06717982119881
253044	1	stim028_animate_bird_duck_4.png	28	animate	bird	duck	4	0	4	stars	2	correct	1.06717982119881
253244	1	stim106_inanimate_clothing_hat_2.png	106	inanimate	clothing	hat	2	0	4	stars	2	correct	1.06717982119881
253444	1	stim040_animate_bird_penguin_4.png	40	animate	bird	penguin	4	0	4	stars	2	correct	1.06717982119881
253644	1	stim055_animate_human_faces_3.png	55	animate	human	faces	3	0	4	stars	2	correct	1.06717982119881
253844	1	stim029_animate_bird_parrot_1.png	29	animate	bird	parrot	1	0	4	stars	2	correct	1.06717982119881
254044	1	stim167_inanimate_plants_cactus_3.png	167	inanimate	plants	cactus	3	0	4	stars	2	correct	1.06717982119881
254244	1	stim160_inanimate_furniture_table_4.png	160	inanimate	furniture	table	4	0	4	stars	2	correct	1.06717982119881
254444	1	stim098_animate_mammal_rhino_2.png	98	animate	mammal	rhino	2	0	4	stars	2	correct	1.06717982119881
254644	1	stim076_animate_insect_dragonfly_4.png	76	animate	insect	dragonfly	4	0	4	stars	2	correct	1.06717982119881
254844	1	stim054_animate_human_faces_2.png	54	animate	human	faces	2	0	4	stars	2	correct	1.06717982119881
255044	1	stim150_inanimate_furniture_closet_2.png	150	inanimate	furniture	closet	2	0	4	stars	2	correct	1.06717982119881
255244	1	stim105_inanimate_clothing_hat_1.png	105	inanimate	clothing	hat	1	0	4	stars	2	correct	1.06717982119881
273694	1	stim191_inanimate_tools_pan_3.png	191	inanimate	tools	pan	3	0	5	boats	1	correct	0.757405903423205
273894	1	stim085_animate_mammal_giraffe_1.png	85	animate	mammal	giraffe	1	0	5	boats	1	correct	0.757405903423205
274094	1	stim129_inanimate_fruits_grape_1.png	129	inanimate	fruits	grape	1	0	5	boats	1	correct	0.757405903423205
274294	1	stim121_inanimate_fruits_apple_1.png	121	inanimate	fruits	apple	1	0	5	boats	1	correct	0.757405903423205
274494	1	stim060_animate_human_sports_4.png	60	animate	human	sports	4	0	5	boats	1	correct	0.757405903423205
274694	1	stim141_inanimate_furniture_bed_1.png	141	inanimate	furniture	bed	1	0	5	boats	1	correct	0.757405903423205
274894	1	stim171_inanimate_plants_sunflower_3.png	171	inanimate	plants	sunflower	3	0	5	boats	1	correct	0.757405903423205
275094	1	stim091_animate_mammal_kangaroo_3.png	91	animate	mammal	kangaroo	3	0	5	boats	1	correct	0.757405903423205
275294	1	stim015_animate_aquatic_shark_3.png	15	animate	aquatic	shark	3	0	5	boats	1	correct	0.757405903423205
275494	1	stim020_animate_aquatic_shrimp_4.png	20	animate	aquatic	shrimp	4	0	5	boats	1	correct	0.757405903423205
275694	1	stim029_animate_bird_parrot_1.png	29	animate	bird	parrot	1	0	5	boats	1	correct	0.757405903423205
275894	1	stim049_animate_human_clown_1.png	49	animate	human	clown	1	0	5	boats	1	correct	0.757405903423205
276094	1	stim177_inanimate_plants_tulip_1.png	177	inanimate	plants	tulip	1	0	5	boats	1	correct	0.757405903423205
276294	1	stim198_inanimate_tools_wrench_2.png	198	inanimate	tools	wrench	2	0	5	boats	1	correct	0.757405903423205
276494	1	stim035_animate_bird_peacock_3.png	35	animate	bird	peacock	3	0	5	boats	1	correct	0.757405903423205
276694	1	stim131_inanimate_fruits_grape_3.png	131	inanimate	fruits	grape	3	0	5	boats	1	correct	0.757405903423205
276894	1	stim105_inanimate_clothing_hat_1.png	105	inanimate	clothing	hat	1	0	5	boats	1	correct	0.757405903423205
277094	1	stim017_animate_aquatic_shrimp_1.png	17	animate	aquatic	shrimp	1	0	5	boats	1	correct	0.757405903423205
277294	1	stim183_inanimate_tools_broom_3.png	183	inanimate	tools	broom	3	0	5	boats	1	correct	0.757405903423205
277494	1	stim001_animate_aquatic_crab_1.png	1	animate	aquatic	crab	1	0	5	boats	1	correct	0.757405903423205
277694	1	stim079_animate_insect_grasshopper_3.png	79	animate	insect	grasshopper	3	0	5	boats	1	correct	0.757405903423205
277894	1	stim073_animate_insect_dragonfly_1.png	73	animate	insect	dragonfly	1	0	5	boats	1	correct	0.757405903423205
278094	1	stim088_animate_mammal_giraffe_4.png	88	animate	mammal	giraffe	4	0	5	boats	1	correct	0.757405903423205
278294	1	stim084_animate_mammal_cow_4.png	84	animate	mammal	cow	4	0	5	boats	1	correct	0.757405903423205
278494	1	stim064_animate_insect_ant_4.png	64	animate	insect	ant	4	0	5	boats	1	correct	0.757405903423205
278694	1	stim061_animate_insect_ant_1.png	61	animate	insect	ant	1	0	5	boats	1	correct	0.757405903423205
278894	1	stim094_animate_mammal_monkey_2.png	94	animate	mammal	monkey	2	0	5	boats	1	correct	0.757405903423205
279094	1	stim050_animate_human_clown_2.png	50	animate	human	clown	2	0	5	boats	1	correct	0.757405903423205
279294	1	stim199_inanimate_tools_wrench_3.png	199	inanimate	tools	wrench	3	0	5	boats	1	correct	0.757405903423205
279494	1	stim068_animate_insect_bug_4.png	68	animate	insect	bug	4	0	5	boats	1	correct	0.757405903423205
279694	1	stim192_inanimate_tools_pan_4.png	192	inanimate	tools	pan	4	0	5	boats	1	correct	0.757405903423205
279894	1	stim100_animate_mammal_rhino_4.png	100	animate	mammal	rhino	4	0	5	boats	1	correct	0.757405903423205
280094	1	stim103_inanimate_clothing_gloves_3.png	103	inanimate	clothing	gloves	3	0	5	boats	1	correct	0.757405903423205
280294	1	stim096_animate_mammal_monkey_4.png	96	animate	mammal	monkey	4	0	5	boats	1	correct	0.757405903423205
280494	1	stim140_inanimate_fruits_strawberry_4.png	140	inanimate	fruits	strawberry	4	0	5	boats	1	correct	0.757405903423205
280694	1	stim113_inanimate_clothing_shirt_1.png	113	inanimate	clothing	shirt	1	0	5	boats	1	correct	0.757405903423205
280894	1	stim163_inanimate_plants_bush_3.png	163	inanimate	plants	bush	3	0	5	boats	1	correct	0.757405903423205
281094	1	stim093_animate_mammal_monkey_1.png	93	animate	mammal	monkey	1	0	5	boats	1	correct	0.757405903423205
281294	1	stim019_animate_aquatic_shrimp_3.png	19	animate	aquatic	shrimp	3	0	5	boats	1	correct	0.757405903423205
281494	1	stim087_animate_mammal_giraffe_3.png	87	animate	mammal	giraffe	3	0	5	boats	1	correct	0.757405903423205
281694	1	stim039_animate_bird_penguin_3.png	39	animate	bird	penguin	3	0	5	boats	1	correct	0.757405903423205
281894	1	stim142_inanimate_furniture_bed_2.png	142	inanimate	furniture	bed	2	0	5	boats	1	correct	0.757405903423205
282094	1	stim124_inanimate_fruits_apple_4.png	124	inanimate	fruits	apple	4	0	5	boats	1	correct	0.757405903423205
282294	1	stim057_animate_human_sports_1.png	57	animate	human	sports	1	0	5	boats	1	correct	0.757405903423205
282494	1	stim027_animate_bird_duck_3.png	27	animate	bird	duck	3	0	5	boats	1	correct	0.757405903423205
282694	1	stim055_animate_human_faces_3.png	55	animate	human	faces	3	0	5	boats	1	correct	0.757405903423205
282894	1	stim176_inanimate_plants_tree_4.png	176	inanimate	plants	tree	4	0	5	boats	1	correct	0.757405903423205
283094	1	stim104_inanimate_clothing_gloves_4.png	104	inanimate	clothing	gloves	4	0	5	boats	1	correct	0.757405903423205
283294	1	stim150_inanimate_furniture_closet_2.png	150	inanimate	furniture	closet	2	0	5	boats	1	correct	0.757405903423205
283494	1	stim174_inanimate_plants_tree_2.png	174	inanimate	plants	tree	2	0	5	boats	1	correct	0.757405903423205
283694	1	stim067_animate_insect_bug_3.png	67	animate	insect	bug	3	0	5	boats	1	correct	0.757405903423205
283894	1	stim169_inanimate_plants_sunflower_1.png	169	inanimate	plants	sunflower	1	0	5	boats	1	correct	0.757405903423205
284094	1	stim041_animate_human_baby_1.png	41	animate	human	baby	1	0	5	boats	1	correct	0.757405903423205
284294	1	stim059_animate_human_sports_3.png	59	animate	human	sports	3	0	5	boats	1	correct	0.757405903423205
284494	1	stim058_animate_human_sports_2.png	58	animate	human	sports	2	0	5	boats	1	correct	0.757405903423205
284694	1	stim146_inanimate_furniture_chair_2.png	146	inanimate	furniture	chair	2	0	5	boats	1	correct	0.757405903423205
284894	1	stim074_animate_insect_dragonfly_2.png	74	animate	insect	dragonfly	2	0	5	boats	1	correct	0.757405903423205
285094	1	stim190_inanimate_tools_pan_2.png	190	inanimate	tools	pan	2	0	5	boats	1	correct	0.757405903423205
285294	1	stim034_animate_bird_peacock_2.png	34	animate	bird	peacock	2	0	5	boats	1	correct	0.757405903423205
285494	1	stim082_animate_mammal_cow_2.png	82	animate	mammal	cow	2	0	5	boats	1	correct	0.757405903423205
285694	1	stim147_inanimate_furniture_chair_3.png	147	inanimate	furniture	chair	3	0	5	boats	1	correct	0.757405903423205
285894	1	stim010_animate_aquatic_seahorse_2.png	10	animate	aquatic	seahorse	2	0	5	boats	1	correct	0.757405903423205
286094	1	stim106_inanimate_clothing_hat_2.png	106	inanimate	clothing	hat	2	0	5	boats	1	correct	0.757405903423205
286294	1	stim196_inanimate_tools_scissors_4.png	196	inanimate	tools	scissors	4	0	5	boats	1	correct	0.757405903423205
286494	1	stim184_inanimate_tools_broom_4.png	184	inanimate	tools	broom	4	0	5	boats	1	correct	0.757405903423205
286694	1	stim137_inanimate_fruits_strawberry_1.png	137	inanimate	fruits	strawberry	1	0	5	boats	1	correct	0.757405903423205
286894	1	stim143_inanimate_furniture_bed_3.png	143	inanimate	furniture	bed	3	0	5	boats	1	correct	0.757405903423205
287094	1	stim014_animate_aquatic_shark_2.png	14	animate	aquatic	shark	2	0	5	boats	1	correct	0.757405903423205
287294	1	stim013_animate_aquatic_shark_1.png	13	animate	aquatic	shark	1	0	5	boats	1	correct	0.757405903423205
287494	1	stim187_inanimate_tools_hammer_3.png	187	inanimate	tools	hammer	3	0	5	boats	1	correct	0.757405903423205
287694	1	stim193_inanimate_tools_scissors_1.png	193	inanimate	tools	scissors	1	0	5	boats	1	correct	0.757405903423205
287894	1	stim033_animate_bird_peacock_1.png	33	animate	bird	peacock	1	0	5	boats	1	correct	0.757405903423205
288094	1	stim161_inanimate_plants_bush_1.png	161	inanimate	plants	bush	1	0	5	boats	1	correct	0.757405903423205
288294	1	stim098_animate_mammal_rhino_2.png	98	animate	mammal	rhino	2	0	5	boats	1	correct	0.757405903423205
288494	1	stim053_animate_human_faces_1.png	53	animate	human	faces	1	0	5	boats	1	correct	0.757405903423205
288694	1	stim175_inanimate_plants_tree_3.png	175	inanimate	plants	tree	3	0	5	boats	1	correct	0.757405903423205
288894	1	stim047_animate_human_child_3.png	47	animate	human	child	3	0	5	boats	1	correct	0.757405903423205
289094	1	stim021_animate_bird_chicken_1.png	21	animate	bird	chicken	1	0	5	boats	1	correct	0.757405903423205
289294	1	stim111_inanimate_clothing_jeans_3.png	111	inanimate	clothing	jeans	3	0	5	boats	1	correct	0.757405903423205
289494	1	stim025_animate_bird_duck_1.png	25	animate	bird	duck	1	0	5	boats	1	correct	0.757405903423205
289694	1	stim178_inanimate_plants_tulip_2.png	178	inanimate	plants	tulip	2	0	5	boats	1	correct	0.757405903423205
289894	1	stim149_inanimate_furniture_closet_1.png	149	inanimate	furniture	closet	1	0	5	boats	1	correct	0.757405903423205
290094	1	stim071_animate_insect_butterfly_3.png	71	animate	insect	butterfly	3	0	5	boats	1	correct	0.757405903423205
290294	1	stim116_inanimate_clothing_shirt_4.png	116	inanimate	clothing	shirt	4	0	5	boats	1	correct	0.757405903423205
290494	1	stim114_inanimate_clothing_shirt_2.png	114	inanimate	clothing	shirt	2	0	5	boats	1	correct	0.757405903423205
290694	1	stim162_inanimate_plants_bush_2.png	162	inanimate	plants	bush	2	0	5	boats	1	correct	0.757405903423205
290894	1	stim179_inanimate_plants_tulip_3.png	179	inanimate	plants	tulip	3	0	5	boats	1	correct	0.757405903423205
