onset	duration	stimulusname	stimulusnumber	levelA	levelB	levelC	withinexemplarnumber	istarget	trialnumber	condition	response	correct	rt
18226	1	stim113_inanimate_clothing_shirt_1.png	113	inanimate	clothing	shirt	1	0	1	stars	1	correct	0.765583396174407
18426	1	stim075_animate_insect_dragonfly_3.png	75	animate	insect	dragonfly	3	0	1	stars	1	correct	0.765583396174407
18626	1	stim104_inanimate_clothing_gloves_4.png	104	inanimate	clothing	gloves	4	0	1	stars	1	correct	0.765583396174407
18826	1	stim137_inanimate_fruits_strawberry_1.png	137	inanimate	fruits	strawberry	1	0	1	stars	1	correct	0.765583396174407
19026	1	stim179_inanimate_plants_tulip_3.png	179	inanimate	plants	tulip	3	0	1	stars	1	correct	0.765583396174407
19226	1	stim054_animate_human_faces_2.png	54	animate	human	faces	2	0	1	stars	1	correct	0.765583396174407
19427	1	stim049_animate_human_clown_1.png	49	animate	human	clown	1	0	1	stars	1	correct	0.765583396174407
19627	1	stim167_inanimate_plants_cactus_3.png	167	inanimate	plants	cactus	3	0	1	stars	1	correct	0.765583396174407
19826	1	stim005_animate_aquatic_fish_1.png	5	animate	aquatic	fish	1	0	1	stars	1	correct	0.765583396174407
20027	1	stim150_inanimate_furniture_closet_2.png	150	inanimate	furniture	closet	2	0	1	stars	1	correct	0.765583396174407
20227	1	stim088_animate_mammal_giraffe_4.png	88	animate	mammal	giraffe	4	0	1	stars	1	correct	0.765583396174407
20427	1	stim188_inanimate_tools_hammer_4.png	188	inanimate	tools	hammer	4	0	1	stars	1	correct	0.765583396174407
20627	1	stim006_animate_aquatic_fish_2.png	6	animate	aquatic	fish	2	0	1	stars	1	correct	0.765583396174407
20827	1	stim034_animate_bird_peacock_2.png	34	animate	bird	peacock	2	0	1	stars	1	correct	0.765583396174407
21027	1	stim036_animate_bird_peacock_4.png	36	animate	bird	peacock	4	0	1	stars	1	correct	0.765583396174407
21227	1	stim195_inanimate_tools_scissors_3.png	195	inanimate	tools	scissors	3	0	1	stars	1	correct	0.765583396174407
21427	1	stim068_animate_insect_bug_4.png	68	animate	insect	bug	4	0	1	stars	1	correct	0.765583396174407
21627	1	stim033_animate_bird_peacock_1.png	33	animate	bird	peacock	1	0	1	stars	1	correct	0.765583396174407
21827	1	stim100_animate_mammal_rhino_4.png	100	animate	mammal	rhino	4	0	1	stars	1	correct	0.765583396174407
22027	1	stim045_animate_human_child_1.png	45	animate	human	child	1	0	1	stars	1	correct	0.765583396174407
22227	1	stim131_inanimate_fruits_grape_3.png	131	inanimate	fruits	grape	3	0	1	stars	1	correct	0.765583396174407
22427	1	stim038_animate_bird_penguin_2.png	38	animate	bird	penguin	2	0	1	stars	1	correct	0.765583396174407
22627	1	stim135_inanimate_fruits_pineapple_3.png	135	inanimate	fruits	pineapple	3	0	1	stars	1	correct	0.765583396174407
22827	1	stim118_inanimate_clothing_socks_2.png	118	inanimate	clothing	socks	2	0	1	stars	1	correct	0.765583396174407
23027	1	stim094_animate_mammal_monkey_2.png	94	animate	mammal	monkey	2	0	1	stars	1	correct	0.765583396174407
23227	1	stim151_inanimate_furniture_closet_3.png	151	inanimate	furniture	closet	3	0	1	stars	1	correct	0.765583396174407
23427	1	stim014_animate_aquatic_shark_2.png	14	animate	aquatic	shark	2	0	1	stars	1	correct	0.765583396174407
23627	1	stim060_animate_human_sports_4.png	60	animate	human	sports	4	0	1	stars	1	correct	0.765583396174407
23827	1	stim018_animate_aquatic_shrimp_2.png	18	animate	aquatic	shrimp	2	0	1	stars	1	correct	0.765583396174407
24027	1	stim019_animate_aquatic_shrimp_3.png	19	animate	aquatic	shrimp	3	0	1	stars	1	correct	0.765583396174407
24227	1	stim136_inanimate_fruits_pineapple_4.png	136	inanimate	fruits	pineapple	4	0	1	stars	1	correct	0.765583396174407
24427	1	stim187_inanimate_tools_hammer_3.png	187	inanimate	tools	hammer	3	0	1	stars	1	correct	0.765583396174407
24627	1	stim016_animate_aquatic_shark_4.png	16	animate	aquatic	shark	4	0	1	stars	1	correct	0.765583396174407
24827	1	stim111_inanimate_clothing_jeans_3.png	111	inanimate	clothing	jeans	3	0	1	stars	1	correct	0.765583396174407
25027	1	stim024_animate_bird_chicken_4.png	24	animate	bird	chicken	4	0	1	stars	1	correct	0.765583396174407
25227	1	stim132_inanimate_fruits_grape_4.png	132	inanimate	fruits	grape	4	0	1	stars	1	correct	0.765583396174407
25427	1	stim015_animate_aquatic_shark_3.png	15	animate	aquatic	shark	3	0	1	stars	1	correct	0.765583396174407
25627	1	stim056_animate_human_faces_4.png	56	animate	human	faces	4	0	1	stars	1	correct	0.765583396174407
25827	1	stim092_animate_mammal_kangaroo_4.png	92	animate	mammal	kangaroo	4	0	1	stars	1	correct	0.765583396174407
26027	1	stim125_inanimate_fruits_banana_1.png	125	inanimate	fruits	banana	1	0	1	stars	1	correct	0.765583396174407
26227	1	stim069_animate_insect_butterfly_1.png	69	animate	insect	butterfly	1	0	1	stars	1	correct	0.765583396174407
26427	1	stim180_inanimate_plants_tulip_4.png	180	inanimate	plants	tulip	4	0	1	stars	1	correct	0.765583396174407
26627	1	stim105_inanimate_clothing_hat_1.png	105	inanimate	clothing	hat	1	0	1	stars	1	correct	0.765583396174407
26827	1	stim086_animate_mammal_giraffe_2.png	86	animate	mammal	giraffe	2	0	1	stars	1	correct	0.765583396174407
27027	1	stim164_inanimate_plants_bush_4.png	164	inanimate	plants	bush	4	0	1	stars	1	correct	0.765583396174407
27227	1	stim106_inanimate_clothing_hat_2.png	106	inanimate	clothing	hat	2	0	1	stars	1	correct	0.765583396174407
27427	1	stim004_animate_aquatic_crab_4.png	4	animate	aquatic	crab	4	0	1	stars	1	correct	0.765583396174407
27627	1	stim057_animate_human_sports_1.png	57	animate	human	sports	1	0	1	stars	1	correct	0.765583396174407
27827	1	stim037_animate_bird_penguin_1.png	37	animate	bird	penguin	1	0	1	stars	1	correct	0.765583396174407
28027	1	stim010_animate_aquatic_seahorse_2.png	10	animate	aquatic	seahorse	2	0	1	stars	1	correct	0.765583396174407
28227	1	stim043_animate_human_baby_3.png	43	animate	human	baby	3	0	1	stars	1	correct	0.765583396174407
28427	1	stim095_animate_mammal_monkey_3.png	95	animate	mammal	monkey	3	0	1	stars	1	correct	0.765583396174407
28627	1	stim030_animate_bird_parrot_2.png	30	animate	bird	parrot	2	0	1	stars	1	correct	0.765583396174407
28827	1	stim087_animate_mammal_giraffe_3.png	87	animate	mammal	giraffe	3	0	1	stars	1	correct	0.765583396174407
29027	1	stim046_animate_human_child_2.png	46	animate	human	child	2	0	1	stars	1	correct	0.765583396174407
29227	1	stim031_animate_bird_parrot_3.png	31	animate	bird	parrot	3	0	1	stars	1	correct	0.765583396174407
29427	1	stim001_animate_aquatic_crab_1.png	1	animate	aquatic	crab	1	0	1	stars	1	correct	0.765583396174407
29627	1	stim022_animate_bird_chicken_2.png	22	animate	bird	chicken	2	0	1	stars	1	correct	0.765583396174407
29827	1	stim012_animate_aquatic_seahorse_4.png	12	animate	aquatic	seahorse	4	0	1	stars	1	correct	0.765583396174407
30027	1	stim110_inanimate_clothing_jeans_2.png	110	inanimate	clothing	jeans	2	0	1	stars	1	correct	0.765583396174407
30227	1	stim039_animate_bird_penguin_3.png	39	animate	bird	penguin	3	0	1	stars	1	correct	0.765583396174407
30427	1	stim172_inanimate_plants_sunflower_4.png	172	inanimate	plants	sunflower	4	0	1	stars	1	correct	0.765583396174407
30627	1	stim021_animate_bird_chicken_1.png	21	animate	bird	chicken	1	0	1	stars	1	correct	0.765583396174407
30827	1	stim090_animate_mammal_kangaroo_2.png	90	animate	mammal	kangaroo	2	0	1	stars	1	correct	0.765583396174407
31027	1	stim071_animate_insect_butterfly_3.png	71	animate	insect	butterfly	3	0	1	stars	1	correct	0.765583396174407
31227	1	stim048_animate_human_child_4.png	48	animate	human	child	4	0	1	stars	1	correct	0.765583396174407
31427	1	stim122_inanimate_fruits_apple_2.png	122	inanimate	fruits	apple	2	0	1	stars	1	correct	0.765583396174407
31627	1	stim177_inanimate_plants_tulip_1.png	177	inanimate	plants	tulip	1	0	1	stars	1	correct	0.765583396174407
31827	1	stim183_inanimate_tools_broom_3.png	183	inanimate	tools	broom	3	0	1	stars	1	correct	0.765583396174407
32027	1	stim159_inanimate_furniture_table_3.png	159	inanimate	furniture	table	3	0	1	stars	1	correct	0.765583396174407
32227	1	stim116_inanimate_clothing_shirt_4.png	116	inanimate	clothing	shirt	4	0	1	stars	1	correct	0.765583396174407
32427	1	stim082_animate_mammal_cow_2.png	82	animate	mammal	cow	2	0	1	stars	1	correct	0.765583396174407
32627	1	stim003_animate_aquatic_crab_3.png	3	animate	aquatic	crab	3	0	1	stars	1	correct	0.765583396174407
32827	1	stim161_inanimate_plants_bush_1.png	161	inanimate	plants	bush	1	0	1	stars	1	correct	0.765583396174407
33027	1	stim123_inanimate_fruits_apple_3.png	123	inanimate	fruits	apple	3	0	1	stars	1	correct	0.765583396174407
33227	1	stim085_animate_mammal_giraffe_1.png	85	animate	mammal	giraffe	1	0	1	stars	1	correct	0.765583396174407
33427	1	stim072_animate_insect_butterfly_4.png	72	animate	insect	butterfly	4	0	1	stars	1	correct	0.765583396174407
33627	1	stim144_inanimate_furniture_bed_4.png	144	inanimate	furniture	bed	4	0	1	stars	1	correct	0.765583396174407
33827	1	stim042_animate_human_baby_2.png	42	animate	human	baby	2	0	1	stars	1	correct	0.765583396174407
34027	1	stim162_inanimate_plants_bush_2.png	162	inanimate	plants	bush	2	0	1	stars	1	correct	0.765583396174407
34227	1	stim112_inanimate_clothing_jeans_4.png	112	inanimate	clothing	jeans	4	0	1	stars	1	correct	0.765583396174407
34427	1	stim065_animate_insect_bug_1.png	65	animate	insect	bug	1	0	1	stars	1	correct	0.765583396174407
34627	1	stim079_animate_insect_grasshopper_3.png	79	animate	insect	grasshopper	3	0	1	stars	1	correct	0.765583396174407
34827	1	stim165_inanimate_plants_cactus_1.png	165	inanimate	plants	cactus	1	0	1	stars	1	correct	0.765583396174407
35027	1	stim050_animate_human_clown_2.png	50	animate	human	clown	2	0	1	stars	1	correct	0.765583396174407
35227	1	stim127_inanimate_fruits_banana_3.png	127	inanimate	fruits	banana	3	0	1	stars	1	correct	0.765583396174407
35427	1	stim120_inanimate_clothing_socks_4.png	120	inanimate	clothing	socks	4	0	1	stars	1	correct	0.765583396174407
35627	1	stim184_inanimate_tools_broom_4.png	184	inanimate	tools	broom	4	0	1	stars	1	correct	0.765583396174407
35827	1	stim170_inanimate_plants_sunflower_2.png	170	inanimate	plants	sunflower	2	0	1	stars	1	correct	0.765583396174407
36027	1	stim107_inanimate_clothing_hat_3.png	107	inanimate	clothing	hat	3	0	1	stars	1	correct	0.765583396174407
36227	1	stim097_animate_mammal_rhino_1.png	97	animate	mammal	rhino	1	0	1	stars	1	correct	0.765583396174407
36427	1	stim129_inanimate_fruits_grape_1.png	129	inanimate	fruits	grape	1	0	1	stars	1	correct	0.765583396174407
36627	1	stim176_inanimate_plants_tree_4.png	176	inanimate	plants	tree	4	0	1	stars	1	correct	0.765583396174407
36827	1	stim061_animate_insect_ant_1.png	61	animate	insect	ant	1	0	1	stars	1	correct	0.765583396174407
37027	1	stim080_animate_insect_grasshopper_4.png	80	animate	insect	grasshopper	4	0	1	stars	1	correct	0.765583396174407
37227	1	stim058_animate_human_sports_2.png	58	animate	human	sports	2	0	1	stars	1	correct	0.765583396174407
37427	1	stim189_inanimate_tools_pan_1.png	189	inanimate	tools	pan	1	0	1	stars	1	correct	0.765583396174407
37627	1	stim173_inanimate_plants_tree_1.png	173	inanimate	plants	tree	1	0	1	stars	1	correct	0.765583396174407
37827	1	stim185_inanimate_tools_hammer_1.png	185	inanimate	tools	hammer	1	0	1	stars	1	correct	0.765583396174407
38027	1	stim098_animate_mammal_rhino_2.png	98	animate	mammal	rhino	2	0	1	stars	1	correct	0.765583396174407
38227	1	stim182_inanimate_tools_broom_2.png	182	inanimate	tools	broom	2	0	1	stars	1	correct	0.765583396174407
38427	1	stim210_targets_shapes_star_2.png	210	targets	shapes	star	2	1	1	stars	1	correct	0.765583396174407
38627	1	stim083_animate_mammal_cow_3.png	83	animate	mammal	cow	3	0	1	stars	1	correct	0.765583396174407
38827	1	stim141_inanimate_furniture_bed_1.png	141	inanimate	furniture	bed	1	0	1	stars	1	correct	0.765583396174407
39027	1	stim169_inanimate_plants_sunflower_1.png	169	inanimate	plants	sunflower	1	0	1	stars	1	correct	0.765583396174407
39227	1	stim163_inanimate_plants_bush_3.png	163	inanimate	plants	bush	3	0	1	stars	1	correct	0.765583396174407
39427	1	stim078_animate_insect_grasshopper_2.png	78	animate	insect	grasshopper	2	0	1	stars	1	correct	0.765583396174407
39627	1	stim101_inanimate_clothing_gloves_1.png	101	inanimate	clothing	gloves	1	0	1	stars	1	correct	0.765583396174407
39827	1	stim007_animate_aquatic_fish_3.png	7	animate	aquatic	fish	3	0	1	stars	1	correct	0.765583396174407
40027	1	stim130_inanimate_fruits_grape_2.png	130	inanimate	fruits	grape	2	0	1	stars	1	correct	0.765583396174407
40227	1	stim117_inanimate_clothing_socks_1.png	117	inanimate	clothing	socks	1	0	1	stars	1	correct	0.765583396174407
40427	1	stim053_animate_human_faces_1.png	53	animate	human	faces	1	0	1	stars	1	correct	0.765583396174407
40627	1	stim178_inanimate_plants_tulip_2.png	178	inanimate	plants	tulip	2	0	1	stars	1	correct	0.765583396174407
40827	1	stim084_animate_mammal_cow_4.png	84	animate	mammal	cow	4	0	1	stars	1	correct	0.765583396174407
41027	1	stim133_inanimate_fruits_pineapple_1.png	133	inanimate	fruits	pineapple	1	0	1	stars	1	correct	0.765583396174407
41227	1	stim052_animate_human_clown_4.png	52	animate	human	clown	4	0	1	stars	1	correct	0.765583396174407
41427	1	stim062_animate_insect_ant_2.png	62	animate	insect	ant	2	0	1	stars	1	correct	0.765583396174407
41627	1	stim157_inanimate_furniture_table_1.png	157	inanimate	furniture	table	1	0	1	stars	1	correct	0.765583396174407
41827	1	stim168_inanimate_plants_cactus_4.png	168	inanimate	plants	cactus	4	0	1	stars	1	correct	0.765583396174407
42027	1	stim027_animate_bird_duck_3.png	27	animate	bird	duck	3	0	1	stars	1	correct	0.765583396174407
42227	1	stim197_inanimate_tools_wrench_1.png	197	inanimate	tools	wrench	1	0	1	stars	1	correct	0.765583396174407
42427	1	stim093_animate_mammal_monkey_1.png	93	animate	mammal	monkey	1	0	1	stars	1	correct	0.765583396174407
42627	1	stim158_inanimate_furniture_table_2.png	158	inanimate	furniture	table	2	0	1	stars	1	correct	0.765583396174407
42827	1	stim181_inanimate_tools_broom_1.png	181	inanimate	tools	broom	1	0	1	stars	1	correct	0.765583396174407
43027	1	stim146_inanimate_furniture_chair_2.png	146	inanimate	furniture	chair	2	0	1	stars	1	correct	0.765583396174407
43227	1	stim191_inanimate_tools_pan_3.png	191	inanimate	tools	pan	3	0	1	stars	1	correct	0.765583396174407
43427	1	stim011_animate_aquatic_seahorse_3.png	11	animate	aquatic	seahorse	3	0	1	stars	1	correct	0.765583396174407
43627	1	stim066_animate_insect_bug_2.png	66	animate	insect	bug	2	0	1	stars	1	correct	0.765583396174407
43827	1	stim073_animate_insect_dragonfly_1.png	73	animate	insect	dragonfly	1	0	1	stars	1	correct	0.765583396174407
44027	1	stim026_animate_bird_duck_2.png	26	animate	bird	duck	2	0	1	stars	1	correct	0.765583396174407
44227	1	stim029_animate_bird_parrot_1.png	29	animate	bird	parrot	1	0	1	stars	1	correct	0.765583396174407
44427	1	stim145_inanimate_furniture_chair_1.png	145	inanimate	furniture	chair	1	0	1	stars	1	correct	0.765583396174407
44627	1	stim067_animate_insect_bug_3.png	67	animate	insect	bug	3	0	1	stars	1	correct	0.765583396174407
44827	1	stim089_animate_mammal_kangaroo_1.png	89	animate	mammal	kangaroo	1	0	1	stars	1	correct	0.765583396174407
45027	1	stim128_inanimate_fruits_banana_4.png	128	inanimate	fruits	banana	4	0	1	stars	1	correct	0.765583396174407
45227	1	stim175_inanimate_plants_tree_3.png	175	inanimate	plants	tree	3	0	1	stars	1	correct	0.765583396174407
45427	1	stim196_inanimate_tools_scissors_4.png	196	inanimate	tools	scissors	4	0	1	stars	1	correct	0.765583396174407
45627	1	stim074_animate_insect_dragonfly_2.png	74	animate	insect	dragonfly	2	0	1	stars	1	correct	0.765583396174407
45827	1	stim009_animate_aquatic_seahorse_1.png	9	animate	aquatic	seahorse	1	0	1	stars	1	correct	0.765583396174407
46027	1	stim063_animate_insect_ant_3.png	63	animate	insect	ant	3	0	1	stars	1	correct	0.765583396174407
46227	1	stim055_animate_human_faces_3.png	55	animate	human	faces	3	0	1	stars	1	correct	0.765583396174407
46427	1	stim020_animate_aquatic_shrimp_4.png	20	animate	aquatic	shrimp	4	0	1	stars	1	correct	0.765583396174407
46627	1	stim142_inanimate_furniture_bed_2.png	142	inanimate	furniture	bed	2	0	1	stars	1	correct	0.765583396174407
46827	1	stim114_inanimate_clothing_shirt_2.png	114	inanimate	clothing	shirt	2	0	1	stars	1	correct	0.765583396174407
47027	1	stim115_inanimate_clothing_shirt_3.png	115	inanimate	clothing	shirt	3	0	1	stars	1	correct	0.765583396174407
47227	1	stim035_animate_bird_peacock_3.png	35	animate	bird	peacock	3	0	1	stars	1	correct	0.765583396174407
47427	1	stim143_inanimate_furniture_bed_3.png	143	inanimate	furniture	bed	3	0	1	stars	1	correct	0.765583396174407
47627	1	stim108_inanimate_clothing_hat_4.png	108	inanimate	clothing	hat	4	0	1	stars	1	correct	0.765583396174407
47827	1	stim059_animate_human_sports_3.png	59	animate	human	sports	3	0	1	stars	1	correct	0.765583396174407
48027	1	stim099_animate_mammal_rhino_3.png	99	animate	mammal	rhino	3	0	1	stars	1	correct	0.765583396174407
48227	1	stim174_inanimate_plants_tree_2.png	174	inanimate	plants	tree	2	0	1	stars	1	correct	0.765583396174407
48427	1	stim081_animate_mammal_cow_1.png	81	animate	mammal	cow	1	0	1	stars	1	correct	0.765583396174407
48627	1	stim138_inanimate_fruits_strawberry_2.png	138	inanimate	fruits	strawberry	2	0	1	stars	1	correct	0.765583396174407
48827	1	stim193_inanimate_tools_scissors_1.png	193	inanimate	tools	scissors	1	0	1	stars	1	correct	0.765583396174407
49027	1	stim140_inanimate_fruits_strawberry_4.png	140	inanimate	fruits	strawberry	4	0	1	stars	1	correct	0.765583396174407
49227	1	stim119_inanimate_clothing_socks_3.png	119	inanimate	clothing	socks	3	0	1	stars	1	correct	0.765583396174407
49427	1	stim160_inanimate_furniture_table_4.png	160	inanimate	furniture	table	4	0	1	stars	1	correct	0.765583396174407
49627	1	stim102_inanimate_clothing_gloves_2.png	102	inanimate	clothing	gloves	2	0	1	stars	1	correct	0.765583396174407
49827	1	stim032_animate_bird_parrot_4.png	32	animate	bird	parrot	4	0	1	stars	1	correct	0.765583396174407
50027	1	stim025_animate_bird_duck_1.png	25	animate	bird	duck	1	0	1	stars	1	correct	0.765583396174407
50227	1	stim070_animate_insect_butterfly_2.png	70	animate	insect	butterfly	2	0	1	stars	1	correct	0.765583396174407
50427	1	stim064_animate_insect_ant_4.png	64	animate	insect	ant	4	0	1	stars	1	correct	0.765583396174407
50627	1	stim096_animate_mammal_monkey_4.png	96	animate	mammal	monkey	4	0	1	stars	1	correct	0.765583396174407
50827	1	stim190_inanimate_tools_pan_2.png	190	inanimate	tools	pan	2	0	1	stars	1	correct	0.765583396174407
51027	1	stim124_inanimate_fruits_apple_4.png	124	inanimate	fruits	apple	4	0	1	stars	1	correct	0.765583396174407
51227	1	stim171_inanimate_plants_sunflower_3.png	171	inanimate	plants	sunflower	3	0	1	stars	1	correct	0.765583396174407
51427	1	stim103_inanimate_clothing_gloves_3.png	103	inanimate	clothing	gloves	3	0	1	stars	1	correct	0.765583396174407
51627	1	stim109_inanimate_clothing_jeans_1.png	109	inanimate	clothing	jeans	1	0	1	stars	1	correct	0.765583396174407
51827	1	stim156_inanimate_furniture_sofa_4.png	156	inanimate	furniture	sofa	4	0	1	stars	1	correct	0.765583396174407
52027	1	stim194_inanimate_tools_scissors_2.png	194	inanimate	tools	scissors	2	0	1	stars	1	correct	0.765583396174407
52227	1	stim013_animate_aquatic_shark_1.png	13	animate	aquatic	shark	1	0	1	stars	1	correct	0.765583396174407
52427	1	stim166_inanimate_plants_cactus_2.png	166	inanimate	plants	cactus	2	0	1	stars	1	correct	0.765583396174407
52627	1	stim155_inanimate_furniture_sofa_3.png	155	inanimate	furniture	sofa	3	0	1	stars	1	correct	0.765583396174407
52827	1	stim199_inanimate_tools_wrench_3.png	199	inanimate	tools	wrench	3	0	1	stars	1	correct	0.765583396174407
53027	1	stim134_inanimate_fruits_pineapple_2.png	134	inanimate	fruits	pineapple	2	0	1	stars	1	correct	0.765583396174407
53227	1	stim154_inanimate_furniture_sofa_2.png	154	inanimate	furniture	sofa	2	0	1	stars	1	correct	0.765583396174407
53427	1	stim077_animate_insect_grasshopper_1.png	77	animate	insect	grasshopper	1	0	1	stars	1	correct	0.765583396174407
53627	1	stim153_inanimate_furniture_sofa_1.png	153	inanimate	furniture	sofa	1	0	1	stars	1	correct	0.765583396174407
53827	1	stim148_inanimate_furniture_chair_4.png	148	inanimate	furniture	chair	4	0	1	stars	1	correct	0.765583396174407
54027	1	stim041_animate_human_baby_1.png	41	animate	human	baby	1	0	1	stars	1	correct	0.765583396174407
54227	1	stim200_inanimate_tools_wrench_4.png	200	inanimate	tools	wrench	4	0	1	stars	1	correct	0.765583396174407
54427	1	stim091_animate_mammal_kangaroo_3.png	91	animate	mammal	kangaroo	3	0	1	stars	1	correct	0.765583396174407
54627	1	stim076_animate_insect_dragonfly_4.png	76	animate	insect	dragonfly	4	0	1	stars	1	correct	0.765583396174407
54827	1	stim028_animate_bird_duck_4.png	28	animate	bird	duck	4	0	1	stars	1	correct	0.765583396174407
55027	1	stim186_inanimate_tools_hammer_2.png	186	inanimate	tools	hammer	2	0	1	stars	1	correct	0.765583396174407
55227	1	stim126_inanimate_fruits_banana_2.png	126	inanimate	fruits	banana	2	0	1	stars	1	correct	0.765583396174407
55427	1	stim017_animate_aquatic_shrimp_1.png	17	animate	aquatic	shrimp	1	0	1	stars	1	correct	0.765583396174407
55627	1	stim023_animate_bird_chicken_3.png	23	animate	bird	chicken	3	0	1	stars	1	correct	0.765583396174407
55827	1	stim008_animate_aquatic_fish_4.png	8	animate	aquatic	fish	4	0	1	stars	1	correct	0.765583396174407
56027	1	stim047_animate_human_child_3.png	47	animate	human	child	3	0	1	stars	1	correct	0.765583396174407
56227	1	stim051_animate_human_clown_3.png	51	animate	human	clown	3	0	1	stars	1	correct	0.765583396174407
56427	1	stim002_animate_aquatic_crab_2.png	2	animate	aquatic	crab	2	0	1	stars	1	correct	0.765583396174407
56627	1	stim044_animate_human_baby_4.png	44	animate	human	baby	4	0	1	stars	1	correct	0.765583396174407
56827	1	stim192_inanimate_tools_pan_4.png	192	inanimate	tools	pan	4	0	1	stars	1	correct	0.765583396174407
57027	1	stim139_inanimate_fruits_strawberry_3.png	139	inanimate	fruits	strawberry	3	0	1	stars	1	correct	0.765583396174407
57227	1	stim149_inanimate_furniture_closet_1.png	149	inanimate	furniture	closet	1	0	1	stars	1	correct	0.765583396174407
57427	1	stim147_inanimate_furniture_chair_3.png	147	inanimate	furniture	chair	3	0	1	stars	1	correct	0.765583396174407
57627	1	stim152_inanimate_furniture_closet_4.png	152	inanimate	furniture	closet	4	0	1	stars	1	correct	0.765583396174407
57827	1	stim198_inanimate_tools_wrench_2.png	198	inanimate	tools	wrench	2	0	1	stars	1	correct	0.765583396174407
58027	1	stim040_animate_bird_penguin_4.png	40	animate	bird	penguin	4	0	1	stars	1	correct	0.765583396174407
58227	1	stim121_inanimate_fruits_apple_1.png	121	inanimate	fruits	apple	1	0	1	stars	1	correct	0.765583396174407
68728	1	stim185_inanimate_tools_hammer_1.png	185	inanimate	tools	hammer	1	0	2	boats	3	correct	0.754069487202287
68928	1	stim064_animate_insect_ant_4.png	64	animate	insect	ant	4	0	2	boats	3	correct	0.754069487202287
69128	1	stim012_animate_aquatic_seahorse_4.png	12	animate	aquatic	seahorse	4	0	2	boats	3	correct	0.754069487202287
69328	1	stim178_inanimate_plants_tulip_2.png	178	inanimate	plants	tulip	2	0	2	boats	3	correct	0.754069487202287
69528	1	stim133_inanimate_fruits_pineapple_1.png	133	inanimate	fruits	pineapple	1	0	2	boats	3	correct	0.754069487202287
69728	1	stim182_inanimate_tools_broom_2.png	182	inanimate	tools	broom	2	0	2	boats	3	correct	0.754069487202287
69928	1	stim118_inanimate_clothing_socks_2.png	118	inanimate	clothing	socks	2	0	2	boats	3	correct	0.754069487202287
70128	1	stim151_inanimate_furniture_closet_3.png	151	inanimate	furniture	closet	3	0	2	boats	3	correct	0.754069487202287
70328	1	stim007_animate_aquatic_fish_3.png	7	animate	aquatic	fish	3	0	2	boats	3	correct	0.754069487202287
70528	1	stim048_animate_human_child_4.png	48	animate	human	child	4	0	2	boats	3	correct	0.754069487202287
70728	1	stim091_animate_mammal_kangaroo_3.png	91	animate	mammal	kangaroo	3	0	2	boats	3	correct	0.754069487202287
70928	1	stim101_inanimate_clothing_gloves_1.png	101	inanimate	clothing	gloves	1	0	2	boats	3	correct	0.754069487202287
71128	1	stim019_animate_aquatic_shrimp_3.png	19	animate	aquatic	shrimp	3	0	2	boats	3	correct	0.754069487202287
71328	1	stim143_inanimate_furniture_bed_3.png	143	inanimate	furniture	bed	3	0	2	boats	3	correct	0.754069487202287
71528	1	stim142_inanimate_furniture_bed_2.png	142	inanimate	furniture	bed	2	0	2	boats	3	correct	0.754069487202287
71728	1	stim187_inanimate_tools_hammer_3.png	187	inanimate	tools	hammer	3	0	2	boats	3	correct	0.754069487202287
71928	1	stim039_animate_bird_penguin_3.png	39	animate	bird	penguin	3	0	2	boats	3	correct	0.754069487202287
72128	1	stim001_animate_aquatic_crab_1.png	1	animate	aquatic	crab	1	0	2	boats	3	correct	0.754069487202287
72328	1	stim023_animate_bird_chicken_3.png	23	animate	bird	chicken	3	0	2	boats	3	correct	0.754069487202287
72528	1	stim044_animate_human_baby_4.png	44	animate	human	baby	4	0	2	boats	3	correct	0.754069487202287
72728	1	stim021_animate_bird_chicken_1.png	21	animate	bird	chicken	1	0	2	boats	3	correct	0.754069487202287
72928	1	stim181_inanimate_tools_broom_1.png	181	inanimate	tools	broom	1	0	2	boats	3	correct	0.754069487202287
73128	1	stim031_animate_bird_parrot_3.png	31	animate	bird	parrot	3	0	2	boats	3	correct	0.754069487202287
73328	1	stim107_inanimate_clothing_hat_3.png	107	inanimate	clothing	hat	3	0	2	boats	3	correct	0.754069487202287
73528	1	stim080_animate_insect_grasshopper_4.png	80	animate	insect	grasshopper	4	0	2	boats	3	correct	0.754069487202287
73728	1	stim053_animate_human_faces_1.png	53	animate	human	faces	1	0	2	boats	3	correct	0.754069487202287
73928	1	stim027_animate_bird_duck_3.png	27	animate	bird	duck	3	0	2	boats	3	correct	0.754069487202287
74128	1	stim149_inanimate_furniture_closet_1.png	149	inanimate	furniture	closet	1	0	2	boats	3	correct	0.754069487202287
74328	1	stim006_animate_aquatic_fish_2.png	6	animate	aquatic	fish	2	0	2	boats	3	correct	0.754069487202287
74528	1	stim177_inanimate_plants_tulip_1.png	177	inanimate	plants	tulip	1	0	2	boats	3	correct	0.754069487202287
74728	1	stim024_animate_bird_chicken_4.png	24	animate	bird	chicken	4	0	2	boats	3	correct	0.754069487202287
74928	1	stim076_animate_insect_dragonfly_4.png	76	animate	insect	dragonfly	4	0	2	boats	3	correct	0.754069487202287
75128	1	stim112_inanimate_clothing_jeans_4.png	112	inanimate	clothing	jeans	4	0	2	boats	3	correct	0.754069487202287
75328	1	stim047_animate_human_child_3.png	47	animate	human	child	3	0	2	boats	3	correct	0.754069487202287
75528	1	stim072_animate_insect_butterfly_4.png	72	animate	insect	butterfly	4	0	2	boats	3	correct	0.754069487202287
75728	1	stim158_inanimate_furniture_table_2.png	158	inanimate	furniture	table	2	0	2	boats	3	correct	0.754069487202287
75928	1	stim026_animate_bird_duck_2.png	26	animate	bird	duck	2	0	2	boats	3	correct	0.754069487202287
76128	1	stim052_animate_human_clown_4.png	52	animate	human	clown	4	0	2	boats	3	correct	0.754069487202287
76328	1	stim082_animate_mammal_cow_2.png	82	animate	mammal	cow	2	0	2	boats	3	correct	0.754069487202287
76528	1	stim184_inanimate_tools_broom_4.png	184	inanimate	tools	broom	4	0	2	boats	3	correct	0.754069487202287
76728	1	stim191_inanimate_tools_pan_3.png	191	inanimate	tools	pan	3	0	2	boats	3	correct	0.754069487202287
76928	1	stim010_animate_aquatic_seahorse_2.png	10	animate	aquatic	seahorse	2	0	2	boats	3	correct	0.754069487202287
77128	1	stim163_inanimate_plants_bush_3.png	163	inanimate	plants	bush	3	0	2	boats	3	correct	0.754069487202287
77328	1	stim160_inanimate_furniture_table_4.png	160	inanimate	furniture	table	4	0	2	boats	3	correct	0.754069487202287
77528	1	stim034_animate_bird_peacock_2.png	34	animate	bird	peacock	2	0	2	boats	3	correct	0.754069487202287
77728	1	stim113_inanimate_clothing_shirt_1.png	113	inanimate	clothing	shirt	1	0	2	boats	3	correct	0.754069487202287
77928	1	stim147_inanimate_furniture_chair_3.png	147	inanimate	furniture	chair	3	0	2	boats	3	correct	0.754069487202287
78128	1	stim028_animate_bird_duck_4.png	28	animate	bird	duck	4	0	2	boats	3	correct	0.754069487202287
78328	1	stim085_animate_mammal_giraffe_1.png	85	animate	mammal	giraffe	1	0	2	boats	3	correct	0.754069487202287
78528	1	stim011_animate_aquatic_seahorse_3.png	11	animate	aquatic	seahorse	3	0	2	boats	3	correct	0.754069487202287
78728	1	stim150_inanimate_furniture_closet_2.png	150	inanimate	furniture	closet	2	0	2	boats	3	correct	0.754069487202287
78928	1	stim167_inanimate_plants_cactus_3.png	167	inanimate	plants	cactus	3	0	2	boats	3	correct	0.754069487202287
79128	1	stim140_inanimate_fruits_strawberry_4.png	140	inanimate	fruits	strawberry	4	0	2	boats	3	correct	0.754069487202287
79328	1	stim088_animate_mammal_giraffe_4.png	88	animate	mammal	giraffe	4	0	2	boats	3	correct	0.754069487202287
79528	1	stim071_animate_insect_butterfly_3.png	71	animate	insect	butterfly	3	0	2	boats	3	correct	0.754069487202287
79728	1	stim005_animate_aquatic_fish_1.png	5	animate	aquatic	fish	1	0	2	boats	3	correct	0.754069487202287
79928	1	stim050_animate_human_clown_2.png	50	animate	human	clown	2	0	2	boats	3	correct	0.754069487202287
80128	1	stim090_animate_mammal_kangaroo_2.png	90	animate	mammal	kangaroo	2	0	2	boats	3	correct	0.754069487202287
80328	1	stim135_inanimate_fruits_pineapple_3.png	135	inanimate	fruits	pineapple	3	0	2	boats	3	correct	0.754069487202287
80528	1	stim137_inanimate_fruits_strawberry_1.png	137	inanimate	fruits	strawberry	1	0	2	boats	3	correct	0.754069487202287
80728	1	stim165_inanimate_plants_cactus_1.png	165	inanimate	plants	cactus	1	0	2	boats	3	correct	0.754069487202287
80928	1	stim198_inanimate_tools_wrench_2.png	198	inanimate	tools	wrench	2	0	2	boats	3	correct	0.754069487202287
81128	1	stim136_inanimate_fruits_pineapple_4.png	136	inanimate	fruits	pineapple	4	0	2	boats	3	correct	0.754069487202287
81328	1	stim014_animate_aquatic_shark_2.png	14	animate	aquatic	shark	2	0	2	boats	3	correct	0.754069487202287
81528	1	stim202_targets_object_boats_2.png	202	targets	object	boats	2	1	2	boats	3	correct	0.754069487202287
81728	1	stim196_inanimate_tools_scissors_4.png	196	inanimate	tools	scissors	4	0	2	boats	3	correct	0.754069487202287
81928	1	stim016_animate_aquatic_shark_4.png	16	animate	aquatic	shark	4	0	2	boats	3	correct	0.754069487202287
82128	1	stim176_inanimate_plants_tree_4.png	176	inanimate	plants	tree	4	0	2	boats	3	correct	0.754069487202287
82328	1	stim051_animate_human_clown_3.png	51	animate	human	clown	3	0	2	boats	3	correct	0.754069487202287
82528	1	stim084_animate_mammal_cow_4.png	84	animate	mammal	cow	4	0	2	boats	3	correct	0.754069487202287
82728	1	stim017_animate_aquatic_shrimp_1.png	17	animate	aquatic	shrimp	1	0	2	boats	3	correct	0.754069487202287
82928	1	stim114_inanimate_clothing_shirt_2.png	114	inanimate	clothing	shirt	2	0	2	boats	3	correct	0.754069487202287
83128	1	stim083_animate_mammal_cow_3.png	83	animate	mammal	cow	3	0	2	boats	3	correct	0.754069487202287
83328	1	stim117_inanimate_clothing_socks_1.png	117	inanimate	clothing	socks	1	0	2	boats	3	correct	0.754069487202287
83528	1	stim193_inanimate_tools_scissors_1.png	193	inanimate	tools	scissors	1	0	2	boats	3	correct	0.754069487202287
83728	1	stim168_inanimate_plants_cactus_4.png	168	inanimate	plants	cactus	4	0	2	boats	3	correct	0.754069487202287
83928	1	stim195_inanimate_tools_scissors_3.png	195	inanimate	tools	scissors	3	0	2	boats	3	correct	0.754069487202287
84128	1	stim035_animate_bird_peacock_3.png	35	animate	bird	peacock	3	0	2	boats	3	correct	0.754069487202287
84328	1	stim121_inanimate_fruits_apple_1.png	121	inanimate	fruits	apple	1	0	2	boats	3	correct	0.754069487202287
84528	1	stim025_animate_bird_duck_1.png	25	animate	bird	duck	1	0	2	boats	3	correct	0.754069487202287
84728	1	stim099_animate_mammal_rhino_3.png	99	animate	mammal	rhino	3	0	2	boats	3	correct	0.754069487202287
84928	1	stim164_inanimate_plants_bush_4.png	164	inanimate	plants	bush	4	0	2	boats	3	correct	0.754069487202287
85128	1	stim003_animate_aquatic_crab_3.png	3	animate	aquatic	crab	3	0	2	boats	3	correct	0.754069487202287
85328	1	stim200_inanimate_tools_wrench_4.png	200	inanimate	tools	wrench	4	0	2	boats	3	correct	0.754069487202287
85528	1	stim157_inanimate_furniture_table_1.png	157	inanimate	furniture	table	1	0	2	boats	3	correct	0.754069487202287
85728	1	stim096_animate_mammal_monkey_4.png	96	animate	mammal	monkey	4	0	2	boats	3	correct	0.754069487202287
85928	1	stim079_animate_insect_grasshopper_3.png	79	animate	insect	grasshopper	3	0	2	boats	3	correct	0.754069487202287
86128	1	stim002_animate_aquatic_crab_2.png	2	animate	aquatic	crab	2	0	2	boats	3	correct	0.754069487202287
86328	1	stim081_animate_mammal_cow_1.png	81	animate	mammal	cow	1	0	2	boats	3	correct	0.754069487202287
86528	1	stim087_animate_mammal_giraffe_3.png	87	animate	mammal	giraffe	3	0	2	boats	3	correct	0.754069487202287
86728	1	stim148_inanimate_furniture_chair_4.png	148	inanimate	furniture	chair	4	0	2	boats	3	correct	0.754069487202287
86928	1	stim042_animate_human_baby_2.png	42	animate	human	baby	2	0	2	boats	3	correct	0.754069487202287
87128	1	stim057_animate_human_sports_1.png	57	animate	human	sports	1	0	2	boats	3	correct	0.754069487202287
87328	1	stim186_inanimate_tools_hammer_2.png	186	inanimate	tools	hammer	2	0	2	boats	3	correct	0.754069487202287
87528	1	stim004_animate_aquatic_crab_4.png	4	animate	aquatic	crab	4	0	2	boats	3	correct	0.754069487202287
87728	1	stim046_animate_human_child_2.png	46	animate	human	child	2	0	2	boats	3	correct	0.754069487202287
87928	1	stim068_animate_insect_bug_4.png	68	animate	insect	bug	4	0	2	boats	3	correct	0.754069487202287
88128	1	stim207_targets_object_boats_3.png	207	targets	object	boats	3	1	2	boats	3	correct	0.754069487202287
88328	1	stim134_inanimate_fruits_pineapple_2.png	134	inanimate	fruits	pineapple	2	0	2	boats	3	correct	0.754069487202287
88528	1	stim094_animate_mammal_monkey_2.png	94	animate	mammal	monkey	2	0	2	boats	3	correct	0.754069487202287
88728	1	stim040_animate_bird_penguin_4.png	40	animate	bird	penguin	4	0	2	boats	3	correct	0.754069487202287
88928	1	stim120_inanimate_clothing_socks_4.png	120	inanimate	clothing	socks	4	0	2	boats	3	correct	0.754069487202287
89128	1	stim108_inanimate_clothing_hat_4.png	108	inanimate	clothing	hat	4	0	2	boats	3	correct	0.754069487202287
89328	1	stim098_animate_mammal_rhino_2.png	98	animate	mammal	rhino	2	0	2	boats	3	correct	0.754069487202287
89528	1	stim161_inanimate_plants_bush_1.png	161	inanimate	plants	bush	1	0	2	boats	3	correct	0.754069487202287
89728	1	stim045_animate_human_child_1.png	45	animate	human	child	1	0	2	boats	3	correct	0.754069487202287
89928	1	stim015_animate_aquatic_shark_3.png	15	animate	aquatic	shark	3	0	2	boats	3	correct	0.754069487202287
90128	1	stim062_animate_insect_ant_2.png	62	animate	insect	ant	2	0	2	boats	3	correct	0.754069487202287
90328	1	stim162_inanimate_plants_bush_2.png	162	inanimate	plants	bush	2	0	2	boats	3	correct	0.754069487202287
90528	1	stim145_inanimate_furniture_chair_1.png	145	inanimate	furniture	chair	1	0	2	boats	3	correct	0.754069487202287
90728	1	stim054_animate_human_faces_2.png	54	animate	human	faces	2	0	2	boats	3	correct	0.754069487202287
90928	1	stim126_inanimate_fruits_banana_2.png	126	inanimate	fruits	banana	2	0	2	boats	3	correct	0.754069487202287
91128	1	stim032_animate_bird_parrot_4.png	32	animate	bird	parrot	4	0	2	boats	3	correct	0.754069487202287
91328	1	stim095_animate_mammal_monkey_3.png	95	animate	mammal	monkey	3	0	2	boats	3	correct	0.754069487202287
91528	1	stim119_inanimate_clothing_socks_3.png	119	inanimate	clothing	socks	3	0	2	boats	3	correct	0.754069487202287
91728	1	stim141_inanimate_furniture_bed_1.png	141	inanimate	furniture	bed	1	0	2	boats	3	correct	0.754069487202287
91928	1	stim109_inanimate_clothing_jeans_1.png	109	inanimate	clothing	jeans	1	0	2	boats	3	correct	0.754069487202287
92128	1	stim124_inanimate_fruits_apple_4.png	124	inanimate	fruits	apple	4	0	2	boats	3	correct	0.754069487202287
92328	1	stim152_inanimate_furniture_closet_4.png	152	inanimate	furniture	closet	4	0	2	boats	3	correct	0.754069487202287
92528	1	stim036_animate_bird_peacock_4.png	36	animate	bird	peacock	4	0	2	boats	3	correct	0.754069487202287
92728	1	stim105_inanimate_clothing_hat_1.png	105	inanimate	clothing	hat	1	0	2	boats	3	correct	0.754069487202287
92928	1	stim194_inanimate_tools_scissors_2.png	194	inanimate	tools	scissors	2	0	2	boats	3	correct	0.754069487202287
93128	1	stim013_animate_aquatic_shark_1.png	13	animate	aquatic	shark	1	0	2	boats	3	correct	0.754069487202287
93328	1	stim115_inanimate_clothing_shirt_3.png	115	inanimate	clothing	shirt	3	0	2	boats	3	correct	0.754069487202287
93528	1	stim122_inanimate_fruits_apple_2.png	122	inanimate	fruits	apple	2	0	2	boats	3	correct	0.754069487202287
93728	1	stim154_inanimate_furniture_sofa_2.png	154	inanimate	furniture	sofa	2	0	2	boats	3	correct	0.754069487202287
93928	1	stim125_inanimate_fruits_banana_1.png	125	inanimate	fruits	banana	1	0	2	boats	3	correct	0.754069487202287
94128	1	stim138_inanimate_fruits_strawberry_2.png	138	inanimate	fruits	strawberry	2	0	2	boats	3	correct	0.754069487202287
94328	1	stim172_inanimate_plants_sunflower_4.png	172	inanimate	plants	sunflower	4	0	2	boats	3	correct	0.754069487202287
94528	1	stim049_animate_human_clown_1.png	49	animate	human	clown	1	0	2	boats	3	correct	0.754069487202287
94728	1	stim030_animate_bird_parrot_2.png	30	animate	bird	parrot	2	0	2	boats	3	correct	0.754069487202287
94928	1	stim063_animate_insect_ant_3.png	63	animate	insect	ant	3	0	2	boats	3	correct	0.754069487202287
95128	1	stim146_inanimate_furniture_chair_2.png	146	inanimate	furniture	chair	2	0	2	boats	3	correct	0.754069487202287
95328	1	stim175_inanimate_plants_tree_3.png	175	inanimate	plants	tree	3	0	2	boats	3	correct	0.754069487202287
95528	1	stim128_inanimate_fruits_banana_4.png	128	inanimate	fruits	banana	4	0	2	boats	3	correct	0.754069487202287
95728	1	stim041_animate_human_baby_1.png	41	animate	human	baby	1	0	2	boats	3	correct	0.754069487202287
95928	1	stim103_inanimate_clothing_gloves_3.png	103	inanimate	clothing	gloves	3	0	2	boats	3	correct	0.754069487202287
96128	1	stim130_inanimate_fruits_grape_2.png	130	inanimate	fruits	grape	2	0	2	boats	3	correct	0.754069487202287
96328	1	stim201_targets_object_boats_1.png	201	targets	object	boats	1	1	2	boats	3	correct	0.754069487202287
96528	1	stim065_animate_insect_bug_1.png	65	animate	insect	bug	1	0	2	boats	3	correct	0.754069487202287
96728	1	stim156_inanimate_furniture_sofa_4.png	156	inanimate	furniture	sofa	4	0	2	boats	3	correct	0.754069487202287
96928	1	stim127_inanimate_fruits_banana_3.png	127	inanimate	fruits	banana	3	0	2	boats	3	correct	0.754069487202287
97128	1	stim070_animate_insect_butterfly_2.png	70	animate	insect	butterfly	2	0	2	boats	3	correct	0.754069487202287
97328	1	stim166_inanimate_plants_cactus_2.png	166	inanimate	plants	cactus	2	0	2	boats	3	correct	0.754069487202287
97528	1	stim086_animate_mammal_giraffe_2.png	86	animate	mammal	giraffe	2	0	2	boats	3	correct	0.754069487202287
97728	1	stim020_animate_aquatic_shrimp_4.png	20	animate	aquatic	shrimp	4	0	2	boats	3	correct	0.754069487202287
97928	1	stim075_animate_insect_dragonfly_3.png	75	animate	insect	dragonfly	3	0	2	boats	3	correct	0.754069487202287
98128	1	stim171_inanimate_plants_sunflower_3.png	171	inanimate	plants	sunflower	3	0	2	boats	3	correct	0.754069487202287
98328	1	stim144_inanimate_furniture_bed_4.png	144	inanimate	furniture	bed	4	0	2	boats	3	correct	0.754069487202287
98528	1	stim155_inanimate_furniture_sofa_3.png	155	inanimate	furniture	sofa	3	0	2	boats	3	correct	0.754069487202287
98728	1	stim038_animate_bird_penguin_2.png	38	animate	bird	penguin	2	0	2	boats	3	correct	0.754069487202287
98928	1	stim043_animate_human_baby_3.png	43	animate	human	baby	3	0	2	boats	3	correct	0.754069487202287
99128	1	stim169_inanimate_plants_sunflower_1.png	169	inanimate	plants	sunflower	1	0	2	boats	3	correct	0.754069487202287
99328	1	stim132_inanimate_fruits_grape_4.png	132	inanimate	fruits	grape	4	0	2	boats	3	correct	0.754069487202287
99528	1	stim073_animate_insect_dragonfly_1.png	73	animate	insect	dragonfly	1	0	2	boats	3	correct	0.754069487202287
99728	1	stim116_inanimate_clothing_shirt_4.png	116	inanimate	clothing	shirt	4	0	2	boats	3	correct	0.754069487202287
99928	1	stim129_inanimate_fruits_grape_1.png	129	inanimate	fruits	grape	1	0	2	boats	3	correct	0.754069487202287
100128	1	stim104_inanimate_clothing_gloves_4.png	104	inanimate	clothing	gloves	4	0	2	boats	3	correct	0.754069487202287
100328	1	stim190_inanimate_tools_pan_2.png	190	inanimate	tools	pan	2	0	2	boats	3	correct	0.754069487202287
100528	1	stim061_animate_insect_ant_1.png	61	animate	insect	ant	1	0	2	boats	3	correct	0.754069487202287
100728	1	stim066_animate_insect_bug_2.png	66	animate	insect	bug	2	0	2	boats	3	correct	0.754069487202287
100928	1	stim170_inanimate_plants_sunflower_2.png	170	inanimate	plants	sunflower	2	0	2	boats	3	correct	0.754069487202287
101128	1	stim123_inanimate_fruits_apple_3.png	123	inanimate	fruits	apple	3	0	2	boats	3	correct	0.754069487202287
101328	1	stim059_animate_human_sports_3.png	59	animate	human	sports	3	0	2	boats	3	correct	0.754069487202287
101528	1	stim037_animate_bird_penguin_1.png	37	animate	bird	penguin	1	0	2	boats	3	correct	0.754069487202287
101728	1	stim018_animate_aquatic_shrimp_2.png	18	animate	aquatic	shrimp	2	0	2	boats	3	correct	0.754069487202287
101928	1	stim009_animate_aquatic_seahorse_1.png	9	animate	aquatic	seahorse	1	0	2	boats	3	correct	0.754069487202287
102128	1	stim139_inanimate_fruits_strawberry_3.png	139	inanimate	fruits	strawberry	3	0	2	boats	3	correct	0.754069487202287
102328	1	stim078_animate_insect_grasshopper_2.png	78	animate	insect	grasshopper	2	0	2	boats	3	correct	0.754069487202287
102528	1	stim174_inanimate_plants_tree_2.png	174	inanimate	plants	tree	2	0	2	boats	3	correct	0.754069487202287
102728	1	stim058_animate_human_sports_2.png	58	animate	human	sports	2	0	2	boats	3	correct	0.754069487202287
102928	1	stim173_inanimate_plants_tree_1.png	173	inanimate	plants	tree	1	0	2	boats	3	correct	0.754069487202287
103128	1	stim089_animate_mammal_kangaroo_1.png	89	animate	mammal	kangaroo	1	0	2	boats	3	correct	0.754069487202287
103328	1	stim110_inanimate_clothing_jeans_2.png	110	inanimate	clothing	jeans	2	0	2	boats	3	correct	0.754069487202287
103528	1	stim179_inanimate_plants_tulip_3.png	179	inanimate	plants	tulip	3	0	2	boats	3	correct	0.754069487202287
103728	1	stim189_inanimate_tools_pan_1.png	189	inanimate	tools	pan	1	0	2	boats	3	correct	0.754069487202287
103928	1	stim180_inanimate_plants_tulip_4.png	180	inanimate	plants	tulip	4	0	2	boats	3	correct	0.754069487202287
104128	1	stim106_inanimate_clothing_hat_2.png	106	inanimate	clothing	hat	2	0	2	boats	3	correct	0.754069487202287
104328	1	stim067_animate_insect_bug_3.png	67	animate	insect	bug	3	0	2	boats	3	correct	0.754069487202287
104528	1	stim188_inanimate_tools_hammer_4.png	188	inanimate	tools	hammer	4	0	2	boats	3	correct	0.754069487202287
104728	1	stim029_animate_bird_parrot_1.png	29	animate	bird	parrot	1	0	2	boats	3	correct	0.754069487202287
104928	1	stim093_animate_mammal_monkey_1.png	93	animate	mammal	monkey	1	0	2	boats	3	correct	0.754069487202287
105128	1	stim077_animate_insect_grasshopper_1.png	77	animate	insect	grasshopper	1	0	2	boats	3	correct	0.754069487202287
105328	1	stim199_inanimate_tools_wrench_3.png	199	inanimate	tools	wrench	3	0	2	boats	3	correct	0.754069487202287
105528	1	stim159_inanimate_furniture_table_3.png	159	inanimate	furniture	table	3	0	2	boats	3	correct	0.754069487202287
105728	1	stim131_inanimate_fruits_grape_3.png	131	inanimate	fruits	grape	3	0	2	boats	3	correct	0.754069487202287
105928	1	stim055_animate_human_faces_3.png	55	animate	human	faces	3	0	2	boats	3	correct	0.754069487202287
106128	1	stim192_inanimate_tools_pan_4.png	192	inanimate	tools	pan	4	0	2	boats	3	correct	0.754069487202287
106328	1	stim100_animate_mammal_rhino_4.png	100	animate	mammal	rhino	4	0	2	boats	3	correct	0.754069487202287
106528	1	stim074_animate_insect_dragonfly_2.png	74	animate	insect	dragonfly	2	0	2	boats	3	correct	0.754069487202287
106728	1	stim022_animate_bird_chicken_2.png	22	animate	bird	chicken	2	0	2	boats	3	correct	0.754069487202287
106928	1	stim097_animate_mammal_rhino_1.png	97	animate	mammal	rhino	1	0	2	boats	3	correct	0.754069487202287
107128	1	stim197_inanimate_tools_wrench_1.png	197	inanimate	tools	wrench	1	0	2	boats	3	correct	0.754069487202287
107328	1	stim092_animate_mammal_kangaroo_4.png	92	animate	mammal	kangaroo	4	0	2	boats	3	correct	0.754069487202287
107529	1	stim069_animate_insect_butterfly_1.png	69	animate	insect	butterfly	1	0	2	boats	3	correct	0.754069487202287
107729	1	stim056_animate_human_faces_4.png	56	animate	human	faces	4	0	2	boats	3	correct	0.754069487202287
107929	1	stim111_inanimate_clothing_jeans_3.png	111	inanimate	clothing	jeans	3	0	2	boats	3	correct	0.754069487202287
108129	1	stim153_inanimate_furniture_sofa_1.png	153	inanimate	furniture	sofa	1	0	2	boats	3	correct	0.754069487202287
108329	1	stim060_animate_human_sports_4.png	60	animate	human	sports	4	0	2	boats	3	correct	0.754069487202287
108529	1	stim102_inanimate_clothing_gloves_2.png	102	inanimate	clothing	gloves	2	0	2	boats	3	correct	0.754069487202287
108729	1	stim008_animate_aquatic_fish_4.png	8	animate	aquatic	fish	4	0	2	boats	3	correct	0.754069487202287
108929	1	stim033_animate_bird_peacock_1.png	33	animate	bird	peacock	1	0	2	boats	3	correct	0.754069487202287
109129	1	stim183_inanimate_tools_broom_3.png	183	inanimate	tools	broom	3	0	2	boats	3	correct	0.754069487202287
113229	1	stim133_inanimate_fruits_pineapple_1.png	133	inanimate	fruits	pineapple	1	0	3	stars	4	correct	1.09661589819007
113429	1	stim157_inanimate_furniture_table_1.png	157	inanimate	furniture	table	1	0	3	stars	4	correct	1.09661589819007
113629	1	stim012_animate_aquatic_seahorse_4.png	12	animate	aquatic	seahorse	4	0	3	stars	4	correct	1.09661589819007
113829	1	stim043_animate_human_baby_3.png	43	animate	human	baby	3	0	3	stars	4	correct	1.09661589819007
114029	1	stim126_inanimate_fruits_banana_2.png	126	inanimate	fruits	banana	2	0	3	stars	4	correct	1.09661589819007
114229	1	stim081_animate_mammal_cow_1.png	81	animate	mammal	cow	1	0	3	stars	4	correct	1.09661589819007
114429	1	stim108_inanimate_clothing_hat_4.png	108	inanimate	clothing	hat	4	0	3	stars	4	correct	1.09661589819007
114629	1	stim119_inanimate_clothing_socks_3.png	119	inanimate	clothing	socks	3	0	3	stars	4	correct	1.09661589819007
114829	1	stim160_inanimate_furniture_table_4.png	160	inanimate	furniture	table	4	0	3	stars	4	correct	1.09661589819007
115029	1	stim050_animate_human_clown_2.png	50	animate	human	clown	2	0	3	stars	4	correct	1.09661589819007
115229	1	stim028_animate_bird_duck_4.png	28	animate	bird	duck	4	0	3	stars	4	correct	1.09661589819007
115429	1	stim089_animate_mammal_kangaroo_1.png	89	animate	mammal	kangaroo	1	0	3	stars	4	correct	1.09661589819007
115629	1	stim097_animate_mammal_rhino_1.png	97	animate	mammal	rhino	1	0	3	stars	4	correct	1.09661589819007
115829	1	stim075_animate_insect_dragonfly_3.png	75	animate	insect	dragonfly	3	0	3	stars	4	correct	1.09661589819007
116029	1	stim054_animate_human_faces_2.png	54	animate	human	faces	2	0	3	stars	4	correct	1.09661589819007
116229	1	stim162_inanimate_plants_bush_2.png	162	inanimate	plants	bush	2	0	3	stars	4	correct	1.09661589819007
116429	1	stim104_inanimate_clothing_gloves_4.png	104	inanimate	clothing	gloves	4	0	3	stars	4	correct	1.09661589819007
116629	1	stim180_inanimate_plants_tulip_4.png	180	inanimate	plants	tulip	4	0	3	stars	4	correct	1.09661589819007
116829	1	stim182_inanimate_tools_broom_2.png	182	inanimate	tools	broom	2	0	3	stars	4	correct	1.09661589819007
117029	1	stim052_animate_human_clown_4.png	52	animate	human	clown	4	0	3	stars	4	correct	1.09661589819007
117229	1	stim129_inanimate_fruits_grape_1.png	129	inanimate	fruits	grape	1	0	3	stars	4	correct	1.09661589819007
117429	1	stim078_animate_insect_grasshopper_2.png	78	animate	insect	grasshopper	2	0	3	stars	4	correct	1.09661589819007
117629	1	stim191_inanimate_tools_pan_3.png	191	inanimate	tools	pan	3	0	3	stars	4	correct	1.09661589819007
117829	1	stim193_inanimate_tools_scissors_1.png	193	inanimate	tools	scissors	1	0	3	stars	4	correct	1.09661589819007
118029	1	stim154_inanimate_furniture_sofa_2.png	154	inanimate	furniture	sofa	2	0	3	stars	4	correct	1.09661589819007
118229	1	stim144_inanimate_furniture_bed_4.png	144	inanimate	furniture	bed	4	0	3	stars	4	correct	1.09661589819007
118429	1	stim169_inanimate_plants_sunflower_1.png	169	inanimate	plants	sunflower	1	0	3	stars	4	correct	1.09661589819007
118629	1	stim036_animate_bird_peacock_4.png	36	animate	bird	peacock	4	0	3	stars	4	correct	1.09661589819007
118829	1	stim128_inanimate_fruits_banana_4.png	128	inanimate	fruits	banana	4	0	3	stars	4	correct	1.09661589819007
119029	1	stim045_animate_human_child_1.png	45	animate	human	child	1	0	3	stars	4	correct	1.09661589819007
119229	1	stim029_animate_bird_parrot_1.png	29	animate	bird	parrot	1	0	3	stars	4	correct	1.09661589819007
119429	1	stim088_animate_mammal_giraffe_4.png	88	animate	mammal	giraffe	4	0	3	stars	4	correct	1.09661589819007
119629	1	stim048_animate_human_child_4.png	48	animate	human	child	4	0	3	stars	4	correct	1.09661589819007
119829	1	stim171_inanimate_plants_sunflower_3.png	171	inanimate	plants	sunflower	3	0	3	stars	4	correct	1.09661589819007
120029	1	stim142_inanimate_furniture_bed_2.png	142	inanimate	furniture	bed	2	0	3	stars	4	correct	1.09661589819007
120229	1	stim025_animate_bird_duck_1.png	25	animate	bird	duck	1	0	3	stars	4	correct	1.09661589819007
120429	1	stim118_inanimate_clothing_socks_2.png	118	inanimate	clothing	socks	2	0	3	stars	4	correct	1.09661589819007
120629	1	stim002_animate_aquatic_crab_2.png	2	animate	aquatic	crab	2	0	3	stars	4	correct	1.09661589819007
120829	1	stim192_inanimate_tools_pan_4.png	192	inanimate	tools	pan	4	0	3	stars	4	correct	1.09661589819007
121029	1	stim146_inanimate_furniture_chair_2.png	146	inanimate	furniture	chair	2	0	3	stars	4	correct	1.09661589819007
121229	1	stim145_inanimate_furniture_chair_1.png	145	inanimate	furniture	chair	1	0	3	stars	4	correct	1.09661589819007
121429	1	stim019_animate_aquatic_shrimp_3.png	19	animate	aquatic	shrimp	3	0	3	stars	4	correct	1.09661589819007
121629	1	stim216_targets_shapes_star_4.png	216	targets	shapes	star	4	1	3	stars	4	correct	1.09661589819007
121829	1	stim152_inanimate_furniture_closet_4.png	152	inanimate	furniture	closet	4	0	3	stars	4	correct	1.09661589819007
122029	1	stim124_inanimate_fruits_apple_4.png	124	inanimate	fruits	apple	4	0	3	stars	4	correct	1.09661589819007
122229	1	stim127_inanimate_fruits_banana_3.png	127	inanimate	fruits	banana	3	0	3	stars	4	correct	1.09661589819007
122429	1	stim195_inanimate_tools_scissors_3.png	195	inanimate	tools	scissors	3	0	3	stars	4	correct	1.09661589819007
122629	1	stim093_animate_mammal_monkey_1.png	93	animate	mammal	monkey	1	0	3	stars	4	correct	1.09661589819007
122829	1	stim063_animate_insect_ant_3.png	63	animate	insect	ant	3	0	3	stars	4	correct	1.09661589819007
123029	1	stim069_animate_insect_butterfly_1.png	69	animate	insect	butterfly	1	0	3	stars	4	correct	1.09661589819007
123229	1	stim082_animate_mammal_cow_2.png	82	animate	mammal	cow	2	0	3	stars	4	correct	1.09661589819007
123429	1	stim165_inanimate_plants_cactus_1.png	165	inanimate	plants	cactus	1	0	3	stars	4	correct	1.09661589819007
123629	1	stim138_inanimate_fruits_strawberry_2.png	138	inanimate	fruits	strawberry	2	0	3	stars	4	correct	1.09661589819007
123829	1	stim177_inanimate_plants_tulip_1.png	177	inanimate	plants	tulip	1	0	3	stars	4	correct	1.09661589819007
124029	1	stim099_animate_mammal_rhino_3.png	99	animate	mammal	rhino	3	0	3	stars	4	correct	1.09661589819007
124229	1	stim107_inanimate_clothing_hat_3.png	107	inanimate	clothing	hat	3	0	3	stars	4	correct	1.09661589819007
124429	1	stim006_animate_aquatic_fish_2.png	6	animate	aquatic	fish	2	0	3	stars	4	correct	1.09661589819007
124629	1	stim079_animate_insect_grasshopper_3.png	79	animate	insect	grasshopper	3	0	3	stars	4	correct	1.09661589819007
124829	1	stim020_animate_aquatic_shrimp_4.png	20	animate	aquatic	shrimp	4	0	3	stars	4	correct	1.09661589819007
125029	1	stim015_animate_aquatic_shark_3.png	15	animate	aquatic	shark	3	0	3	stars	4	correct	1.09661589819007
125229	1	stim137_inanimate_fruits_strawberry_1.png	137	inanimate	fruits	strawberry	1	0	3	stars	4	correct	1.09661589819007
125429	1	stim114_inanimate_clothing_shirt_2.png	114	inanimate	clothing	shirt	2	0	3	stars	4	correct	1.09661589819007
125629	1	stim074_animate_insect_dragonfly_2.png	74	animate	insect	dragonfly	2	0	3	stars	4	correct	1.09661589819007
125829	1	stim106_inanimate_clothing_hat_2.png	106	inanimate	clothing	hat	2	0	3	stars	4	correct	1.09661589819007
126029	1	stim161_inanimate_plants_bush_1.png	161	inanimate	plants	bush	1	0	3	stars	4	correct	1.09661589819007
126229	1	stim056_animate_human_faces_4.png	56	animate	human	faces	4	0	3	stars	4	correct	1.09661589819007
126429	1	stim021_animate_bird_chicken_1.png	21	animate	bird	chicken	1	0	3	stars	4	correct	1.09661589819007
126629	1	stim026_animate_bird_duck_2.png	26	animate	bird	duck	2	0	3	stars	4	correct	1.09661589819007
126829	1	stim053_animate_human_faces_1.png	53	animate	human	faces	1	0	3	stars	4	correct	1.09661589819007
127029	1	stim017_animate_aquatic_shrimp_1.png	17	animate	aquatic	shrimp	1	0	3	stars	4	correct	1.09661589819007
127229	1	stim096_animate_mammal_monkey_4.png	96	animate	mammal	monkey	4	0	3	stars	4	correct	1.09661589819007
127429	1	stim068_animate_insect_bug_4.png	68	animate	insect	bug	4	0	3	stars	4	correct	1.09661589819007
127629	1	stim105_inanimate_clothing_hat_1.png	105	inanimate	clothing	hat	1	0	3	stars	4	correct	1.09661589819007
127829	1	stim084_animate_mammal_cow_4.png	84	animate	mammal	cow	4	0	3	stars	4	correct	1.09661589819007
128029	1	stim077_animate_insect_grasshopper_1.png	77	animate	insect	grasshopper	1	0	3	stars	4	correct	1.09661589819007
128229	1	stim189_inanimate_tools_pan_1.png	189	inanimate	tools	pan	1	0	3	stars	4	correct	1.09661589819007
128429	1	stim183_inanimate_tools_broom_3.png	183	inanimate	tools	broom	3	0	3	stars	4	correct	1.09661589819007
128629	1	stim214_targets_shapes_star_2.png	214	targets	shapes	star	2	1	3	stars	4	correct	1.09661589819007
128829	1	stim185_inanimate_tools_hammer_1.png	185	inanimate	tools	hammer	1	0	3	stars	4	correct	1.09661589819007
129029	1	stim123_inanimate_fruits_apple_3.png	123	inanimate	fruits	apple	3	0	3	stars	4	correct	1.09661589819007
129229	1	stim153_inanimate_furniture_sofa_1.png	153	inanimate	furniture	sofa	1	0	3	stars	4	correct	1.09661589819007
129429	1	stim083_animate_mammal_cow_3.png	83	animate	mammal	cow	3	0	3	stars	4	correct	1.09661589819007
129629	1	stim100_animate_mammal_rhino_4.png	100	animate	mammal	rhino	4	0	3	stars	4	correct	1.09661589819007
129829	1	stim121_inanimate_fruits_apple_1.png	121	inanimate	fruits	apple	1	0	3	stars	4	correct	1.09661589819007
130029	1	stim186_inanimate_tools_hammer_2.png	186	inanimate	tools	hammer	2	0	3	stars	4	correct	1.09661589819007
130229	1	stim018_animate_aquatic_shrimp_2.png	18	animate	aquatic	shrimp	2	0	3	stars	4	correct	1.09661589819007
130429	1	stim174_inanimate_plants_tree_2.png	174	inanimate	plants	tree	2	0	3	stars	4	correct	1.09661589819007
130629	1	stim179_inanimate_plants_tulip_3.png	179	inanimate	plants	tulip	3	0	3	stars	4	correct	1.09661589819007
130829	1	stim091_animate_mammal_kangaroo_3.png	91	animate	mammal	kangaroo	3	0	3	stars	4	correct	1.09661589819007
131029	1	stim047_animate_human_child_3.png	47	animate	human	child	3	0	3	stars	4	correct	1.09661589819007
131229	1	stim125_inanimate_fruits_banana_1.png	125	inanimate	fruits	banana	1	0	3	stars	4	correct	1.09661589819007
131429	1	stim098_animate_mammal_rhino_2.png	98	animate	mammal	rhino	2	0	3	stars	4	correct	1.09661589819007
131629	1	stim010_animate_aquatic_seahorse_2.png	10	animate	aquatic	seahorse	2	0	3	stars	4	correct	1.09661589819007
131829	1	stim071_animate_insect_butterfly_3.png	71	animate	insect	butterfly	3	0	3	stars	4	correct	1.09661589819007
132029	1	stim115_inanimate_clothing_shirt_3.png	115	inanimate	clothing	shirt	3	0	3	stars	4	correct	1.09661589819007
132229	1	stim199_inanimate_tools_wrench_3.png	199	inanimate	tools	wrench	3	0	3	stars	4	correct	1.09661589819007
132429	1	stim030_animate_bird_parrot_2.png	30	animate	bird	parrot	2	0	3	stars	4	correct	1.09661589819007
132629	1	stim086_animate_mammal_giraffe_2.png	86	animate	mammal	giraffe	2	0	3	stars	4	correct	1.09661589819007
132829	1	stim057_animate_human_sports_1.png	57	animate	human	sports	1	0	3	stars	4	correct	1.09661589819007
133029	1	stim178_inanimate_plants_tulip_2.png	178	inanimate	plants	tulip	2	0	3	stars	4	correct	1.09661589819007
133229	1	stim102_inanimate_clothing_gloves_2.png	102	inanimate	clothing	gloves	2	0	3	stars	4	correct	1.09661589819007
133429	1	stim155_inanimate_furniture_sofa_3.png	155	inanimate	furniture	sofa	3	0	3	stars	4	correct	1.09661589819007
133629	1	stim055_animate_human_faces_3.png	55	animate	human	faces	3	0	3	stars	4	correct	1.09661589819007
133829	1	stim148_inanimate_furniture_chair_4.png	148	inanimate	furniture	chair	4	0	3	stars	4	correct	1.09661589819007
134029	1	stim009_animate_aquatic_seahorse_1.png	9	animate	aquatic	seahorse	1	0	3	stars	4	correct	1.09661589819007
134229	1	stim031_animate_bird_parrot_3.png	31	animate	bird	parrot	3	0	3	stars	4	correct	1.09661589819007
134429	1	stim072_animate_insect_butterfly_4.png	72	animate	insect	butterfly	4	0	3	stars	4	correct	1.09661589819007
134629	1	stim087_animate_mammal_giraffe_3.png	87	animate	mammal	giraffe	3	0	3	stars	4	correct	1.09661589819007
134829	1	stim064_animate_insect_ant_4.png	64	animate	insect	ant	4	0	3	stars	4	correct	1.09661589819007
135029	1	stim147_inanimate_furniture_chair_3.png	147	inanimate	furniture	chair	3	0	3	stars	4	correct	1.09661589819007
135229	1	stim101_inanimate_clothing_gloves_1.png	101	inanimate	clothing	gloves	1	0	3	stars	4	correct	1.09661589819007
135429	1	stim016_animate_aquatic_shark_4.png	16	animate	aquatic	shark	4	0	3	stars	4	correct	1.09661589819007
135629	1	stim172_inanimate_plants_sunflower_4.png	172	inanimate	plants	sunflower	4	0	3	stars	4	correct	1.09661589819007
135829	1	stim120_inanimate_clothing_socks_4.png	120	inanimate	clothing	socks	4	0	3	stars	4	correct	1.09661589819007
136029	1	stim213_targets_shapes_star_1.png	213	targets	shapes	star	1	1	3	stars	4	correct	1.09661589819007
136229	1	stim095_animate_mammal_monkey_3.png	95	animate	mammal	monkey	3	0	3	stars	4	correct	1.09661589819007
136429	1	stim032_animate_bird_parrot_4.png	32	animate	bird	parrot	4	0	3	stars	4	correct	1.09661589819007
136629	1	stim117_inanimate_clothing_socks_1.png	117	inanimate	clothing	socks	1	0	3	stars	4	correct	1.09661589819007
136829	1	stim049_animate_human_clown_1.png	49	animate	human	clown	1	0	3	stars	4	correct	1.09661589819007
137029	1	stim067_animate_insect_bug_3.png	67	animate	insect	bug	3	0	3	stars	4	correct	1.09661589819007
137229	1	stim061_animate_insect_ant_1.png	61	animate	insect	ant	1	0	3	stars	4	correct	1.09661589819007
137429	1	stim184_inanimate_tools_broom_4.png	184	inanimate	tools	broom	4	0	3	stars	4	correct	1.09661589819007
137629	1	stim190_inanimate_tools_pan_2.png	190	inanimate	tools	pan	2	0	3	stars	4	correct	1.09661589819007
137829	1	stim011_animate_aquatic_seahorse_3.png	11	animate	aquatic	seahorse	3	0	3	stars	4	correct	1.09661589819007
138029	1	stim176_inanimate_plants_tree_4.png	176	inanimate	plants	tree	4	0	3	stars	4	correct	1.09661589819007
138229	1	stim039_animate_bird_penguin_3.png	39	animate	bird	penguin	3	0	3	stars	4	correct	1.09661589819007
138429	1	stim150_inanimate_furniture_closet_2.png	150	inanimate	furniture	closet	2	0	3	stars	4	correct	1.09661589819007
138629	1	stim110_inanimate_clothing_jeans_2.png	110	inanimate	clothing	jeans	2	0	3	stars	4	correct	1.09661589819007
138829	1	stim134_inanimate_fruits_pineapple_2.png	134	inanimate	fruits	pineapple	2	0	3	stars	4	correct	1.09661589819007
139029	1	stim168_inanimate_plants_cactus_4.png	168	inanimate	plants	cactus	4	0	3	stars	4	correct	1.09661589819007
139229	1	stim187_inanimate_tools_hammer_3.png	187	inanimate	tools	hammer	3	0	3	stars	4	correct	1.09661589819007
139429	1	stim197_inanimate_tools_wrench_1.png	197	inanimate	tools	wrench	1	0	3	stars	4	correct	1.09661589819007
139629	1	stim181_inanimate_tools_broom_1.png	181	inanimate	tools	broom	1	0	3	stars	4	correct	1.09661589819007
139829	1	stim122_inanimate_fruits_apple_2.png	122	inanimate	fruits	apple	2	0	3	stars	4	correct	1.09661589819007
140029	1	stim027_animate_bird_duck_3.png	27	animate	bird	duck	3	0	3	stars	4	correct	1.09661589819007
140229	1	stim085_animate_mammal_giraffe_1.png	85	animate	mammal	giraffe	1	0	3	stars	4	correct	1.09661589819007
140429	1	stim140_inanimate_fruits_strawberry_4.png	140	inanimate	fruits	strawberry	4	0	3	stars	4	correct	1.09661589819007
140629	1	stim044_animate_human_baby_4.png	44	animate	human	baby	4	0	3	stars	4	correct	1.09661589819007
140829	1	stim003_animate_aquatic_crab_3.png	3	animate	aquatic	crab	3	0	3	stars	4	correct	1.09661589819007
141029	1	stim062_animate_insect_ant_2.png	62	animate	insect	ant	2	0	3	stars	4	correct	1.09661589819007
141229	1	stim033_animate_bird_peacock_1.png	33	animate	bird	peacock	1	0	3	stars	4	correct	1.09661589819007
141429	1	stim058_animate_human_sports_2.png	58	animate	human	sports	2	0	3	stars	4	correct	1.09661589819007
141629	1	stim173_inanimate_plants_tree_1.png	173	inanimate	plants	tree	1	0	3	stars	4	correct	1.09661589819007
141829	1	stim051_animate_human_clown_3.png	51	animate	human	clown	3	0	3	stars	4	correct	1.09661589819007
142029	1	stim092_animate_mammal_kangaroo_4.png	92	animate	mammal	kangaroo	4	0	3	stars	4	correct	1.09661589819007
142229	1	stim130_inanimate_fruits_grape_2.png	130	inanimate	fruits	grape	2	0	3	stars	4	correct	1.09661589819007
142429	1	stim111_inanimate_clothing_jeans_3.png	111	inanimate	clothing	jeans	3	0	3	stars	4	correct	1.09661589819007
142629	1	stim046_animate_human_child_2.png	46	animate	human	child	2	0	3	stars	4	correct	1.09661589819007
142829	1	stim001_animate_aquatic_crab_1.png	1	animate	aquatic	crab	1	0	3	stars	4	correct	1.09661589819007
143029	1	stim040_animate_bird_penguin_4.png	40	animate	bird	penguin	4	0	3	stars	4	correct	1.09661589819007
143229	1	stim073_animate_insect_dragonfly_1.png	73	animate	insect	dragonfly	1	0	3	stars	4	correct	1.09661589819007
143429	1	stim024_animate_bird_chicken_4.png	24	animate	bird	chicken	4	0	3	stars	4	correct	1.09661589819007
143629	1	stim112_inanimate_clothing_jeans_4.png	112	inanimate	clothing	jeans	4	0	3	stars	4	correct	1.09661589819007
143829	1	stim042_animate_human_baby_2.png	42	animate	human	baby	2	0	3	stars	4	correct	1.09661589819007
144029	1	stim211_targets_shapes_star_3.png	211	targets	shapes	star	3	1	3	stars	4	correct	1.09661589819007
144229	1	stim066_animate_insect_bug_2.png	66	animate	insect	bug	2	0	3	stars	4	correct	1.09661589819007
144429	1	stim166_inanimate_plants_cactus_2.png	166	inanimate	plants	cactus	2	0	3	stars	4	correct	1.09661589819007
144629	1	stim065_animate_insect_bug_1.png	65	animate	insect	bug	1	0	3	stars	4	correct	1.09661589819007
144829	1	stim060_animate_human_sports_4.png	60	animate	human	sports	4	0	3	stars	4	correct	1.09661589819007
145029	1	stim008_animate_aquatic_fish_4.png	8	animate	aquatic	fish	4	0	3	stars	4	correct	1.09661589819007
145229	1	stim167_inanimate_plants_cactus_3.png	167	inanimate	plants	cactus	3	0	3	stars	4	correct	1.09661589819007
145429	1	stim143_inanimate_furniture_bed_3.png	143	inanimate	furniture	bed	3	0	3	stars	4	correct	1.09661589819007
145629	1	stim170_inanimate_plants_sunflower_2.png	170	inanimate	plants	sunflower	2	0	3	stars	4	correct	1.09661589819007
145829	1	stim132_inanimate_fruits_grape_4.png	132	inanimate	fruits	grape	4	0	3	stars	4	correct	1.09661589819007
146029	1	stim034_animate_bird_peacock_2.png	34	animate	bird	peacock	2	0	3	stars	4	correct	1.09661589819007
146229	1	stim007_animate_aquatic_fish_3.png	7	animate	aquatic	fish	3	0	3	stars	4	correct	1.09661589819007
146429	1	stim022_animate_bird_chicken_2.png	22	animate	bird	chicken	2	0	3	stars	4	correct	1.09661589819007
146629	1	stim139_inanimate_fruits_strawberry_3.png	139	inanimate	fruits	strawberry	3	0	3	stars	4	correct	1.09661589819007
146829	1	stim175_inanimate_plants_tree_3.png	175	inanimate	plants	tree	3	0	3	stars	4	correct	1.09661589819007
147029	1	stim188_inanimate_tools_hammer_4.png	188	inanimate	tools	hammer	4	0	3	stars	4	correct	1.09661589819007
147229	1	stim103_inanimate_clothing_gloves_3.png	103	inanimate	clothing	gloves	3	0	3	stars	4	correct	1.09661589819007
147429	1	stim076_animate_insect_dragonfly_4.png	76	animate	insect	dragonfly	4	0	3	stars	4	correct	1.09661589819007
147629	1	stim198_inanimate_tools_wrench_2.png	198	inanimate	tools	wrench	2	0	3	stars	4	correct	1.09661589819007
147829	1	stim159_inanimate_furniture_table_3.png	159	inanimate	furniture	table	3	0	3	stars	4	correct	1.09661589819007
148029	1	stim194_inanimate_tools_scissors_2.png	194	inanimate	tools	scissors	2	0	3	stars	4	correct	1.09661589819007
148229	1	stim141_inanimate_furniture_bed_1.png	141	inanimate	furniture	bed	1	0	3	stars	4	correct	1.09661589819007
148429	1	stim135_inanimate_fruits_pineapple_3.png	135	inanimate	fruits	pineapple	3	0	3	stars	4	correct	1.09661589819007
148629	1	stim005_animate_aquatic_fish_1.png	5	animate	aquatic	fish	1	0	3	stars	4	correct	1.09661589819007
148829	1	stim151_inanimate_furniture_closet_3.png	151	inanimate	furniture	closet	3	0	3	stars	4	correct	1.09661589819007
149029	1	stim116_inanimate_clothing_shirt_4.png	116	inanimate	clothing	shirt	4	0	3	stars	4	correct	1.09661589819007
149229	1	stim156_inanimate_furniture_sofa_4.png	156	inanimate	furniture	sofa	4	0	3	stars	4	correct	1.09661589819007
149429	1	stim094_animate_mammal_monkey_2.png	94	animate	mammal	monkey	2	0	3	stars	4	correct	1.09661589819007
149629	1	stim059_animate_human_sports_3.png	59	animate	human	sports	3	0	3	stars	4	correct	1.09661589819007
149829	1	stim149_inanimate_furniture_closet_1.png	149	inanimate	furniture	closet	1	0	3	stars	4	correct	1.09661589819007
150029	1	stim164_inanimate_plants_bush_4.png	164	inanimate	plants	bush	4	0	3	stars	4	correct	1.09661589819007
150229	1	stim196_inanimate_tools_scissors_4.png	196	inanimate	tools	scissors	4	0	3	stars	4	correct	1.09661589819007
150429	1	stim037_animate_bird_penguin_1.png	37	animate	bird	penguin	1	0	3	stars	4	correct	1.09661589819007
150629	1	stim109_inanimate_clothing_jeans_1.png	109	inanimate	clothing	jeans	1	0	3	stars	4	correct	1.09661589819007
150829	1	stim113_inanimate_clothing_shirt_1.png	113	inanimate	clothing	shirt	1	0	3	stars	4	correct	1.09661589819007
151029	1	stim014_animate_aquatic_shark_2.png	14	animate	aquatic	shark	2	0	3	stars	4	correct	1.09661589819007
151229	1	stim136_inanimate_fruits_pineapple_4.png	136	inanimate	fruits	pineapple	4	0	3	stars	4	correct	1.09661589819007
151429	1	stim163_inanimate_plants_bush_3.png	163	inanimate	plants	bush	3	0	3	stars	4	correct	1.09661589819007
151629	1	stim158_inanimate_furniture_table_2.png	158	inanimate	furniture	table	2	0	3	stars	4	correct	1.09661589819007
151829	1	stim131_inanimate_fruits_grape_3.png	131	inanimate	fruits	grape	3	0	3	stars	4	correct	1.09661589819007
152030	1	stim038_animate_bird_penguin_2.png	38	animate	bird	penguin	2	0	3	stars	4	correct	1.09661589819007
152230	1	stim023_animate_bird_chicken_3.png	23	animate	bird	chicken	3	0	3	stars	4	correct	1.09661589819007
152430	1	stim013_animate_aquatic_shark_1.png	13	animate	aquatic	shark	1	0	3	stars	4	correct	1.09661589819007
152630	1	stim070_animate_insect_butterfly_2.png	70	animate	insect	butterfly	2	0	3	stars	4	correct	1.09661589819007
152830	1	stim200_inanimate_tools_wrench_4.png	200	inanimate	tools	wrench	4	0	3	stars	4	correct	1.09661589819007
153029	1	stim004_animate_aquatic_crab_4.png	4	animate	aquatic	crab	4	0	3	stars	4	correct	1.09661589819007
153230	1	stim035_animate_bird_peacock_3.png	35	animate	bird	peacock	3	0	3	stars	4	correct	1.09661589819007
153429	1	stim080_animate_insect_grasshopper_4.png	80	animate	insect	grasshopper	4	0	3	stars	4	correct	1.09661589819007
153630	1	stim090_animate_mammal_kangaroo_2.png	90	animate	mammal	kangaroo	2	0	3	stars	4	correct	1.09661589819007
153830	1	stim041_animate_human_baby_1.png	41	animate	human	baby	1	0	3	stars	4	correct	1.09661589819007
158596	1	stim151_inanimate_furniture_closet_3.png	151	inanimate	furniture	closet	3	0	4	stars	2	correct	0.975911854047808
158796	1	stim032_animate_bird_parrot_4.png	32	animate	bird	parrot	4	0	4	stars	2	correct	0.975911854047808
158996	1	stim185_inanimate_tools_hammer_1.png	185	inanimate	tools	hammer	1	0	4	stars	2	correct	0.975911854047808
159196	1	stim169_inanimate_plants_sunflower_1.png	169	inanimate	plants	sunflower	1	0	4	stars	2	correct	0.975911854047808
159396	1	stim131_inanimate_fruits_grape_3.png	131	inanimate	fruits	grape	3	0	4	stars	2	correct	0.975911854047808
159596	1	stim063_animate_insect_ant_3.png	63	animate	insect	ant	3	0	4	stars	2	correct	0.975911854047808
159796	1	stim048_animate_human_child_4.png	48	animate	human	child	4	0	4	stars	2	correct	0.975911854047808
159996	1	stim093_animate_mammal_monkey_1.png	93	animate	mammal	monkey	1	0	4	stars	2	correct	0.975911854047808
160196	1	stim018_animate_aquatic_shrimp_2.png	18	animate	aquatic	shrimp	2	0	4	stars	2	correct	0.975911854047808
160396	1	stim026_animate_bird_duck_2.png	26	animate	bird	duck	2	0	4	stars	2	correct	0.975911854047808
160596	1	stim036_animate_bird_peacock_4.png	36	animate	bird	peacock	4	0	4	stars	2	correct	0.975911854047808
160796	1	stim110_inanimate_clothing_jeans_2.png	110	inanimate	clothing	jeans	2	0	4	stars	2	correct	0.975911854047808
160996	1	stim168_inanimate_plants_cactus_4.png	168	inanimate	plants	cactus	4	0	4	stars	2	correct	0.975911854047808
161196	1	stim120_inanimate_clothing_socks_4.png	120	inanimate	clothing	socks	4	0	4	stars	2	correct	0.975911854047808
161396	1	stim075_animate_insect_dragonfly_3.png	75	animate	insect	dragonfly	3	0	4	stars	2	correct	0.975911854047808
161596	1	stim041_animate_human_baby_1.png	41	animate	human	baby	1	0	4	stars	2	correct	0.975911854047808
161796	1	stim055_animate_human_faces_3.png	55	animate	human	faces	3	0	4	stars	2	correct	0.975911854047808
161996	1	stim031_animate_bird_parrot_3.png	31	animate	bird	parrot	3	0	4	stars	2	correct	0.975911854047808
162196	1	stim078_animate_insect_grasshopper_2.png	78	animate	insect	grasshopper	2	0	4	stars	2	correct	0.975911854047808
162396	1	stim085_animate_mammal_giraffe_1.png	85	animate	mammal	giraffe	1	0	4	stars	2	correct	0.975911854047808
162596	1	stim197_inanimate_tools_wrench_1.png	197	inanimate	tools	wrench	1	0	4	stars	2	correct	0.975911854047808
162796	1	stim087_animate_mammal_giraffe_3.png	87	animate	mammal	giraffe	3	0	4	stars	2	correct	0.975911854047808
162996	1	stim146_inanimate_furniture_chair_2.png	146	inanimate	furniture	chair	2	0	4	stars	2	correct	0.975911854047808
163196	1	stim182_inanimate_tools_broom_2.png	182	inanimate	tools	broom	2	0	4	stars	2	correct	0.975911854047808
163396	1	stim143_inanimate_furniture_bed_3.png	143	inanimate	furniture	bed	3	0	4	stars	2	correct	0.975911854047808
163596	1	stim005_animate_aquatic_fish_1.png	5	animate	aquatic	fish	1	0	4	stars	2	correct	0.975911854047808
163796	1	stim179_inanimate_plants_tulip_3.png	179	inanimate	plants	tulip	3	0	4	stars	2	correct	0.975911854047808
163996	1	stim099_animate_mammal_rhino_3.png	99	animate	mammal	rhino	3	0	4	stars	2	correct	0.975911854047808
164196	1	stim057_animate_human_sports_1.png	57	animate	human	sports	1	0	4	stars	2	correct	0.975911854047808
164397	1	stim096_animate_mammal_monkey_4.png	96	animate	mammal	monkey	4	0	4	stars	2	correct	0.975911854047808
164597	1	stim058_animate_human_sports_2.png	58	animate	human	sports	2	0	4	stars	2	correct	0.975911854047808
164796	1	stim069_animate_insect_butterfly_1.png	69	animate	insect	butterfly	1	0	4	stars	2	correct	0.975911854047808
164996	1	stim002_animate_aquatic_crab_2.png	2	animate	aquatic	crab	2	0	4	stars	2	correct	0.975911854047808
165196	1	stim017_animate_aquatic_shrimp_1.png	17	animate	aquatic	shrimp	1	0	4	stars	2	correct	0.975911854047808
165397	1	stim200_inanimate_tools_wrench_4.png	200	inanimate	tools	wrench	4	0	4	stars	2	correct	0.975911854047808
165596	1	stim180_inanimate_plants_tulip_4.png	180	inanimate	plants	tulip	4	0	4	stars	2	correct	0.975911854047808
165796	1	stim113_inanimate_clothing_shirt_1.png	113	inanimate	clothing	shirt	1	0	4	stars	2	correct	0.975911854047808
165996	1	stim123_inanimate_fruits_apple_3.png	123	inanimate	fruits	apple	3	0	4	stars	2	correct	0.975911854047808
166197	1	stim153_inanimate_furniture_sofa_1.png	153	inanimate	furniture	sofa	1	0	4	stars	2	correct	0.975911854047808
166397	1	stim181_inanimate_tools_broom_1.png	181	inanimate	tools	broom	1	0	4	stars	2	correct	0.975911854047808
166596	1	stim117_inanimate_clothing_socks_1.png	117	inanimate	clothing	socks	1	0	4	stars	2	correct	0.975911854047808
166797	1	stim007_animate_aquatic_fish_3.png	7	animate	aquatic	fish	3	0	4	stars	2	correct	0.975911854047808
166997	1	stim190_inanimate_tools_pan_2.png	190	inanimate	tools	pan	2	0	4	stars	2	correct	0.975911854047808
167197	1	stim010_animate_aquatic_seahorse_2.png	10	animate	aquatic	seahorse	2	0	4	stars	2	correct	0.975911854047808
167396	1	stim107_inanimate_clothing_hat_3.png	107	inanimate	clothing	hat	3	0	4	stars	2	correct	0.975911854047808
167597	1	stim171_inanimate_plants_sunflower_3.png	171	inanimate	plants	sunflower	3	0	4	stars	2	correct	0.975911854047808
167796	1	stim042_animate_human_baby_2.png	42	animate	human	baby	2	0	4	stars	2	correct	0.975911854047808
167997	1	stim008_animate_aquatic_fish_4.png	8	animate	aquatic	fish	4	0	4	stars	2	correct	0.975911854047808
168197	1	stim166_inanimate_plants_cactus_2.png	166	inanimate	plants	cactus	2	0	4	stars	2	correct	0.975911854047808
168397	1	stim061_animate_insect_ant_1.png	61	animate	insect	ant	1	0	4	stars	2	correct	0.975911854047808
168597	1	stim088_animate_mammal_giraffe_4.png	88	animate	mammal	giraffe	4	0	4	stars	2	correct	0.975911854047808
168797	1	stim019_animate_aquatic_shrimp_3.png	19	animate	aquatic	shrimp	3	0	4	stars	2	correct	0.975911854047808
168997	1	stim013_animate_aquatic_shark_1.png	13	animate	aquatic	shark	1	0	4	stars	2	correct	0.975911854047808
169197	1	stim133_inanimate_fruits_pineapple_1.png	133	inanimate	fruits	pineapple	1	0	4	stars	2	correct	0.975911854047808
169397	1	stim092_animate_mammal_kangaroo_4.png	92	animate	mammal	kangaroo	4	0	4	stars	2	correct	0.975911854047808
169597	1	stim033_animate_bird_peacock_1.png	33	animate	bird	peacock	1	0	4	stars	2	correct	0.975911854047808
169797	1	stim050_animate_human_clown_2.png	50	animate	human	clown	2	0	4	stars	2	correct	0.975911854047808
169997	1	stim189_inanimate_tools_pan_1.png	189	inanimate	tools	pan	1	0	4	stars	2	correct	0.975911854047808
170197	1	stim163_inanimate_plants_bush_3.png	163	inanimate	plants	bush	3	0	4	stars	2	correct	0.975911854047808
170397	1	stim020_animate_aquatic_shrimp_4.png	20	animate	aquatic	shrimp	4	0	4	stars	2	correct	0.975911854047808
170597	1	stim022_animate_bird_chicken_2.png	22	animate	bird	chicken	2	0	4	stars	2	correct	0.975911854047808
170797	1	stim152_inanimate_furniture_closet_4.png	152	inanimate	furniture	closet	4	0	4	stars	2	correct	0.975911854047808
170997	1	stim004_animate_aquatic_crab_4.png	4	animate	aquatic	crab	4	0	4	stars	2	correct	0.975911854047808
171197	1	stim138_inanimate_fruits_strawberry_2.png	138	inanimate	fruits	strawberry	2	0	4	stars	2	correct	0.975911854047808
171397	1	stim094_animate_mammal_monkey_2.png	94	animate	mammal	monkey	2	0	4	stars	2	correct	0.975911854047808
171597	1	stim001_animate_aquatic_crab_1.png	1	animate	aquatic	crab	1	0	4	stars	2	correct	0.975911854047808
171797	1	stim011_animate_aquatic_seahorse_3.png	11	animate	aquatic	seahorse	3	0	4	stars	2	correct	0.975911854047808
171997	1	stim119_inanimate_clothing_socks_3.png	119	inanimate	clothing	socks	3	0	4	stars	2	correct	0.975911854047808
172197	1	stim130_inanimate_fruits_grape_2.png	130	inanimate	fruits	grape	2	0	4	stars	2	correct	0.975911854047808
172397	1	stim103_inanimate_clothing_gloves_3.png	103	inanimate	clothing	gloves	3	0	4	stars	2	correct	0.975911854047808
172597	1	stim136_inanimate_fruits_pineapple_4.png	136	inanimate	fruits	pineapple	4	0	4	stars	2	correct	0.975911854047808
172797	1	stim122_inanimate_fruits_apple_2.png	122	inanimate	fruits	apple	2	0	4	stars	2	correct	0.975911854047808
172997	1	stim035_animate_bird_peacock_3.png	35	animate	bird	peacock	3	0	4	stars	2	correct	0.975911854047808
173197	1	stim100_animate_mammal_rhino_4.png	100	animate	mammal	rhino	4	0	4	stars	2	correct	0.975911854047808
173397	1	stim148_inanimate_furniture_chair_4.png	148	inanimate	furniture	chair	4	0	4	stars	2	correct	0.975911854047808
173597	1	stim109_inanimate_clothing_jeans_1.png	109	inanimate	clothing	jeans	1	0	4	stars	2	correct	0.975911854047808
173797	1	stim173_inanimate_plants_tree_1.png	173	inanimate	plants	tree	1	0	4	stars	2	correct	0.975911854047808
173997	1	stim081_animate_mammal_cow_1.png	81	animate	mammal	cow	1	0	4	stars	2	correct	0.975911854047808
174197	1	stim097_animate_mammal_rhino_1.png	97	animate	mammal	rhino	1	0	4	stars	2	correct	0.975911854047808
174397	1	stim025_animate_bird_duck_1.png	25	animate	bird	duck	1	0	4	stars	2	correct	0.975911854047808
174597	1	stim137_inanimate_fruits_strawberry_1.png	137	inanimate	fruits	strawberry	1	0	4	stars	2	correct	0.975911854047808
174797	1	stim044_animate_human_baby_4.png	44	animate	human	baby	4	0	4	stars	2	correct	0.975911854047808
174997	1	stim210_targets_shapes_star_2.png	210	targets	shapes	star	2	1	4	stars	2	correct	0.975911854047808
175197	1	stim106_inanimate_clothing_hat_2.png	106	inanimate	clothing	hat	2	0	4	stars	2	correct	0.975911854047808
175397	1	stim076_animate_insect_dragonfly_4.png	76	animate	insect	dragonfly	4	0	4	stars	2	correct	0.975911854047808
175597	1	stim051_animate_human_clown_3.png	51	animate	human	clown	3	0	4	stars	2	correct	0.975911854047808
175797	1	stim141_inanimate_furniture_bed_1.png	141	inanimate	furniture	bed	1	0	4	stars	2	correct	0.975911854047808
175997	1	stim021_animate_bird_chicken_1.png	21	animate	bird	chicken	1	0	4	stars	2	correct	0.975911854047808
176197	1	stim167_inanimate_plants_cactus_3.png	167	inanimate	plants	cactus	3	0	4	stars	2	correct	0.975911854047808
176397	1	stim101_inanimate_clothing_gloves_1.png	101	inanimate	clothing	gloves	1	0	4	stars	2	correct	0.975911854047808
176597	1	stim038_animate_bird_penguin_2.png	38	animate	bird	penguin	2	0	4	stars	2	correct	0.975911854047808
176797	1	stim029_animate_bird_parrot_1.png	29	animate	bird	parrot	1	0	4	stars	2	correct	0.975911854047808
176997	1	stim139_inanimate_fruits_strawberry_3.png	139	inanimate	fruits	strawberry	3	0	4	stars	2	correct	0.975911854047808
177197	1	stim186_inanimate_tools_hammer_2.png	186	inanimate	tools	hammer	2	0	4	stars	2	correct	0.975911854047808
177397	1	stim028_animate_bird_duck_4.png	28	animate	bird	duck	4	0	4	stars	2	correct	0.975911854047808
177597	1	stim198_inanimate_tools_wrench_2.png	198	inanimate	tools	wrench	2	0	4	stars	2	correct	0.975911854047808
177797	1	stim027_animate_bird_duck_3.png	27	animate	bird	duck	3	0	4	stars	2	correct	0.975911854047808
177997	1	stim155_inanimate_furniture_sofa_3.png	155	inanimate	furniture	sofa	3	0	4	stars	2	correct	0.975911854047808
178197	1	stim177_inanimate_plants_tulip_1.png	177	inanimate	plants	tulip	1	0	4	stars	2	correct	0.975911854047808
178397	1	stim037_animate_bird_penguin_1.png	37	animate	bird	penguin	1	0	4	stars	2	correct	0.975911854047808
178597	1	stim104_inanimate_clothing_gloves_4.png	104	inanimate	clothing	gloves	4	0	4	stars	2	correct	0.975911854047808
178797	1	stim024_animate_bird_chicken_4.png	24	animate	bird	chicken	4	0	4	stars	2	correct	0.975911854047808
178997	1	stim015_animate_aquatic_shark_3.png	15	animate	aquatic	shark	3	0	4	stars	2	correct	0.975911854047808
179197	1	stim187_inanimate_tools_hammer_3.png	187	inanimate	tools	hammer	3	0	4	stars	2	correct	0.975911854047808
179397	1	stim161_inanimate_plants_bush_1.png	161	inanimate	plants	bush	1	0	4	stars	2	correct	0.975911854047808
179597	1	stim140_inanimate_fruits_strawberry_4.png	140	inanimate	fruits	strawberry	4	0	4	stars	2	correct	0.975911854047808
179797	1	stim074_animate_insect_dragonfly_2.png	74	animate	insect	dragonfly	2	0	4	stars	2	correct	0.975911854047808
179997	1	stim049_animate_human_clown_1.png	49	animate	human	clown	1	0	4	stars	2	correct	0.975911854047808
180197	1	stim060_animate_human_sports_4.png	60	animate	human	sports	4	0	4	stars	2	correct	0.975911854047808
180397	1	stim073_animate_insect_dragonfly_1.png	73	animate	insect	dragonfly	1	0	4	stars	2	correct	0.975911854047808
180597	1	stim064_animate_insect_ant_4.png	64	animate	insect	ant	4	0	4	stars	2	correct	0.975911854047808
180797	1	stim160_inanimate_furniture_table_4.png	160	inanimate	furniture	table	4	0	4	stars	2	correct	0.975911854047808
180997	1	stim174_inanimate_plants_tree_2.png	174	inanimate	plants	tree	2	0	4	stars	2	correct	0.975911854047808
181197	1	stim184_inanimate_tools_broom_4.png	184	inanimate	tools	broom	4	0	4	stars	2	correct	0.975911854047808
181397	1	stim006_animate_aquatic_fish_2.png	6	animate	aquatic	fish	2	0	4	stars	2	correct	0.975911854047808
181597	1	stim127_inanimate_fruits_banana_3.png	127	inanimate	fruits	banana	3	0	4	stars	2	correct	0.975911854047808
181797	1	stim040_animate_bird_penguin_4.png	40	animate	bird	penguin	4	0	4	stars	2	correct	0.975911854047808
181997	1	stim108_inanimate_clothing_hat_4.png	108	inanimate	clothing	hat	4	0	4	stars	2	correct	0.975911854047808
182197	1	stim016_animate_aquatic_shark_4.png	16	animate	aquatic	shark	4	0	4	stars	2	correct	0.975911854047808
182397	1	stim105_inanimate_clothing_hat_1.png	105	inanimate	clothing	hat	1	0	4	stars	2	correct	0.975911854047808
182597	1	stim195_inanimate_tools_scissors_3.png	195	inanimate	tools	scissors	3	0	4	stars	2	correct	0.975911854047808
182797	1	stim086_animate_mammal_giraffe_2.png	86	animate	mammal	giraffe	2	0	4	stars	2	correct	0.975911854047808
182997	1	stim098_animate_mammal_rhino_2.png	98	animate	mammal	rhino	2	0	4	stars	2	correct	0.975911854047808
183197	1	stim132_inanimate_fruits_grape_4.png	132	inanimate	fruits	grape	4	0	4	stars	2	correct	0.975911854047808
183397	1	stim121_inanimate_fruits_apple_1.png	121	inanimate	fruits	apple	1	0	4	stars	2	correct	0.975911854047808
183597	1	stim158_inanimate_furniture_table_2.png	158	inanimate	furniture	table	2	0	4	stars	2	correct	0.975911854047808
183797	1	stim114_inanimate_clothing_shirt_2.png	114	inanimate	clothing	shirt	2	0	4	stars	2	correct	0.975911854047808
183997	1	stim047_animate_human_child_3.png	47	animate	human	child	3	0	4	stars	2	correct	0.975911854047808
184197	1	stim209_targets_shapes_star_1.png	209	targets	shapes	star	1	1	4	stars	2	correct	0.975911854047808
184397	1	stim054_animate_human_faces_2.png	54	animate	human	faces	2	0	4	stars	2	correct	0.975911854047808
184597	1	stim102_inanimate_clothing_gloves_2.png	102	inanimate	clothing	gloves	2	0	4	stars	2	correct	0.975911854047808
184797	1	stim126_inanimate_fruits_banana_2.png	126	inanimate	fruits	banana	2	0	4	stars	2	correct	0.975911854047808
184997	1	stim072_animate_insect_butterfly_4.png	72	animate	insect	butterfly	4	0	4	stars	2	correct	0.975911854047808
185197	1	stim116_inanimate_clothing_shirt_4.png	116	inanimate	clothing	shirt	4	0	4	stars	2	correct	0.975911854047808
185397	1	stim068_animate_insect_bug_4.png	68	animate	insect	bug	4	0	4	stars	2	correct	0.975911854047808
185597	1	stim059_animate_human_sports_3.png	59	animate	human	sports	3	0	4	stars	2	correct	0.975911854047808
185797	1	stim191_inanimate_tools_pan_3.png	191	inanimate	tools	pan	3	0	4	stars	2	correct	0.975911854047808
185997	1	stim145_inanimate_furniture_chair_1.png	145	inanimate	furniture	chair	1	0	4	stars	2	correct	0.975911854047808
186197	1	stim170_inanimate_plants_sunflower_2.png	170	inanimate	plants	sunflower	2	0	4	stars	2	correct	0.975911854047808
186397	1	stim175_inanimate_plants_tree_3.png	175	inanimate	plants	tree	3	0	4	stars	2	correct	0.975911854047808
186597	1	stim091_animate_mammal_kangaroo_3.png	91	animate	mammal	kangaroo	3	0	4	stars	2	correct	0.975911854047808
186797	1	stim080_animate_insect_grasshopper_4.png	80	animate	insect	grasshopper	4	0	4	stars	2	correct	0.975911854047808
186997	1	stim188_inanimate_tools_hammer_4.png	188	inanimate	tools	hammer	4	0	4	stars	2	correct	0.975911854047808
187197	1	stim144_inanimate_furniture_bed_4.png	144	inanimate	furniture	bed	4	0	4	stars	2	correct	0.975911854047808
187397	1	stim071_animate_insect_butterfly_3.png	71	animate	insect	butterfly	3	0	4	stars	2	correct	0.975911854047808
187597	1	stim194_inanimate_tools_scissors_2.png	194	inanimate	tools	scissors	2	0	4	stars	2	correct	0.975911854047808
187797	1	stim134_inanimate_fruits_pineapple_2.png	134	inanimate	fruits	pineapple	2	0	4	stars	2	correct	0.975911854047808
187997	1	stim129_inanimate_fruits_grape_1.png	129	inanimate	fruits	grape	1	0	4	stars	2	correct	0.975911854047808
188197	1	stim193_inanimate_tools_scissors_1.png	193	inanimate	tools	scissors	1	0	4	stars	2	correct	0.975911854047808
188397	1	stim065_animate_insect_bug_1.png	65	animate	insect	bug	1	0	4	stars	2	correct	0.975911854047808
188597	1	stim034_animate_bird_peacock_2.png	34	animate	bird	peacock	2	0	4	stars	2	correct	0.975911854047808
188797	1	stim162_inanimate_plants_bush_2.png	162	inanimate	plants	bush	2	0	4	stars	2	correct	0.975911854047808
188997	1	stim012_animate_aquatic_seahorse_4.png	12	animate	aquatic	seahorse	4	0	4	stars	2	correct	0.975911854047808
189197	1	stim079_animate_insect_grasshopper_3.png	79	animate	insect	grasshopper	3	0	4	stars	2	correct	0.975911854047808
189397	1	stim090_animate_mammal_kangaroo_2.png	90	animate	mammal	kangaroo	2	0	4	stars	2	correct	0.975911854047808
189597	1	stim077_animate_insect_grasshopper_1.png	77	animate	insect	grasshopper	1	0	4	stars	2	correct	0.975911854047808
189797	1	stim082_animate_mammal_cow_2.png	82	animate	mammal	cow	2	0	4	stars	2	correct	0.975911854047808
189997	1	stim039_animate_bird_penguin_3.png	39	animate	bird	penguin	3	0	4	stars	2	correct	0.975911854047808
190197	1	stim023_animate_bird_chicken_3.png	23	animate	bird	chicken	3	0	4	stars	2	correct	0.975911854047808
190397	1	stim014_animate_aquatic_shark_2.png	14	animate	aquatic	shark	2	0	4	stars	2	correct	0.975911854047808
190597	1	stim111_inanimate_clothing_jeans_3.png	111	inanimate	clothing	jeans	3	0	4	stars	2	correct	0.975911854047808
190797	1	stim165_inanimate_plants_cactus_1.png	165	inanimate	plants	cactus	1	0	4	stars	2	correct	0.975911854047808
190997	1	stim052_animate_human_clown_4.png	52	animate	human	clown	4	0	4	stars	2	correct	0.975911854047808
191197	1	stim199_inanimate_tools_wrench_3.png	199	inanimate	tools	wrench	3	0	4	stars	2	correct	0.975911854047808
191397	1	stim178_inanimate_plants_tulip_2.png	178	inanimate	plants	tulip	2	0	4	stars	2	correct	0.975911854047808
191597	1	stim083_animate_mammal_cow_3.png	83	animate	mammal	cow	3	0	4	stars	2	correct	0.975911854047808
191797	1	stim030_animate_bird_parrot_2.png	30	animate	bird	parrot	2	0	4	stars	2	correct	0.975911854047808
191997	1	stim062_animate_insect_ant_2.png	62	animate	insect	ant	2	0	4	stars	2	correct	0.975911854047808
192197	1	stim157_inanimate_furniture_table_1.png	157	inanimate	furniture	table	1	0	4	stars	2	correct	0.975911854047808
192397	1	stim115_inanimate_clothing_shirt_3.png	115	inanimate	clothing	shirt	3	0	4	stars	2	correct	0.975911854047808
192597	1	stim089_animate_mammal_kangaroo_1.png	89	animate	mammal	kangaroo	1	0	4	stars	2	correct	0.975911854047808
192797	1	stim009_animate_aquatic_seahorse_1.png	9	animate	aquatic	seahorse	1	0	4	stars	2	correct	0.975911854047808
192997	1	stim043_animate_human_baby_3.png	43	animate	human	baby	3	0	4	stars	2	correct	0.975911854047808
193197	1	stim066_animate_insect_bug_2.png	66	animate	insect	bug	2	0	4	stars	2	correct	0.975911854047808
193397	1	stim046_animate_human_child_2.png	46	animate	human	child	2	0	4	stars	2	correct	0.975911854047808
193597	1	stim003_animate_aquatic_crab_3.png	3	animate	aquatic	crab	3	0	4	stars	2	correct	0.975911854047808
193797	1	stim149_inanimate_furniture_closet_1.png	149	inanimate	furniture	closet	1	0	4	stars	2	correct	0.975911854047808
193997	1	stim196_inanimate_tools_scissors_4.png	196	inanimate	tools	scissors	4	0	4	stars	2	correct	0.975911854047808
194197	1	stim125_inanimate_fruits_banana_1.png	125	inanimate	fruits	banana	1	0	4	stars	2	correct	0.975911854047808
194397	1	stim095_animate_mammal_monkey_3.png	95	animate	mammal	monkey	3	0	4	stars	2	correct	0.975911854047808
194597	1	stim070_animate_insect_butterfly_2.png	70	animate	insect	butterfly	2	0	4	stars	2	correct	0.975911854047808
194797	1	stim176_inanimate_plants_tree_4.png	176	inanimate	plants	tree	4	0	4	stars	2	correct	0.975911854047808
194997	1	stim067_animate_insect_bug_3.png	67	animate	insect	bug	3	0	4	stars	2	correct	0.975911854047808
195197	1	stim084_animate_mammal_cow_4.png	84	animate	mammal	cow	4	0	4	stars	2	correct	0.975911854047808
195397	1	stim159_inanimate_furniture_table_3.png	159	inanimate	furniture	table	3	0	4	stars	2	correct	0.975911854047808
195597	1	stim164_inanimate_plants_bush_4.png	164	inanimate	plants	bush	4	0	4	stars	2	correct	0.975911854047808
195797	1	stim192_inanimate_tools_pan_4.png	192	inanimate	tools	pan	4	0	4	stars	2	correct	0.975911854047808
195997	1	stim045_animate_human_child_1.png	45	animate	human	child	1	0	4	stars	2	correct	0.975911854047808
196197	1	stim053_animate_human_faces_1.png	53	animate	human	faces	1	0	4	stars	2	correct	0.975911854047808
196397	1	stim172_inanimate_plants_sunflower_4.png	172	inanimate	plants	sunflower	4	0	4	stars	2	correct	0.975911854047808
196597	1	stim056_animate_human_faces_4.png	56	animate	human	faces	4	0	4	stars	2	correct	0.975911854047808
196797	1	stim147_inanimate_furniture_chair_3.png	147	inanimate	furniture	chair	3	0	4	stars	2	correct	0.975911854047808
196997	1	stim128_inanimate_fruits_banana_4.png	128	inanimate	fruits	banana	4	0	4	stars	2	correct	0.975911854047808
197197	1	stim150_inanimate_furniture_closet_2.png	150	inanimate	furniture	closet	2	0	4	stars	2	correct	0.975911854047808
197397	1	stim142_inanimate_furniture_bed_2.png	142	inanimate	furniture	bed	2	0	4	stars	2	correct	0.975911854047808
197597	1	stim118_inanimate_clothing_socks_2.png	118	inanimate	clothing	socks	2	0	4	stars	2	correct	0.975911854047808
197797	1	stim154_inanimate_furniture_sofa_2.png	154	inanimate	furniture	sofa	2	0	4	stars	2	correct	0.975911854047808
197997	1	stim183_inanimate_tools_broom_3.png	183	inanimate	tools	broom	3	0	4	stars	2	correct	0.975911854047808
198197	1	stim156_inanimate_furniture_sofa_4.png	156	inanimate	furniture	sofa	4	0	4	stars	2	correct	0.975911854047808
198397	1	stim112_inanimate_clothing_jeans_4.png	112	inanimate	clothing	jeans	4	0	4	stars	2	correct	0.975911854047808
198597	1	stim124_inanimate_fruits_apple_4.png	124	inanimate	fruits	apple	4	0	4	stars	2	correct	0.975911854047808
198797	1	stim135_inanimate_fruits_pineapple_3.png	135	inanimate	fruits	pineapple	3	0	4	stars	2	correct	0.975911854047808
203881	1	stim165_inanimate_plants_cactus_1.png	165	inanimate	plants	cactus	1	0	5	stars	1	correct	1.26257807697948
204081	1	stim020_animate_aquatic_shrimp_4.png	20	animate	aquatic	shrimp	4	0	5	stars	1	correct	1.26257807697948
204281	1	stim150_inanimate_furniture_closet_2.png	150	inanimate	furniture	closet	2	0	5	stars	1	correct	1.26257807697948
204481	1	stim017_animate_aquatic_shrimp_1.png	17	animate	aquatic	shrimp	1	0	5	stars	1	correct	1.26257807697948
204681	1	stim015_animate_aquatic_shark_3.png	15	animate	aquatic	shark	3	0	5	stars	1	correct	1.26257807697948
204881	1	stim035_animate_bird_peacock_3.png	35	animate	bird	peacock	3	0	5	stars	1	correct	1.26257807697948
205081	1	stim105_inanimate_clothing_hat_1.png	105	inanimate	clothing	hat	1	0	5	stars	1	correct	1.26257807697948
205281	1	stim085_animate_mammal_giraffe_1.png	85	animate	mammal	giraffe	1	0	5	stars	1	correct	1.26257807697948
205481	1	stim045_animate_human_child_1.png	45	animate	human	child	1	0	5	stars	1	correct	1.26257807697948
205681	1	stim062_animate_insect_ant_2.png	62	animate	insect	ant	2	0	5	stars	1	correct	1.26257807697948
205881	1	stim057_animate_human_sports_1.png	57	animate	human	sports	1	0	5	stars	1	correct	1.26257807697948
206081	1	stim186_inanimate_tools_hammer_2.png	186	inanimate	tools	hammer	2	0	5	stars	1	correct	1.26257807697948
206281	1	stim043_animate_human_baby_3.png	43	animate	human	baby	3	0	5	stars	1	correct	1.26257807697948
206481	1	stim171_inanimate_plants_sunflower_3.png	171	inanimate	plants	sunflower	3	0	5	stars	1	correct	1.26257807697948
206681	1	stim003_animate_aquatic_crab_3.png	3	animate	aquatic	crab	3	0	5	stars	1	correct	1.26257807697948
206881	1	stim111_inanimate_clothing_jeans_3.png	111	inanimate	clothing	jeans	3	0	5	stars	1	correct	1.26257807697948
207081	1	stim169_inanimate_plants_sunflower_1.png	169	inanimate	plants	sunflower	1	0	5	stars	1	correct	1.26257807697948
207281	1	stim046_animate_human_child_2.png	46	animate	human	child	2	0	5	stars	1	correct	1.26257807697948
207481	1	stim177_inanimate_plants_tulip_1.png	177	inanimate	plants	tulip	1	0	5	stars	1	correct	1.26257807697948
207681	1	stim121_inanimate_fruits_apple_1.png	121	inanimate	fruits	apple	1	0	5	stars	1	correct	1.26257807697948
207881	1	stim126_inanimate_fruits_banana_2.png	126	inanimate	fruits	banana	2	0	5	stars	1	correct	1.26257807697948
208081	1	stim173_inanimate_plants_tree_1.png	173	inanimate	plants	tree	1	0	5	stars	1	correct	1.26257807697948
208281	1	stim161_inanimate_plants_bush_1.png	161	inanimate	plants	bush	1	0	5	stars	1	correct	1.26257807697948
208481	1	stim071_animate_insect_butterfly_3.png	71	animate	insect	butterfly	3	0	5	stars	1	correct	1.26257807697948
208681	1	stim099_animate_mammal_rhino_3.png	99	animate	mammal	rhino	3	0	5	stars	1	correct	1.26257807697948
208881	1	stim069_animate_insect_butterfly_1.png	69	animate	insect	butterfly	1	0	5	stars	1	correct	1.26257807697948
209081	1	stim007_animate_aquatic_fish_3.png	7	animate	aquatic	fish	3	0	5	stars	1	correct	1.26257807697948
209281	1	stim079_animate_insect_grasshopper_3.png	79	animate	insect	grasshopper	3	0	5	stars	1	correct	1.26257807697948
209481	1	stim025_animate_bird_duck_1.png	25	animate	bird	duck	1	0	5	stars	1	correct	1.26257807697948
209681	1	stim014_animate_aquatic_shark_2.png	14	animate	aquatic	shark	2	0	5	stars	1	correct	1.26257807697948
209881	1	stim131_inanimate_fruits_grape_3.png	131	inanimate	fruits	grape	3	0	5	stars	1	correct	1.26257807697948
210081	1	stim138_inanimate_fruits_strawberry_2.png	138	inanimate	fruits	strawberry	2	0	5	stars	1	correct	1.26257807697948
210281	1	stim029_animate_bird_parrot_1.png	29	animate	bird	parrot	1	0	5	stars	1	correct	1.26257807697948
210481	1	stim088_animate_mammal_giraffe_4.png	88	animate	mammal	giraffe	4	0	5	stars	1	correct	1.26257807697948
210681	1	stim024_animate_bird_chicken_4.png	24	animate	bird	chicken	4	0	5	stars	1	correct	1.26257807697948
210881	1	stim144_inanimate_furniture_bed_4.png	144	inanimate	furniture	bed	4	0	5	stars	1	correct	1.26257807697948
211081	1	stim019_animate_aquatic_shrimp_3.png	19	animate	aquatic	shrimp	3	0	5	stars	1	correct	1.26257807697948
211281	1	stim090_animate_mammal_kangaroo_2.png	90	animate	mammal	kangaroo	2	0	5	stars	1	correct	1.26257807697948
211481	1	stim157_inanimate_furniture_table_1.png	157	inanimate	furniture	table	1	0	5	stars	1	correct	1.26257807697948
211681	1	stim189_inanimate_tools_pan_1.png	189	inanimate	tools	pan	1	0	5	stars	1	correct	1.26257807697948
211881	1	stim056_animate_human_faces_4.png	56	animate	human	faces	4	0	5	stars	1	correct	1.26257807697948
212081	1	stim053_animate_human_faces_1.png	53	animate	human	faces	1	0	5	stars	1	correct	1.26257807697948
212281	1	stim047_animate_human_child_3.png	47	animate	human	child	3	0	5	stars	1	correct	1.26257807697948
212481	1	stim087_animate_mammal_giraffe_3.png	87	animate	mammal	giraffe	3	0	5	stars	1	correct	1.26257807697948
212681	1	stim128_inanimate_fruits_banana_4.png	128	inanimate	fruits	banana	4	0	5	stars	1	correct	1.26257807697948
212881	1	stim051_animate_human_clown_3.png	51	animate	human	clown	3	0	5	stars	1	correct	1.26257807697948
213081	1	stim112_inanimate_clothing_jeans_4.png	112	inanimate	clothing	jeans	4	0	5	stars	1	correct	1.26257807697948
213281	1	stim194_inanimate_tools_scissors_2.png	194	inanimate	tools	scissors	2	0	5	stars	1	correct	1.26257807697948
213481	1	stim018_animate_aquatic_shrimp_2.png	18	animate	aquatic	shrimp	2	0	5	stars	1	correct	1.26257807697948
213681	1	stim184_inanimate_tools_broom_4.png	184	inanimate	tools	broom	4	0	5	stars	1	correct	1.26257807697948
213881	1	stim113_inanimate_clothing_shirt_1.png	113	inanimate	clothing	shirt	1	0	5	stars	1	correct	1.26257807697948
214081	1	stim073_animate_insect_dragonfly_1.png	73	animate	insect	dragonfly	1	0	5	stars	1	correct	1.26257807697948
214281	1	stim027_animate_bird_duck_3.png	27	animate	bird	duck	3	0	5	stars	1	correct	1.26257807697948
214481	1	stim034_animate_bird_peacock_2.png	34	animate	bird	peacock	2	0	5	stars	1	correct	1.26257807697948
214681	1	stim076_animate_insect_dragonfly_4.png	76	animate	insect	dragonfly	4	0	5	stars	1	correct	1.26257807697948
214881	1	stim096_animate_mammal_monkey_4.png	96	animate	mammal	monkey	4	0	5	stars	1	correct	1.26257807697948
215081	1	stim097_animate_mammal_rhino_1.png	97	animate	mammal	rhino	1	0	5	stars	1	correct	1.26257807697948
215281	1	stim032_animate_bird_parrot_4.png	32	animate	bird	parrot	4	0	5	stars	1	correct	1.26257807697948
215481	1	stim022_animate_bird_chicken_2.png	22	animate	bird	chicken	2	0	5	stars	1	correct	1.26257807697948
215681	1	stim198_inanimate_tools_wrench_2.png	198	inanimate	tools	wrench	2	0	5	stars	1	correct	1.26257807697948
215881	1	stim109_inanimate_clothing_jeans_1.png	109	inanimate	clothing	jeans	1	0	5	stars	1	correct	1.26257807697948
216081	1	stim181_inanimate_tools_broom_1.png	181	inanimate	tools	broom	1	0	5	stars	1	correct	1.26257807697948
216281	1	stim038_animate_bird_penguin_2.png	38	animate	bird	penguin	2	0	5	stars	1	correct	1.26257807697948
216481	1	stim064_animate_insect_ant_4.png	64	animate	insect	ant	4	0	5	stars	1	correct	1.26257807697948
216681	1	stim042_animate_human_baby_2.png	42	animate	human	baby	2	0	5	stars	1	correct	1.26257807697948
216881	1	stim082_animate_mammal_cow_2.png	82	animate	mammal	cow	2	0	5	stars	1	correct	1.26257807697948
217081	1	stim142_inanimate_furniture_bed_2.png	142	inanimate	furniture	bed	2	0	5	stars	1	correct	1.26257807697948
217281	1	stim001_animate_aquatic_crab_1.png	1	animate	aquatic	crab	1	0	5	stars	1	correct	1.26257807697948
217481	1	stim179_inanimate_plants_tulip_3.png	179	inanimate	plants	tulip	3	0	5	stars	1	correct	1.26257807697948
217681	1	stim101_inanimate_clothing_gloves_1.png	101	inanimate	clothing	gloves	1	0	5	stars	1	correct	1.26257807697948
217881	1	stim033_animate_bird_peacock_1.png	33	animate	bird	peacock	1	0	5	stars	1	correct	1.26257807697948
218081	1	stim023_animate_bird_chicken_3.png	23	animate	bird	chicken	3	0	5	stars	1	correct	1.26257807697948
218281	1	stim030_animate_bird_parrot_2.png	30	animate	bird	parrot	2	0	5	stars	1	correct	1.26257807697948
218481	1	stim132_inanimate_fruits_grape_4.png	132	inanimate	fruits	grape	4	0	5	stars	1	correct	1.26257807697948
218681	1	stim065_animate_insect_bug_1.png	65	animate	insect	bug	1	0	5	stars	1	correct	1.26257807697948
218881	1	stim125_inanimate_fruits_banana_1.png	125	inanimate	fruits	banana	1	0	5	stars	1	correct	1.26257807697948
219081	1	stim100_animate_mammal_rhino_4.png	100	animate	mammal	rhino	4	0	5	stars	1	correct	1.26257807697948
219281	1	stim149_inanimate_furniture_closet_1.png	149	inanimate	furniture	closet	1	0	5	stars	1	correct	1.26257807697948
219481	1	stim009_animate_aquatic_seahorse_1.png	9	animate	aquatic	seahorse	1	0	5	stars	1	correct	1.26257807697948
219681	1	stim154_inanimate_furniture_sofa_2.png	154	inanimate	furniture	sofa	2	0	5	stars	1	correct	1.26257807697948
219881	1	stim143_inanimate_furniture_bed_3.png	143	inanimate	furniture	bed	3	0	5	stars	1	correct	1.26257807697948
220081	1	stim044_animate_human_baby_4.png	44	animate	human	baby	4	0	5	stars	1	correct	1.26257807697948
220281	1	stim075_animate_insect_dragonfly_3.png	75	animate	insect	dragonfly	3	0	5	stars	1	correct	1.26257807697948
220481	1	stim012_animate_aquatic_seahorse_4.png	12	animate	aquatic	seahorse	4	0	5	stars	1	correct	1.26257807697948
220681	1	stim123_inanimate_fruits_apple_3.png	123	inanimate	fruits	apple	3	0	5	stars	1	correct	1.26257807697948
220881	1	stim092_animate_mammal_kangaroo_4.png	92	animate	mammal	kangaroo	4	0	5	stars	1	correct	1.26257807697948
