onset	duration	stimulusname	stimulusnumber	levelA	levelB	levelC	withinexemplarnumber	istarget	trialnumber	condition	response	correct	rt
46364	1	stim035_animate_bird_peacock_3.png	35	animate	bird	peacock	3	0	1	boats	1	incorrect	0.5669046492294
46414	1	stim027_animate_bird_duck_3.png	27	animate	bird	duck	3	0	1	boats	1	incorrect	0.5669046492294
46464	1	stim069_animate_insect_butterfly_1.png	69	animate	insect	butterfly	1	0	1	boats	1	incorrect	0.5669046492294
46514	1	stim136_inanimate_fruits_pineapple_4.png	136	inanimate	fruits	pineapple	4	0	1	boats	1	incorrect	0.5669046492294
46565	1	stim017_animate_aquatic_shrimp_1.png	17	animate	aquatic	shrimp	1	0	1	boats	1	incorrect	0.5669046492294
46614	1	stim099_animate_mammal_rhino_3.png	99	animate	mammal	rhino	3	0	1	boats	1	incorrect	0.5669046492294
46664	1	stim037_animate_bird_penguin_1.png	37	animate	bird	penguin	1	0	1	boats	1	incorrect	0.5669046492294
46714	1	stim181_inanimate_tools_broom_1.png	181	inanimate	tools	broom	1	0	1	boats	1	incorrect	0.5669046492294
46764	1	stim133_inanimate_fruits_pineapple_1.png	133	inanimate	fruits	pineapple	1	0	1	boats	1	incorrect	0.5669046492294
46814	1	stim081_animate_mammal_cow_1.png	81	animate	mammal	cow	1	0	1	boats	1	incorrect	0.5669046492294
46864	1	stim185_inanimate_tools_hammer_1.png	185	inanimate	tools	hammer	1	0	1	boats	1	incorrect	0.5669046492294
46914	1	stim102_inanimate_clothing_gloves_2.png	102	inanimate	clothing	gloves	2	0	1	boats	1	incorrect	0.5669046492294
46964	1	stim108_inanimate_clothing_hat_4.png	108	inanimate	clothing	hat	4	0	1	boats	1	incorrect	0.5669046492294
47014	1	stim125_inanimate_fruits_banana_1.png	125	inanimate	fruits	banana	1	0	1	boats	1	incorrect	0.5669046492294
47064	1	stim130_inanimate_fruits_grape_2.png	130	inanimate	fruits	grape	2	0	1	boats	1	incorrect	0.5669046492294
47114	1	stim176_inanimate_plants_tree_4.png	176	inanimate	plants	tree	4	0	1	boats	1	incorrect	0.5669046492294
47164	1	stim036_animate_bird_peacock_4.png	36	animate	bird	peacock	4	0	1	boats	1	incorrect	0.5669046492294
47214	1	stim149_inanimate_furniture_closet_1.png	149	inanimate	furniture	closet	1	0	1	boats	1	incorrect	0.5669046492294
47265	1	stim051_animate_human_clown_3.png	51	animate	human	clown	3	0	1	boats	1	incorrect	0.5669046492294
47314	1	stim043_animate_human_baby_3.png	43	animate	human	baby	3	0	1	boats	1	incorrect	0.5669046492294
47364	1	stim131_inanimate_fruits_grape_3.png	131	inanimate	fruits	grape	3	0	1	boats	1	incorrect	0.5669046492294
47414	1	stim132_inanimate_fruits_grape_4.png	132	inanimate	fruits	grape	4	0	1	boats	1	incorrect	0.5669046492294
47464	1	stim126_inanimate_fruits_banana_2.png	126	inanimate	fruits	banana	2	0	1	boats	1	incorrect	0.5669046492294
47514	1	stim033_animate_bird_peacock_1.png	33	animate	bird	peacock	1	0	1	boats	1	incorrect	0.5669046492294
47564	1	stim122_inanimate_fruits_apple_2.png	122	inanimate	fruits	apple	2	0	1	boats	1	incorrect	0.5669046492294
47614	1	stim104_inanimate_clothing_gloves_4.png	104	inanimate	clothing	gloves	4	0	1	boats	1	incorrect	0.5669046492294
47664	1	stim028_animate_bird_duck_4.png	28	animate	bird	duck	4	0	1	boats	1	incorrect	0.5669046492294
47714	1	stim044_animate_human_baby_4.png	44	animate	human	baby	4	0	1	boats	1	incorrect	0.5669046492294
47764	1	stim065_animate_insect_bug_1.png	65	animate	insect	bug	1	0	1	boats	1	incorrect	0.5669046492294
47814	1	stim023_animate_bird_chicken_3.png	23	animate	bird	chicken	3	0	1	boats	1	incorrect	0.5669046492294
47864	1	stim119_inanimate_clothing_socks_3.png	119	inanimate	clothing	socks	3	0	1	boats	1	incorrect	0.5669046492294
47914	1	stim089_animate_mammal_kangaroo_1.png	89	animate	mammal	kangaroo	1	0	1	boats	1	incorrect	0.5669046492294
47964	1	stim001_animate_aquatic_crab_1.png	1	animate	aquatic	crab	1	0	1	boats	1	incorrect	0.5669046492294
48014	1	stim163_inanimate_plants_bush_3.png	163	inanimate	plants	bush	3	0	1	boats	1	incorrect	0.5669046492294
48064	1	stim112_inanimate_clothing_jeans_4.png	112	inanimate	clothing	jeans	4	0	1	boats	1	incorrect	0.5669046492294
48114	1	stim118_inanimate_clothing_socks_2.png	118	inanimate	clothing	socks	2	0	1	boats	1	incorrect	0.5669046492294
48164	1	stim187_inanimate_tools_hammer_3.png	187	inanimate	tools	hammer	3	0	1	boats	1	incorrect	0.5669046492294
48214	1	stim059_animate_human_sports_3.png	59	animate	human	sports	3	0	1	boats	1	incorrect	0.5669046492294
48264	1	stim141_inanimate_furniture_bed_1.png	141	inanimate	furniture	bed	1	0	1	boats	1	incorrect	0.5669046492294
48314	1	stim137_inanimate_fruits_strawberry_1.png	137	inanimate	fruits	strawberry	1	0	1	boats	1	incorrect	0.5669046492294
48364	1	stim010_animate_aquatic_seahorse_2.png	10	animate	aquatic	seahorse	2	0	1	boats	1	incorrect	0.5669046492294
48414	1	stim034_animate_bird_peacock_2.png	34	animate	bird	peacock	2	0	1	boats	1	incorrect	0.5669046492294
48464	1	stim168_inanimate_plants_cactus_4.png	168	inanimate	plants	cactus	4	0	1	boats	1	incorrect	0.5669046492294
48514	1	stim088_animate_mammal_giraffe_4.png	88	animate	mammal	giraffe	4	0	1	boats	1	incorrect	0.5669046492294
48564	1	stim018_animate_aquatic_shrimp_2.png	18	animate	aquatic	shrimp	2	0	1	boats	1	incorrect	0.5669046492294
48614	1	stim194_inanimate_tools_scissors_2.png	194	inanimate	tools	scissors	2	0	1	boats	1	incorrect	0.5669046492294
48664	1	stim076_animate_insect_dragonfly_4.png	76	animate	insect	dragonfly	4	0	1	boats	1	incorrect	0.5669046492294
48714	1	stim021_animate_bird_chicken_1.png	21	animate	bird	chicken	1	0	1	boats	1	incorrect	0.5669046492294
48764	1	stim048_animate_human_child_4.png	48	animate	human	child	4	0	1	boats	1	incorrect	0.5669046492294
48814	1	stim024_animate_bird_chicken_4.png	24	animate	bird	chicken	4	0	1	boats	1	incorrect	0.5669046492294
48864	1	stim052_animate_human_clown_4.png	52	animate	human	clown	4	0	1	boats	1	incorrect	0.5669046492294
48914	1	stim086_animate_mammal_giraffe_2.png	86	animate	mammal	giraffe	2	0	1	boats	1	incorrect	0.5669046492294
48964	1	stim151_inanimate_furniture_closet_3.png	151	inanimate	furniture	closet	3	0	1	boats	1	incorrect	0.5669046492294
49014	1	stim196_inanimate_tools_scissors_4.png	196	inanimate	tools	scissors	4	0	1	boats	1	incorrect	0.5669046492294
49064	1	stim160_inanimate_furniture_table_4.png	160	inanimate	furniture	table	4	0	1	boats	1	incorrect	0.5669046492294
49114	1	stim129_inanimate_fruits_grape_1.png	129	inanimate	fruits	grape	1	0	1	boats	1	incorrect	0.5669046492294
49164	1	stim110_inanimate_clothing_jeans_2.png	110	inanimate	clothing	jeans	2	0	1	boats	1	incorrect	0.5669046492294
49214	1	stim172_inanimate_plants_sunflower_4.png	172	inanimate	plants	sunflower	4	0	1	boats	1	incorrect	0.5669046492294
49264	1	stim115_inanimate_clothing_shirt_3.png	115	inanimate	clothing	shirt	3	0	1	boats	1	incorrect	0.5669046492294
49314	1	stim128_inanimate_fruits_banana_4.png	128	inanimate	fruits	banana	4	0	1	boats	1	incorrect	0.5669046492294
49364	1	stim040_animate_bird_penguin_4.png	40	animate	bird	penguin	4	0	1	boats	1	incorrect	0.5669046492294
49414	1	stim105_inanimate_clothing_hat_1.png	105	inanimate	clothing	hat	1	0	1	boats	1	incorrect	0.5669046492294
49464	1	stim146_inanimate_furniture_chair_2.png	146	inanimate	furniture	chair	2	0	1	boats	1	incorrect	0.5669046492294
49514	1	stim084_animate_mammal_cow_4.png	84	animate	mammal	cow	4	0	1	boats	1	incorrect	0.5669046492294
49564	1	stim090_animate_mammal_kangaroo_2.png	90	animate	mammal	kangaroo	2	0	1	boats	1	incorrect	0.5669046492294
49614	1	stim016_animate_aquatic_shark_4.png	16	animate	aquatic	shark	4	0	1	boats	1	incorrect	0.5669046492294
49664	1	stim144_inanimate_furniture_bed_4.png	144	inanimate	furniture	bed	4	0	1	boats	1	incorrect	0.5669046492294
49714	1	stim156_inanimate_furniture_sofa_4.png	156	inanimate	furniture	sofa	4	0	1	boats	1	incorrect	0.5669046492294
49764	1	stim100_animate_mammal_rhino_4.png	100	animate	mammal	rhino	4	0	1	boats	1	incorrect	0.5669046492294
49814	1	stim191_inanimate_tools_pan_3.png	191	inanimate	tools	pan	3	0	1	boats	1	incorrect	0.5669046492294
49864	1	stim109_inanimate_clothing_jeans_1.png	109	inanimate	clothing	jeans	1	0	1	boats	1	incorrect	0.5669046492294
49914	1	stim002_animate_aquatic_crab_2.png	2	animate	aquatic	crab	2	0	1	boats	1	incorrect	0.5669046492294
49964	1	stim012_animate_aquatic_seahorse_4.png	12	animate	aquatic	seahorse	4	0	1	boats	1	incorrect	0.5669046492294
50014	1	stim003_animate_aquatic_crab_3.png	3	animate	aquatic	crab	3	0	1	boats	1	incorrect	0.5669046492294
50064	1	stim042_animate_human_baby_2.png	42	animate	human	baby	2	0	1	boats	1	incorrect	0.5669046492294
50114	1	stim148_inanimate_furniture_chair_4.png	148	inanimate	furniture	chair	4	0	1	boats	1	incorrect	0.5669046492294
50164	1	stim020_animate_aquatic_shrimp_4.png	20	animate	aquatic	shrimp	4	0	1	boats	1	incorrect	0.5669046492294
50214	1	stim200_inanimate_tools_wrench_4.png	200	inanimate	tools	wrench	4	0	1	boats	1	incorrect	0.5669046492294
50265	1	stim071_animate_insect_butterfly_3.png	71	animate	insect	butterfly	3	0	1	boats	1	incorrect	0.5669046492294
50314	1	stim208_targets_object_boats_4.png	208	targets	object	boats	4	1	1	boats	1	incorrect	0.5669046492294
50364	1	stim096_animate_mammal_monkey_4.png	96	animate	mammal	monkey	4	0	1	boats	1	incorrect	0.5669046492294
50414	1	stim019_animate_aquatic_shrimp_3.png	19	animate	aquatic	shrimp	3	0	1	boats	1	incorrect	0.5669046492294
50464	1	stim143_inanimate_furniture_bed_3.png	143	inanimate	furniture	bed	3	0	1	boats	1	incorrect	0.5669046492294
50514	1	stim039_animate_bird_penguin_3.png	39	animate	bird	penguin	3	0	1	boats	1	incorrect	0.5669046492294
50564	1	stim004_animate_aquatic_crab_4.png	4	animate	aquatic	crab	4	0	1	boats	1	incorrect	0.5669046492294
50614	1	stim063_animate_insect_ant_3.png	63	animate	insect	ant	3	0	1	boats	1	incorrect	0.5669046492294
50664	1	stim121_inanimate_fruits_apple_1.png	121	inanimate	fruits	apple	1	0	1	boats	1	incorrect	0.5669046492294
50714	1	stim032_animate_bird_parrot_4.png	32	animate	bird	parrot	4	0	1	boats	1	incorrect	0.5669046492294
50764	1	stim038_animate_bird_penguin_2.png	38	animate	bird	penguin	2	0	1	boats	1	incorrect	0.5669046492294
50814	1	stim054_animate_human_faces_2.png	54	animate	human	faces	2	0	1	boats	1	incorrect	0.5669046492294
50864	1	stim074_animate_insect_dragonfly_2.png	74	animate	insect	dragonfly	2	0	1	boats	1	incorrect	0.5669046492294
50915	1	stim072_animate_insect_butterfly_4.png	72	animate	insect	butterfly	4	0	1	boats	1	incorrect	0.5669046492294
50964	1	stim145_inanimate_furniture_chair_1.png	145	inanimate	furniture	chair	1	0	1	boats	1	incorrect	0.5669046492294
51014	1	stim147_inanimate_furniture_chair_3.png	147	inanimate	furniture	chair	3	0	1	boats	1	incorrect	0.5669046492294
51064	1	stim179_inanimate_plants_tulip_3.png	179	inanimate	plants	tulip	3	0	1	boats	1	incorrect	0.5669046492294
51114	1	stim080_animate_insect_grasshopper_4.png	80	animate	insect	grasshopper	4	0	1	boats	1	incorrect	0.5669046492294
51164	1	stim062_animate_insect_ant_2.png	62	animate	insect	ant	2	0	1	boats	1	incorrect	0.5669046492294
51214	1	stim140_inanimate_fruits_strawberry_4.png	140	inanimate	fruits	strawberry	4	0	1	boats	1	incorrect	0.5669046492294
51264	1	stim189_inanimate_tools_pan_1.png	189	inanimate	tools	pan	1	0	1	boats	1	incorrect	0.5669046492294
51314	1	stim116_inanimate_clothing_shirt_4.png	116	inanimate	clothing	shirt	4	0	1	boats	1	incorrect	0.5669046492294
51364	1	stim142_inanimate_furniture_bed_2.png	142	inanimate	furniture	bed	2	0	1	boats	1	incorrect	0.5669046492294
51414	1	stim135_inanimate_fruits_pineapple_3.png	135	inanimate	fruits	pineapple	3	0	1	boats	1	incorrect	0.5669046492294
51464	1	stim178_inanimate_plants_tulip_2.png	178	inanimate	plants	tulip	2	0	1	boats	1	incorrect	0.5669046492294
51514	1	stim154_inanimate_furniture_sofa_2.png	154	inanimate	furniture	sofa	2	0	1	boats	1	incorrect	0.5669046492294
51564	1	stim098_animate_mammal_rhino_2.png	98	animate	mammal	rhino	2	0	1	boats	1	incorrect	0.5669046492294
51614	1	stim014_animate_aquatic_shark_2.png	14	animate	aquatic	shark	2	0	1	boats	1	incorrect	0.5669046492294
51664	1	stim058_animate_human_sports_2.png	58	animate	human	sports	2	0	1	boats	1	incorrect	0.5669046492294
51714	1	stim192_inanimate_tools_pan_4.png	192	inanimate	tools	pan	4	0	1	boats	1	incorrect	0.5669046492294
51764	1	stim078_animate_insect_grasshopper_2.png	78	animate	insect	grasshopper	2	0	1	boats	1	incorrect	0.5669046492294
51814	1	stim183_inanimate_tools_broom_3.png	183	inanimate	tools	broom	3	0	1	boats	1	incorrect	0.5669046492294
51864	1	stim106_inanimate_clothing_hat_2.png	106	inanimate	clothing	hat	2	0	1	boats	1	incorrect	0.5669046492294
51914	1	stim022_animate_bird_chicken_2.png	22	animate	bird	chicken	2	0	1	boats	1	incorrect	0.5669046492294
51964	1	stim060_animate_human_sports_4.png	60	animate	human	sports	4	0	1	boats	1	incorrect	0.5669046492294
52015	1	stim075_animate_insect_dragonfly_3.png	75	animate	insect	dragonfly	3	0	1	boats	1	incorrect	0.5669046492294
52064	1	stim094_animate_mammal_monkey_2.png	94	animate	mammal	monkey	2	0	1	boats	1	incorrect	0.5669046492294
52115	1	stim011_animate_aquatic_seahorse_3.png	11	animate	aquatic	seahorse	3	0	1	boats	1	incorrect	0.5669046492294
52164	1	stim186_inanimate_tools_hammer_2.png	186	inanimate	tools	hammer	2	0	1	boats	1	incorrect	0.5669046492294
52214	1	stim165_inanimate_plants_cactus_1.png	165	inanimate	plants	cactus	1	0	1	boats	1	incorrect	0.5669046492294
52265	1	stim053_animate_human_faces_1.png	53	animate	human	faces	1	0	1	boats	1	incorrect	0.5669046492294
52315	1	stim101_inanimate_clothing_gloves_1.png	101	inanimate	clothing	gloves	1	0	1	boats	1	incorrect	0.5669046492294
52365	1	stim067_animate_insect_bug_3.png	67	animate	insect	bug	3	0	1	boats	1	incorrect	0.5669046492294
52415	1	stim202_targets_object_boats_2.png	202	targets	object	boats	2	1	1	boats	1	incorrect	0.5669046492294
52464	1	stim005_animate_aquatic_fish_1.png	5	animate	aquatic	fish	1	0	1	boats	1	incorrect	0.5669046492294
52515	1	stim120_inanimate_clothing_socks_4.png	120	inanimate	clothing	socks	4	0	1	boats	1	incorrect	0.5669046492294
52565	1	stim162_inanimate_plants_bush_2.png	162	inanimate	plants	bush	2	0	1	boats	1	incorrect	0.5669046492294
52614	1	stim050_animate_human_clown_2.png	50	animate	human	clown	2	0	1	boats	1	incorrect	0.5669046492294
52665	1	stim107_inanimate_clothing_hat_3.png	107	inanimate	clothing	hat	3	0	1	boats	1	incorrect	0.5669046492294
52715	1	stim103_inanimate_clothing_gloves_3.png	103	inanimate	clothing	gloves	3	0	1	boats	1	incorrect	0.5669046492294
52764	1	stim013_animate_aquatic_shark_1.png	13	animate	aquatic	shark	1	0	1	boats	1	incorrect	0.5669046492294
52814	1	stim083_animate_mammal_cow_3.png	83	animate	mammal	cow	3	0	1	boats	1	incorrect	0.5669046492294
52864	1	stim085_animate_mammal_giraffe_1.png	85	animate	mammal	giraffe	1	0	1	boats	1	incorrect	0.5669046492294
52914	1	stim114_inanimate_clothing_shirt_2.png	114	inanimate	clothing	shirt	2	0	1	boats	1	incorrect	0.5669046492294
52965	1	stim158_inanimate_furniture_table_2.png	158	inanimate	furniture	table	2	0	1	boats	1	incorrect	0.5669046492294
53015	1	stim047_animate_human_child_3.png	47	animate	human	child	3	0	1	boats	1	incorrect	0.5669046492294
53065	1	stim026_animate_bird_duck_2.png	26	animate	bird	duck	2	0	1	boats	1	incorrect	0.5669046492294
53114	1	stim199_inanimate_tools_wrench_3.png	199	inanimate	tools	wrench	3	0	1	boats	1	incorrect	0.5669046492294
53164	1	stim150_inanimate_furniture_closet_2.png	150	inanimate	furniture	closet	2	0	1	boats	1	incorrect	0.5669046492294
53215	1	stim049_animate_human_clown_1.png	49	animate	human	clown	1	0	1	boats	1	incorrect	0.5669046492294
53265	1	stim045_animate_human_child_1.png	45	animate	human	child	1	0	1	boats	1	incorrect	0.5669046492294
53314	1	stim079_animate_insect_grasshopper_3.png	79	animate	insect	grasshopper	3	0	1	boats	1	incorrect	0.5669046492294
53365	1	stim077_animate_insect_grasshopper_1.png	77	animate	insect	grasshopper	1	0	1	boats	1	incorrect	0.5669046492294
53414	1	stim182_inanimate_tools_broom_2.png	182	inanimate	tools	broom	2	0	1	boats	1	incorrect	0.5669046492294
53465	1	stim167_inanimate_plants_cactus_3.png	167	inanimate	plants	cactus	3	0	1	boats	1	incorrect	0.5669046492294
53515	1	stim173_inanimate_plants_tree_1.png	173	inanimate	plants	tree	1	0	1	boats	1	incorrect	0.5669046492294
53565	1	stim068_animate_insect_bug_4.png	68	animate	insect	bug	4	0	1	boats	1	incorrect	0.5669046492294
53615	1	stim166_inanimate_plants_cactus_2.png	166	inanimate	plants	cactus	2	0	1	boats	1	incorrect	0.5669046492294
53665	1	stim056_animate_human_faces_4.png	56	animate	human	faces	4	0	1	boats	1	incorrect	0.5669046492294
53715	1	stim057_animate_human_sports_1.png	57	animate	human	sports	1	0	1	boats	1	incorrect	0.5669046492294
53765	1	stim046_animate_human_child_2.png	46	animate	human	child	2	0	1	boats	1	incorrect	0.5669046492294
53815	1	stim073_animate_insect_dragonfly_1.png	73	animate	insect	dragonfly	1	0	1	boats	1	incorrect	0.5669046492294
53865	1	stim188_inanimate_tools_hammer_4.png	188	inanimate	tools	hammer	4	0	1	boats	1	incorrect	0.5669046492294
53915	1	stim177_inanimate_plants_tulip_1.png	177	inanimate	plants	tulip	1	0	1	boats	1	incorrect	0.5669046492294
53965	1	stim164_inanimate_plants_bush_4.png	164	inanimate	plants	bush	4	0	1	boats	1	incorrect	0.5669046492294
54015	1	stim092_animate_mammal_kangaroo_4.png	92	animate	mammal	kangaroo	4	0	1	boats	1	incorrect	0.5669046492294
54065	1	stim093_animate_mammal_monkey_1.png	93	animate	mammal	monkey	1	0	1	boats	1	incorrect	0.5669046492294
54115	1	stim138_inanimate_fruits_strawberry_2.png	138	inanimate	fruits	strawberry	2	0	1	boats	1	incorrect	0.5669046492294
54165	1	stim198_inanimate_tools_wrench_2.png	198	inanimate	tools	wrench	2	0	1	boats	1	incorrect	0.5669046492294
54215	1	stim111_inanimate_clothing_jeans_3.png	111	inanimate	clothing	jeans	3	0	1	boats	1	incorrect	0.5669046492294
54265	1	stim159_inanimate_furniture_table_3.png	159	inanimate	furniture	table	3	0	1	boats	1	incorrect	0.5669046492294
54315	1	stim170_inanimate_plants_sunflower_2.png	170	inanimate	plants	sunflower	2	0	1	boats	1	incorrect	0.5669046492294
54365	1	stim161_inanimate_plants_bush_1.png	161	inanimate	plants	bush	1	0	1	boats	1	incorrect	0.5669046492294
54415	1	stim155_inanimate_furniture_sofa_3.png	155	inanimate	furniture	sofa	3	0	1	boats	1	incorrect	0.5669046492294
54465	1	stim175_inanimate_plants_tree_3.png	175	inanimate	plants	tree	3	0	1	boats	1	incorrect	0.5669046492294
54515	1	stim070_animate_insect_butterfly_2.png	70	animate	insect	butterfly	2	0	1	boats	1	incorrect	0.5669046492294
54565	1	stim061_animate_insect_ant_1.png	61	animate	insect	ant	1	0	1	boats	1	incorrect	0.5669046492294
54615	1	stim174_inanimate_plants_tree_2.png	174	inanimate	plants	tree	2	0	1	boats	1	incorrect	0.5669046492294
54665	1	stim015_animate_aquatic_shark_3.png	15	animate	aquatic	shark	3	0	1	boats	1	incorrect	0.5669046492294
54715	1	stim193_inanimate_tools_scissors_1.png	193	inanimate	tools	scissors	1	0	1	boats	1	incorrect	0.5669046492294
54765	1	stim025_animate_bird_duck_1.png	25	animate	bird	duck	1	0	1	boats	1	incorrect	0.5669046492294
54815	1	stim123_inanimate_fruits_apple_3.png	123	inanimate	fruits	apple	3	0	1	boats	1	incorrect	0.5669046492294
54865	1	stim008_animate_aquatic_fish_4.png	8	animate	aquatic	fish	4	0	1	boats	1	incorrect	0.5669046492294
54915	1	stim139_inanimate_fruits_strawberry_3.png	139	inanimate	fruits	strawberry	3	0	1	boats	1	incorrect	0.5669046492294
54965	1	stim029_animate_bird_parrot_1.png	29	animate	bird	parrot	1	0	1	boats	1	incorrect	0.5669046492294
55015	1	stim171_inanimate_plants_sunflower_3.png	171	inanimate	plants	sunflower	3	0	1	boats	1	incorrect	0.5669046492294
55065	1	stim195_inanimate_tools_scissors_3.png	195	inanimate	tools	scissors	3	0	1	boats	1	incorrect	0.5669046492294
55115	1	stim127_inanimate_fruits_banana_3.png	127	inanimate	fruits	banana	3	0	1	boats	1	incorrect	0.5669046492294
55165	1	stim134_inanimate_fruits_pineapple_2.png	134	inanimate	fruits	pineapple	2	0	1	boats	1	incorrect	0.5669046492294
55215	1	stim157_inanimate_furniture_table_1.png	157	inanimate	furniture	table	1	0	1	boats	1	incorrect	0.5669046492294
55265	1	stim007_animate_aquatic_fish_3.png	7	animate	aquatic	fish	3	0	1	boats	1	incorrect	0.5669046492294
55315	1	stim117_inanimate_clothing_socks_1.png	117	inanimate	clothing	socks	1	0	1	boats	1	incorrect	0.5669046492294
55365	1	stim095_animate_mammal_monkey_3.png	95	animate	mammal	monkey	3	0	1	boats	1	incorrect	0.5669046492294
55415	1	stim064_animate_insect_ant_4.png	64	animate	insect	ant	4	0	1	boats	1	incorrect	0.5669046492294
55465	1	stim041_animate_human_baby_1.png	41	animate	human	baby	1	0	1	boats	1	incorrect	0.5669046492294
55515	1	stim113_inanimate_clothing_shirt_1.png	113	inanimate	clothing	shirt	1	0	1	boats	1	incorrect	0.5669046492294
55565	1	stim091_animate_mammal_kangaroo_3.png	91	animate	mammal	kangaroo	3	0	1	boats	1	incorrect	0.5669046492294
55615	1	stim009_animate_aquatic_seahorse_1.png	9	animate	aquatic	seahorse	1	0	1	boats	1	incorrect	0.5669046492294
55665	1	stim030_animate_bird_parrot_2.png	30	animate	bird	parrot	2	0	1	boats	1	incorrect	0.5669046492294
55715	1	stim153_inanimate_furniture_sofa_1.png	153	inanimate	furniture	sofa	1	0	1	boats	1	incorrect	0.5669046492294
55765	1	stim197_inanimate_tools_wrench_1.png	197	inanimate	tools	wrench	1	0	1	boats	1	incorrect	0.5669046492294
55815	1	stim180_inanimate_plants_tulip_4.png	180	inanimate	plants	tulip	4	0	1	boats	1	incorrect	0.5669046492294
55865	1	stim006_animate_aquatic_fish_2.png	6	animate	aquatic	fish	2	0	1	boats	1	incorrect	0.5669046492294
55915	1	stim152_inanimate_furniture_closet_4.png	152	inanimate	furniture	closet	4	0	1	boats	1	incorrect	0.5669046492294
55965	1	stim031_animate_bird_parrot_3.png	31	animate	bird	parrot	3	0	1	boats	1	incorrect	0.5669046492294
56015	1	stim097_animate_mammal_rhino_1.png	97	animate	mammal	rhino	1	0	1	boats	1	incorrect	0.5669046492294
56065	1	stim087_animate_mammal_giraffe_3.png	87	animate	mammal	giraffe	3	0	1	boats	1	incorrect	0.5669046492294
56115	1	stim066_animate_insect_bug_2.png	66	animate	insect	bug	2	0	1	boats	1	incorrect	0.5669046492294
56165	1	stim082_animate_mammal_cow_2.png	82	animate	mammal	cow	2	0	1	boats	1	incorrect	0.5669046492294
56215	1	stim184_inanimate_tools_broom_4.png	184	inanimate	tools	broom	4	0	1	boats	1	incorrect	0.5669046492294
56265	1	stim190_inanimate_tools_pan_2.png	190	inanimate	tools	pan	2	0	1	boats	1	incorrect	0.5669046492294
56315	1	stim169_inanimate_plants_sunflower_1.png	169	inanimate	plants	sunflower	1	0	1	boats	1	incorrect	0.5669046492294
56365	1	stim055_animate_human_faces_3.png	55	animate	human	faces	3	0	1	boats	1	incorrect	0.5669046492294
56415	1	stim124_inanimate_fruits_apple_4.png	124	inanimate	fruits	apple	4	0	1	boats	1	incorrect	0.5669046492294
62648	1	stim126_inanimate_fruits_banana_2.png	126	inanimate	fruits	banana	2	0	2	stars	2	incorrect	0.628163521156239
62698	1	stim160_inanimate_furniture_table_4.png	160	inanimate	furniture	table	4	0	2	stars	2	incorrect	0.628163521156239
62748	1	stim071_animate_insect_butterfly_3.png	71	animate	insect	butterfly	3	0	2	stars	2	incorrect	0.628163521156239
62798	1	stim178_inanimate_plants_tulip_2.png	178	inanimate	plants	tulip	2	0	2	stars	2	incorrect	0.628163521156239
62848	1	stim122_inanimate_fruits_apple_2.png	122	inanimate	fruits	apple	2	0	2	stars	2	incorrect	0.628163521156239
62898	1	stim037_animate_bird_penguin_1.png	37	animate	bird	penguin	1	0	2	stars	2	incorrect	0.628163521156239
62948	1	stim100_animate_mammal_rhino_4.png	100	animate	mammal	rhino	4	0	2	stars	2	incorrect	0.628163521156239
62998	1	stim113_inanimate_clothing_shirt_1.png	113	inanimate	clothing	shirt	1	0	2	stars	2	incorrect	0.628163521156239
63048	1	stim051_animate_human_clown_3.png	51	animate	human	clown	3	0	2	stars	2	incorrect	0.628163521156239
63098	1	stim060_animate_human_sports_4.png	60	animate	human	sports	4	0	2	stars	2	incorrect	0.628163521156239
63148	1	stim179_inanimate_plants_tulip_3.png	179	inanimate	plants	tulip	3	0	2	stars	2	incorrect	0.628163521156239
63198	1	stim038_animate_bird_penguin_2.png	38	animate	bird	penguin	2	0	2	stars	2	incorrect	0.628163521156239
63248	1	stim125_inanimate_fruits_banana_1.png	125	inanimate	fruits	banana	1	0	2	stars	2	incorrect	0.628163521156239
63298	1	stim007_animate_aquatic_fish_3.png	7	animate	aquatic	fish	3	0	2	stars	2	incorrect	0.628163521156239
63348	1	stim079_animate_insect_grasshopper_3.png	79	animate	insect	grasshopper	3	0	2	stars	2	incorrect	0.628163521156239
63398	1	stim028_animate_bird_duck_4.png	28	animate	bird	duck	4	0	2	stars	2	incorrect	0.628163521156239
63448	1	stim031_animate_bird_parrot_3.png	31	animate	bird	parrot	3	0	2	stars	2	incorrect	0.628163521156239
63498	1	stim018_animate_aquatic_shrimp_2.png	18	animate	aquatic	shrimp	2	0	2	stars	2	incorrect	0.628163521156239
63548	1	stim118_inanimate_clothing_socks_2.png	118	inanimate	clothing	socks	2	0	2	stars	2	incorrect	0.628163521156239
63598	1	stim120_inanimate_clothing_socks_4.png	120	inanimate	clothing	socks	4	0	2	stars	2	incorrect	0.628163521156239
63648	1	stim157_inanimate_furniture_table_1.png	157	inanimate	furniture	table	1	0	2	stars	2	incorrect	0.628163521156239
63698	1	stim151_inanimate_furniture_closet_3.png	151	inanimate	furniture	closet	3	0	2	stars	2	incorrect	0.628163521156239
63748	1	stim053_animate_human_faces_1.png	53	animate	human	faces	1	0	2	stars	2	incorrect	0.628163521156239
63798	1	stim032_animate_bird_parrot_4.png	32	animate	bird	parrot	4	0	2	stars	2	incorrect	0.628163521156239
63848	1	stim046_animate_human_child_2.png	46	animate	human	child	2	0	2	stars	2	incorrect	0.628163521156239
63898	1	stim020_animate_aquatic_shrimp_4.png	20	animate	aquatic	shrimp	4	0	2	stars	2	incorrect	0.628163521156239
63948	1	stim009_animate_aquatic_seahorse_1.png	9	animate	aquatic	seahorse	1	0	2	stars	2	incorrect	0.628163521156239
63998	1	stim083_animate_mammal_cow_3.png	83	animate	mammal	cow	3	0	2	stars	2	incorrect	0.628163521156239
64048	1	stim002_animate_aquatic_crab_2.png	2	animate	aquatic	crab	2	0	2	stars	2	incorrect	0.628163521156239
64098	1	stim166_inanimate_plants_cactus_2.png	166	inanimate	plants	cactus	2	0	2	stars	2	incorrect	0.628163521156239
64148	1	stim076_animate_insect_dragonfly_4.png	76	animate	insect	dragonfly	4	0	2	stars	2	incorrect	0.628163521156239
64198	1	stim023_animate_bird_chicken_3.png	23	animate	bird	chicken	3	0	2	stars	2	incorrect	0.628163521156239
64248	1	stim087_animate_mammal_giraffe_3.png	87	animate	mammal	giraffe	3	0	2	stars	2	incorrect	0.628163521156239
64298	1	stim108_inanimate_clothing_hat_4.png	108	inanimate	clothing	hat	4	0	2	stars	2	incorrect	0.628163521156239
64348	1	stim180_inanimate_plants_tulip_4.png	180	inanimate	plants	tulip	4	0	2	stars	2	incorrect	0.628163521156239
64398	1	stim080_animate_insect_grasshopper_4.png	80	animate	insect	grasshopper	4	0	2	stars	2	incorrect	0.628163521156239
64448	1	stim085_animate_mammal_giraffe_1.png	85	animate	mammal	giraffe	1	0	2	stars	2	incorrect	0.628163521156239
64498	1	stim077_animate_insect_grasshopper_1.png	77	animate	insect	grasshopper	1	0	2	stars	2	incorrect	0.628163521156239
64548	1	stim131_inanimate_fruits_grape_3.png	131	inanimate	fruits	grape	3	0	2	stars	2	incorrect	0.628163521156239
64598	1	stim084_animate_mammal_cow_4.png	84	animate	mammal	cow	4	0	2	stars	2	incorrect	0.628163521156239
64648	1	stim101_inanimate_clothing_gloves_1.png	101	inanimate	clothing	gloves	1	0	2	stars	2	incorrect	0.628163521156239
64698	1	stim011_animate_aquatic_seahorse_3.png	11	animate	aquatic	seahorse	3	0	2	stars	2	incorrect	0.628163521156239
64748	1	stim128_inanimate_fruits_banana_4.png	128	inanimate	fruits	banana	4	0	2	stars	2	incorrect	0.628163521156239
64798	1	stim090_animate_mammal_kangaroo_2.png	90	animate	mammal	kangaroo	2	0	2	stars	2	incorrect	0.628163521156239
64848	1	stim003_animate_aquatic_crab_3.png	3	animate	aquatic	crab	3	0	2	stars	2	incorrect	0.628163521156239
64898	1	stim036_animate_bird_peacock_4.png	36	animate	bird	peacock	4	0	2	stars	2	incorrect	0.628163521156239
64948	1	stim163_inanimate_plants_bush_3.png	163	inanimate	plants	bush	3	0	2	stars	2	incorrect	0.628163521156239
64998	1	stim006_animate_aquatic_fish_2.png	6	animate	aquatic	fish	2	0	2	stars	2	incorrect	0.628163521156239
65048	1	stim149_inanimate_furniture_closet_1.png	149	inanimate	furniture	closet	1	0	2	stars	2	incorrect	0.628163521156239
65098	1	stim066_animate_insect_bug_2.png	66	animate	insect	bug	2	0	2	stars	2	incorrect	0.628163521156239
65148	1	stim212_targets_shapes_star_4.png	212	targets	shapes	star	4	1	2	stars	2	incorrect	0.628163521156239
65198	1	stim075_animate_insect_dragonfly_3.png	75	animate	insect	dragonfly	3	0	2	stars	2	incorrect	0.628163521156239
65248	1	stim025_animate_bird_duck_1.png	25	animate	bird	duck	1	0	2	stars	2	incorrect	0.628163521156239
65298	1	stim183_inanimate_tools_broom_3.png	183	inanimate	tools	broom	3	0	2	stars	2	incorrect	0.628163521156239
65348	1	stim013_animate_aquatic_shark_1.png	13	animate	aquatic	shark	1	0	2	stars	2	incorrect	0.628163521156239
65398	1	stim187_inanimate_tools_hammer_3.png	187	inanimate	tools	hammer	3	0	2	stars	2	incorrect	0.628163521156239
65448	1	stim058_animate_human_sports_2.png	58	animate	human	sports	2	0	2	stars	2	incorrect	0.628163521156239
65498	1	stim029_animate_bird_parrot_1.png	29	animate	bird	parrot	1	0	2	stars	2	incorrect	0.628163521156239
65548	1	stim033_animate_bird_peacock_1.png	33	animate	bird	peacock	1	0	2	stars	2	incorrect	0.628163521156239
65598	1	stim019_animate_aquatic_shrimp_3.png	19	animate	aquatic	shrimp	3	0	2	stars	2	incorrect	0.628163521156239
65648	1	stim184_inanimate_tools_broom_4.png	184	inanimate	tools	broom	4	0	2	stars	2	incorrect	0.628163521156239
65698	1	stim132_inanimate_fruits_grape_4.png	132	inanimate	fruits	grape	4	0	2	stars	2	incorrect	0.628163521156239
65748	1	stim182_inanimate_tools_broom_2.png	182	inanimate	tools	broom	2	0	2	stars	2	incorrect	0.628163521156239
65798	1	stim054_animate_human_faces_2.png	54	animate	human	faces	2	0	2	stars	2	incorrect	0.628163521156239
65848	1	stim154_inanimate_furniture_sofa_2.png	154	inanimate	furniture	sofa	2	0	2	stars	2	incorrect	0.628163521156239
65898	1	stim057_animate_human_sports_1.png	57	animate	human	sports	1	0	2	stars	2	incorrect	0.628163521156239
65948	1	stim199_inanimate_tools_wrench_3.png	199	inanimate	tools	wrench	3	0	2	stars	2	incorrect	0.628163521156239
65998	1	stim200_inanimate_tools_wrench_4.png	200	inanimate	tools	wrench	4	0	2	stars	2	incorrect	0.628163521156239
66048	1	stim040_animate_bird_penguin_4.png	40	animate	bird	penguin	4	0	2	stars	2	incorrect	0.628163521156239
66098	1	stim150_inanimate_furniture_closet_2.png	150	inanimate	furniture	closet	2	0	2	stars	2	incorrect	0.628163521156239
66148	1	stim024_animate_bird_chicken_4.png	24	animate	bird	chicken	4	0	2	stars	2	incorrect	0.628163521156239
66198	1	stim148_inanimate_furniture_chair_4.png	148	inanimate	furniture	chair	4	0	2	stars	2	incorrect	0.628163521156239
66248	1	stim086_animate_mammal_giraffe_2.png	86	animate	mammal	giraffe	2	0	2	stars	2	incorrect	0.628163521156239
66298	1	stim112_inanimate_clothing_jeans_4.png	112	inanimate	clothing	jeans	4	0	2	stars	2	incorrect	0.628163521156239
66348	1	stim139_inanimate_fruits_strawberry_3.png	139	inanimate	fruits	strawberry	3	0	2	stars	2	incorrect	0.628163521156239
66398	1	stim140_inanimate_fruits_strawberry_4.png	140	inanimate	fruits	strawberry	4	0	2	stars	2	incorrect	0.628163521156239
66448	1	stim105_inanimate_clothing_hat_1.png	105	inanimate	clothing	hat	1	0	2	stars	2	incorrect	0.628163521156239
66498	1	stim109_inanimate_clothing_jeans_1.png	109	inanimate	clothing	jeans	1	0	2	stars	2	incorrect	0.628163521156239
66548	1	stim133_inanimate_fruits_pineapple_1.png	133	inanimate	fruits	pineapple	1	0	2	stars	2	incorrect	0.628163521156239
66598	1	stim074_animate_insect_dragonfly_2.png	74	animate	insect	dragonfly	2	0	2	stars	2	incorrect	0.628163521156239
66648	1	stim185_inanimate_tools_hammer_1.png	185	inanimate	tools	hammer	1	0	2	stars	2	incorrect	0.628163521156239
66698	1	stim152_inanimate_furniture_closet_4.png	152	inanimate	furniture	closet	4	0	2	stars	2	incorrect	0.628163521156239
66748	1	stim123_inanimate_fruits_apple_3.png	123	inanimate	fruits	apple	3	0	2	stars	2	incorrect	0.628163521156239
66798	1	stim192_inanimate_tools_pan_4.png	192	inanimate	tools	pan	4	0	2	stars	2	incorrect	0.628163521156239
66848	1	stim093_animate_mammal_monkey_1.png	93	animate	mammal	monkey	1	0	2	stars	2	incorrect	0.628163521156239
66898	1	stim164_inanimate_plants_bush_4.png	164	inanimate	plants	bush	4	0	2	stars	2	incorrect	0.628163521156239
66948	1	stim155_inanimate_furniture_sofa_3.png	155	inanimate	furniture	sofa	3	0	2	stars	2	incorrect	0.628163521156239
66998	1	stim035_animate_bird_peacock_3.png	35	animate	bird	peacock	3	0	2	stars	2	incorrect	0.628163521156239
67048	1	stim095_animate_mammal_monkey_3.png	95	animate	mammal	monkey	3	0	2	stars	2	incorrect	0.628163521156239
67098	1	stim104_inanimate_clothing_gloves_4.png	104	inanimate	clothing	gloves	4	0	2	stars	2	incorrect	0.628163521156239
67148	1	stim173_inanimate_plants_tree_1.png	173	inanimate	plants	tree	1	0	2	stars	2	incorrect	0.628163521156239
67198	1	stim194_inanimate_tools_scissors_2.png	194	inanimate	tools	scissors	2	0	2	stars	2	incorrect	0.628163521156239
67248	1	stim161_inanimate_plants_bush_1.png	161	inanimate	plants	bush	1	0	2	stars	2	incorrect	0.628163521156239
67298	1	stim065_animate_insect_bug_1.png	65	animate	insect	bug	1	0	2	stars	2	incorrect	0.628163521156239
67348	1	stim062_animate_insect_ant_2.png	62	animate	insect	ant	2	0	2	stars	2	incorrect	0.628163521156239
67398	1	stim121_inanimate_fruits_apple_1.png	121	inanimate	fruits	apple	1	0	2	stars	2	incorrect	0.628163521156239
67448	1	stim096_animate_mammal_monkey_4.png	96	animate	mammal	monkey	4	0	2	stars	2	incorrect	0.628163521156239
67498	1	stim026_animate_bird_duck_2.png	26	animate	bird	duck	2	0	2	stars	2	incorrect	0.628163521156239
67548	1	stim027_animate_bird_duck_3.png	27	animate	bird	duck	3	0	2	stars	2	incorrect	0.628163521156239
67598	1	stim156_inanimate_furniture_sofa_4.png	156	inanimate	furniture	sofa	4	0	2	stars	2	incorrect	0.628163521156239
67648	1	stim165_inanimate_plants_cactus_1.png	165	inanimate	plants	cactus	1	0	2	stars	2	incorrect	0.628163521156239
67698	1	stim067_animate_insect_bug_3.png	67	animate	insect	bug	3	0	2	stars	2	incorrect	0.628163521156239
67748	1	stim170_inanimate_plants_sunflower_2.png	170	inanimate	plants	sunflower	2	0	2	stars	2	incorrect	0.628163521156239
67798	1	stim153_inanimate_furniture_sofa_1.png	153	inanimate	furniture	sofa	1	0	2	stars	2	incorrect	0.628163521156239
67848	1	stim134_inanimate_fruits_pineapple_2.png	134	inanimate	fruits	pineapple	2	0	2	stars	2	incorrect	0.628163521156239
67898	1	stim004_animate_aquatic_crab_4.png	4	animate	aquatic	crab	4	0	2	stars	2	incorrect	0.628163521156239
67948	1	stim091_animate_mammal_kangaroo_3.png	91	animate	mammal	kangaroo	3	0	2	stars	2	incorrect	0.628163521156239
67998	1	stim211_targets_shapes_star_3.png	211	targets	shapes	star	3	1	2	stars	2	incorrect	0.628163521156239
68048	1	stim169_inanimate_plants_sunflower_1.png	169	inanimate	plants	sunflower	1	0	2	stars	2	incorrect	0.628163521156239
68098	1	stim143_inanimate_furniture_bed_3.png	143	inanimate	furniture	bed	3	0	2	stars	2	incorrect	0.628163521156239
68148	1	stim082_animate_mammal_cow_2.png	82	animate	mammal	cow	2	0	2	stars	2	incorrect	0.628163521156239
68198	1	stim070_animate_insect_butterfly_2.png	70	animate	insect	butterfly	2	0	2	stars	2	incorrect	0.628163521156239
68248	1	stim196_inanimate_tools_scissors_4.png	196	inanimate	tools	scissors	4	0	2	stars	2	incorrect	0.628163521156239
68298	1	stim124_inanimate_fruits_apple_4.png	124	inanimate	fruits	apple	4	0	2	stars	2	incorrect	0.628163521156239
68348	1	stim172_inanimate_plants_sunflower_4.png	172	inanimate	plants	sunflower	4	0	2	stars	2	incorrect	0.628163521156239
68398	1	stim063_animate_insect_ant_3.png	63	animate	insect	ant	3	0	2	stars	2	incorrect	0.628163521156239
68448	1	stim055_animate_human_faces_3.png	55	animate	human	faces	3	0	2	stars	2	incorrect	0.628163521156239
68498	1	stim048_animate_human_child_4.png	48	animate	human	child	4	0	2	stars	2	incorrect	0.628163521156239
68548	1	stim022_animate_bird_chicken_2.png	22	animate	bird	chicken	2	0	2	stars	2	incorrect	0.628163521156239
68598	1	stim177_inanimate_plants_tulip_1.png	177	inanimate	plants	tulip	1	0	2	stars	2	incorrect	0.628163521156239
68648	1	stim141_inanimate_furniture_bed_1.png	141	inanimate	furniture	bed	1	0	2	stars	2	incorrect	0.628163521156239
68698	1	stim001_animate_aquatic_crab_1.png	1	animate	aquatic	crab	1	0	2	stars	2	incorrect	0.628163521156239
68748	1	stim014_animate_aquatic_shark_2.png	14	animate	aquatic	shark	2	0	2	stars	2	incorrect	0.628163521156239
68798	1	stim102_inanimate_clothing_gloves_2.png	102	inanimate	clothing	gloves	2	0	2	stars	2	incorrect	0.628163521156239
68848	1	stim144_inanimate_furniture_bed_4.png	144	inanimate	furniture	bed	4	0	2	stars	2	incorrect	0.628163521156239
68898	1	stim119_inanimate_clothing_socks_3.png	119	inanimate	clothing	socks	3	0	2	stars	2	incorrect	0.628163521156239
68948	1	stim197_inanimate_tools_wrench_1.png	197	inanimate	tools	wrench	1	0	2	stars	2	incorrect	0.628163521156239
68998	1	stim008_animate_aquatic_fish_4.png	8	animate	aquatic	fish	4	0	2	stars	2	incorrect	0.628163521156239
69048	1	stim047_animate_human_child_3.png	47	animate	human	child	3	0	2	stars	2	incorrect	0.628163521156239
69098	1	stim116_inanimate_clothing_shirt_4.png	116	inanimate	clothing	shirt	4	0	2	stars	2	incorrect	0.628163521156239
69148	1	stim213_targets_shapes_star_1.png	213	targets	shapes	star	1	1	2	stars	2	incorrect	0.628163521156239
69198	1	stim190_inanimate_tools_pan_2.png	190	inanimate	tools	pan	2	0	2	stars	2	incorrect	0.628163521156239
69248	1	stim042_animate_human_baby_2.png	42	animate	human	baby	2	0	2	stars	2	incorrect	0.628163521156239
69298	1	stim110_inanimate_clothing_jeans_2.png	110	inanimate	clothing	jeans	2	0	2	stars	2	incorrect	0.628163521156239
69348	1	stim127_inanimate_fruits_banana_3.png	127	inanimate	fruits	banana	3	0	2	stars	2	incorrect	0.628163521156239
69398	1	stim117_inanimate_clothing_socks_1.png	117	inanimate	clothing	socks	1	0	2	stars	2	incorrect	0.628163521156239
69448	1	stim016_animate_aquatic_shark_4.png	16	animate	aquatic	shark	4	0	2	stars	2	incorrect	0.628163521156239
69498	1	stim189_inanimate_tools_pan_1.png	189	inanimate	tools	pan	1	0	2	stars	2	incorrect	0.628163521156239
69548	1	stim044_animate_human_baby_4.png	44	animate	human	baby	4	0	2	stars	2	incorrect	0.628163521156239
69598	1	stim021_animate_bird_chicken_1.png	21	animate	bird	chicken	1	0	2	stars	2	incorrect	0.628163521156239
69648	1	stim174_inanimate_plants_tree_2.png	174	inanimate	plants	tree	2	0	2	stars	2	incorrect	0.628163521156239
69698	1	stim195_inanimate_tools_scissors_3.png	195	inanimate	tools	scissors	3	0	2	stars	2	incorrect	0.628163521156239
69748	1	stim068_animate_insect_bug_4.png	68	animate	insect	bug	4	0	2	stars	2	incorrect	0.628163521156239
69798	1	stim186_inanimate_tools_hammer_2.png	186	inanimate	tools	hammer	2	0	2	stars	2	incorrect	0.628163521156239
69848	1	stim193_inanimate_tools_scissors_1.png	193	inanimate	tools	scissors	1	0	2	stars	2	incorrect	0.628163521156239
69898	1	stim017_animate_aquatic_shrimp_1.png	17	animate	aquatic	shrimp	1	0	2	stars	2	incorrect	0.628163521156239
69948	1	stim111_inanimate_clothing_jeans_3.png	111	inanimate	clothing	jeans	3	0	2	stars	2	incorrect	0.628163521156239
69998	1	stim039_animate_bird_penguin_3.png	39	animate	bird	penguin	3	0	2	stars	2	incorrect	0.628163521156239
70048	1	stim114_inanimate_clothing_shirt_2.png	114	inanimate	clothing	shirt	2	0	2	stars	2	incorrect	0.628163521156239
70098	1	stim167_inanimate_plants_cactus_3.png	167	inanimate	plants	cactus	3	0	2	stars	2	incorrect	0.628163521156239
70148	1	stim168_inanimate_plants_cactus_4.png	168	inanimate	plants	cactus	4	0	2	stars	2	incorrect	0.628163521156239
70198	1	stim045_animate_human_child_1.png	45	animate	human	child	1	0	2	stars	2	incorrect	0.628163521156239
70248	1	stim030_animate_bird_parrot_2.png	30	animate	bird	parrot	2	0	2	stars	2	incorrect	0.628163521156239
70298	1	stim162_inanimate_plants_bush_2.png	162	inanimate	plants	bush	2	0	2	stars	2	incorrect	0.628163521156239
70348	1	stim078_animate_insect_grasshopper_2.png	78	animate	insect	grasshopper	2	0	2	stars	2	incorrect	0.628163521156239
70398	1	stim012_animate_aquatic_seahorse_4.png	12	animate	aquatic	seahorse	4	0	2	stars	2	incorrect	0.628163521156239
70448	1	stim103_inanimate_clothing_gloves_3.png	103	inanimate	clothing	gloves	3	0	2	stars	2	incorrect	0.628163521156239
70498	1	stim130_inanimate_fruits_grape_2.png	130	inanimate	fruits	grape	2	0	2	stars	2	incorrect	0.628163521156239
70548	1	stim049_animate_human_clown_1.png	49	animate	human	clown	1	0	2	stars	2	incorrect	0.628163521156239
70598	1	stim043_animate_human_baby_3.png	43	animate	human	baby	3	0	2	stars	2	incorrect	0.628163521156239
70648	1	stim050_animate_human_clown_2.png	50	animate	human	clown	2	0	2	stars	2	incorrect	0.628163521156239
70698	1	stim052_animate_human_clown_4.png	52	animate	human	clown	4	0	2	stars	2	incorrect	0.628163521156239
70748	1	stim147_inanimate_furniture_chair_3.png	147	inanimate	furniture	chair	3	0	2	stars	2	incorrect	0.628163521156239
70798	1	stim056_animate_human_faces_4.png	56	animate	human	faces	4	0	2	stars	2	incorrect	0.628163521156239
70848	1	stim041_animate_human_baby_1.png	41	animate	human	baby	1	0	2	stars	2	incorrect	0.628163521156239
70898	1	stim176_inanimate_plants_tree_4.png	176	inanimate	plants	tree	4	0	2	stars	2	incorrect	0.628163521156239
70948	1	stim171_inanimate_plants_sunflower_3.png	171	inanimate	plants	sunflower	3	0	2	stars	2	incorrect	0.628163521156239
70998	1	stim158_inanimate_furniture_table_2.png	158	inanimate	furniture	table	2	0	2	stars	2	incorrect	0.628163521156239
71048	1	stim115_inanimate_clothing_shirt_3.png	115	inanimate	clothing	shirt	3	0	2	stars	2	incorrect	0.628163521156239
71098	1	stim034_animate_bird_peacock_2.png	34	animate	bird	peacock	2	0	2	stars	2	incorrect	0.628163521156239
71148	1	stim081_animate_mammal_cow_1.png	81	animate	mammal	cow	1	0	2	stars	2	incorrect	0.628163521156239
71198	1	stim146_inanimate_furniture_chair_2.png	146	inanimate	furniture	chair	2	0	2	stars	2	incorrect	0.628163521156239
71248	1	stim015_animate_aquatic_shark_3.png	15	animate	aquatic	shark	3	0	2	stars	2	incorrect	0.628163521156239
71298	1	stim064_animate_insect_ant_4.png	64	animate	insect	ant	4	0	2	stars	2	incorrect	0.628163521156239
71348	1	stim010_animate_aquatic_seahorse_2.png	10	animate	aquatic	seahorse	2	0	2	stars	2	incorrect	0.628163521156239
71398	1	stim097_animate_mammal_rhino_1.png	97	animate	mammal	rhino	1	0	2	stars	2	incorrect	0.628163521156239
71448	1	stim059_animate_human_sports_3.png	59	animate	human	sports	3	0	2	stars	2	incorrect	0.628163521156239
71498	1	stim092_animate_mammal_kangaroo_4.png	92	animate	mammal	kangaroo	4	0	2	stars	2	incorrect	0.628163521156239
71548	1	stim188_inanimate_tools_hammer_4.png	188	inanimate	tools	hammer	4	0	2	stars	2	incorrect	0.628163521156239
71598	1	stim073_animate_insect_dragonfly_1.png	73	animate	insect	dragonfly	1	0	2	stars	2	incorrect	0.628163521156239
71648	1	stim099_animate_mammal_rhino_3.png	99	animate	mammal	rhino	3	0	2	stars	2	incorrect	0.628163521156239
71698	1	stim159_inanimate_furniture_table_3.png	159	inanimate	furniture	table	3	0	2	stars	2	incorrect	0.628163521156239
71748	1	stim072_animate_insect_butterfly_4.png	72	animate	insect	butterfly	4	0	2	stars	2	incorrect	0.628163521156239
71798	1	stim145_inanimate_furniture_chair_1.png	145	inanimate	furniture	chair	1	0	2	stars	2	incorrect	0.628163521156239
71848	1	stim175_inanimate_plants_tree_3.png	175	inanimate	plants	tree	3	0	2	stars	2	incorrect	0.628163521156239
71898	1	stim198_inanimate_tools_wrench_2.png	198	inanimate	tools	wrench	2	0	2	stars	2	incorrect	0.628163521156239
71948	1	stim137_inanimate_fruits_strawberry_1.png	137	inanimate	fruits	strawberry	1	0	2	stars	2	incorrect	0.628163521156239
71998	1	stim061_animate_insect_ant_1.png	61	animate	insect	ant	1	0	2	stars	2	incorrect	0.628163521156239
72048	1	stim069_animate_insect_butterfly_1.png	69	animate	insect	butterfly	1	0	2	stars	2	incorrect	0.628163521156239
72098	1	stim181_inanimate_tools_broom_1.png	181	inanimate	tools	broom	1	0	2	stars	2	incorrect	0.628163521156239
72148	1	stim088_animate_mammal_giraffe_4.png	88	animate	mammal	giraffe	4	0	2	stars	2	incorrect	0.628163521156239
72198	1	stim005_animate_aquatic_fish_1.png	5	animate	aquatic	fish	1	0	2	stars	2	incorrect	0.628163521156239
72248	1	stim107_inanimate_clothing_hat_3.png	107	inanimate	clothing	hat	3	0	2	stars	2	incorrect	0.628163521156239
72298	1	stim129_inanimate_fruits_grape_1.png	129	inanimate	fruits	grape	1	0	2	stars	2	incorrect	0.628163521156239
72348	1	stim136_inanimate_fruits_pineapple_4.png	136	inanimate	fruits	pineapple	4	0	2	stars	2	incorrect	0.628163521156239
72398	1	stim135_inanimate_fruits_pineapple_3.png	135	inanimate	fruits	pineapple	3	0	2	stars	2	incorrect	0.628163521156239
72448	1	stim089_animate_mammal_kangaroo_1.png	89	animate	mammal	kangaroo	1	0	2	stars	2	incorrect	0.628163521156239
72498	1	stim106_inanimate_clothing_hat_2.png	106	inanimate	clothing	hat	2	0	2	stars	2	incorrect	0.628163521156239
72548	1	stim098_animate_mammal_rhino_2.png	98	animate	mammal	rhino	2	0	2	stars	2	incorrect	0.628163521156239
72598	1	stim094_animate_mammal_monkey_2.png	94	animate	mammal	monkey	2	0	2	stars	2	incorrect	0.628163521156239
72648	1	stim138_inanimate_fruits_strawberry_2.png	138	inanimate	fruits	strawberry	2	0	2	stars	2	incorrect	0.628163521156239
72698	1	stim142_inanimate_furniture_bed_2.png	142	inanimate	furniture	bed	2	0	2	stars	2	incorrect	0.628163521156239
72748	1	stim191_inanimate_tools_pan_3.png	191	inanimate	tools	pan	3	0	2	stars	2	incorrect	0.628163521156239
77965	1	stim121_inanimate_fruits_apple_1.png	121	inanimate	fruits	apple	1	0	3	stars	4	correct	0.420426515662257
78015	1	stim152_inanimate_furniture_closet_4.png	152	inanimate	furniture	closet	4	0	3	stars	4	correct	0.420426515662257
78065	1	stim074_animate_insect_dragonfly_2.png	74	animate	insect	dragonfly	2	0	3	stars	4	correct	0.420426515662257
78115	1	stim039_animate_bird_penguin_3.png	39	animate	bird	penguin	3	0	3	stars	4	correct	0.420426515662257
78165	1	stim093_animate_mammal_monkey_1.png	93	animate	mammal	monkey	1	0	3	stars	4	correct	0.420426515662257
78215	1	stim150_inanimate_furniture_closet_2.png	150	inanimate	furniture	closet	2	0	3	stars	4	correct	0.420426515662257
78265	1	stim160_inanimate_furniture_table_4.png	160	inanimate	furniture	table	4	0	3	stars	4	correct	0.420426515662257
78315	1	stim140_inanimate_fruits_strawberry_4.png	140	inanimate	fruits	strawberry	4	0	3	stars	4	correct	0.420426515662257
78365	1	stim172_inanimate_plants_sunflower_4.png	172	inanimate	plants	sunflower	4	0	3	stars	4	correct	0.420426515662257
78415	1	stim076_animate_insect_dragonfly_4.png	76	animate	insect	dragonfly	4	0	3	stars	4	correct	0.420426515662257
78465	1	stim080_animate_insect_grasshopper_4.png	80	animate	insect	grasshopper	4	0	3	stars	4	correct	0.420426515662257
78515	1	stim200_inanimate_tools_wrench_4.png	200	inanimate	tools	wrench	4	0	3	stars	4	correct	0.420426515662257
78565	1	stim195_inanimate_tools_scissors_3.png	195	inanimate	tools	scissors	3	0	3	stars	4	correct	0.420426515662257
78615	1	stim091_animate_mammal_kangaroo_3.png	91	animate	mammal	kangaroo	3	0	3	stars	4	correct	0.420426515662257
78665	1	stim173_inanimate_plants_tree_1.png	173	inanimate	plants	tree	1	0	3	stars	4	correct	0.420426515662257
78715	1	stim004_animate_aquatic_crab_4.png	4	animate	aquatic	crab	4	0	3	stars	4	correct	0.420426515662257
78765	1	stim021_animate_bird_chicken_1.png	21	animate	bird	chicken	1	0	3	stars	4	correct	0.420426515662257
78815	1	stim042_animate_human_baby_2.png	42	animate	human	baby	2	0	3	stars	4	correct	0.420426515662257
78865	1	stim061_animate_insect_ant_1.png	61	animate	insect	ant	1	0	3	stars	4	correct	0.420426515662257
78915	1	stim147_inanimate_furniture_chair_3.png	147	inanimate	furniture	chair	3	0	3	stars	4	correct	0.420426515662257
78965	1	stim169_inanimate_plants_sunflower_1.png	169	inanimate	plants	sunflower	1	0	3	stars	4	correct	0.420426515662257
79015	1	stim177_inanimate_plants_tulip_1.png	177	inanimate	plants	tulip	1	0	3	stars	4	correct	0.420426515662257
79065	1	stim015_animate_aquatic_shark_3.png	15	animate	aquatic	shark	3	0	3	stars	4	correct	0.420426515662257
79115	1	stim097_animate_mammal_rhino_1.png	97	animate	mammal	rhino	1	0	3	stars	4	correct	0.420426515662257
79165	1	stim075_animate_insect_dragonfly_3.png	75	animate	insect	dragonfly	3	0	3	stars	4	correct	0.420426515662257
79215	1	stim193_inanimate_tools_scissors_1.png	193	inanimate	tools	scissors	1	0	3	stars	4	correct	0.420426515662257
79265	1	stim079_animate_insect_grasshopper_3.png	79	animate	insect	grasshopper	3	0	3	stars	4	correct	0.420426515662257
79315	1	stim174_inanimate_plants_tree_2.png	174	inanimate	plants	tree	2	0	3	stars	4	correct	0.420426515662257
79365	1	stim115_inanimate_clothing_shirt_3.png	115	inanimate	clothing	shirt	3	0	3	stars	4	correct	0.420426515662257
79415	1	stim151_inanimate_furniture_closet_3.png	151	inanimate	furniture	closet	3	0	3	stars	4	correct	0.420426515662257
79465	1	stim085_animate_mammal_giraffe_1.png	85	animate	mammal	giraffe	1	0	3	stars	4	correct	0.420426515662257
79515	1	stim144_inanimate_furniture_bed_4.png	144	inanimate	furniture	bed	4	0	3	stars	4	correct	0.420426515662257
79565	1	stim197_inanimate_tools_wrench_1.png	197	inanimate	tools	wrench	1	0	3	stars	4	correct	0.420426515662257
79615	1	stim001_animate_aquatic_crab_1.png	1	animate	aquatic	crab	1	0	3	stars	4	correct	0.420426515662257
79665	1	stim188_inanimate_tools_hammer_4.png	188	inanimate	tools	hammer	4	0	3	stars	4	correct	0.420426515662257
79715	1	stim129_inanimate_fruits_grape_1.png	129	inanimate	fruits	grape	1	0	3	stars	4	correct	0.420426515662257
79765	1	stim013_animate_aquatic_shark_1.png	13	animate	aquatic	shark	1	0	3	stars	4	correct	0.420426515662257
79815	1	stim199_inanimate_tools_wrench_3.png	199	inanimate	tools	wrench	3	0	3	stars	4	correct	0.420426515662257
79865	1	stim048_animate_human_child_4.png	48	animate	human	child	4	0	3	stars	4	correct	0.420426515662257
79915	1	stim133_inanimate_fruits_pineapple_1.png	133	inanimate	fruits	pineapple	1	0	3	stars	4	correct	0.420426515662257
79965	1	stim192_inanimate_tools_pan_4.png	192	inanimate	tools	pan	4	0	3	stars	4	correct	0.420426515662257
80015	1	stim175_inanimate_plants_tree_3.png	175	inanimate	plants	tree	3	0	3	stars	4	correct	0.420426515662257
80065	1	stim128_inanimate_fruits_banana_4.png	128	inanimate	fruits	banana	4	0	3	stars	4	correct	0.420426515662257
80115	1	stim139_inanimate_fruits_strawberry_3.png	139	inanimate	fruits	strawberry	3	0	3	stars	4	correct	0.420426515662257
80165	1	stim083_animate_mammal_cow_3.png	83	animate	mammal	cow	3	0	3	stars	4	correct	0.420426515662257
80215	1	stim107_inanimate_clothing_hat_3.png	107	inanimate	clothing	hat	3	0	3	stars	4	correct	0.420426515662257
80265	1	stim176_inanimate_plants_tree_4.png	176	inanimate	plants	tree	4	0	3	stars	4	correct	0.420426515662257
80315	1	stim186_inanimate_tools_hammer_2.png	186	inanimate	tools	hammer	2	0	3	stars	4	correct	0.420426515662257
80365	1	stim025_animate_bird_duck_1.png	25	animate	bird	duck	1	0	3	stars	4	correct	0.420426515662257
80415	1	stim041_animate_human_baby_1.png	41	animate	human	baby	1	0	3	stars	4	correct	0.420426515662257
80465	1	stim065_animate_insect_bug_1.png	65	animate	insect	bug	1	0	3	stars	4	correct	0.420426515662257
80515	1	stim216_targets_shapes_star_4.png	216	targets	shapes	star	4	1	3	stars	4	correct	0.420426515662257
80565	1	stim092_animate_mammal_kangaroo_4.png	92	animate	mammal	kangaroo	4	0	3	stars	4	correct	0.420426515662257
80615	1	stim036_animate_bird_peacock_4.png	36	animate	bird	peacock	4	0	3	stars	4	correct	0.420426515662257
80665	1	stim014_animate_aquatic_shark_2.png	14	animate	aquatic	shark	2	0	3	stars	4	correct	0.420426515662257
80715	1	stim009_animate_aquatic_seahorse_1.png	9	animate	aquatic	seahorse	1	0	3	stars	4	correct	0.420426515662257
80765	1	stim162_inanimate_plants_bush_2.png	162	inanimate	plants	bush	2	0	3	stars	4	correct	0.420426515662257
80815	1	stim196_inanimate_tools_scissors_4.png	196	inanimate	tools	scissors	4	0	3	stars	4	correct	0.420426515662257
80865	1	stim056_animate_human_faces_4.png	56	animate	human	faces	4	0	3	stars	4	correct	0.420426515662257
80915	1	stim137_inanimate_fruits_strawberry_1.png	137	inanimate	fruits	strawberry	1	0	3	stars	4	correct	0.420426515662257
80965	1	stim028_animate_bird_duck_4.png	28	animate	bird	duck	4	0	3	stars	4	correct	0.420426515662257
81015	1	stim158_inanimate_furniture_table_2.png	158	inanimate	furniture	table	2	0	3	stars	4	correct	0.420426515662257
81065	1	stim018_animate_aquatic_shrimp_2.png	18	animate	aquatic	shrimp	2	0	3	stars	4	correct	0.420426515662257
81115	1	stim006_animate_aquatic_fish_2.png	6	animate	aquatic	fish	2	0	3	stars	4	correct	0.420426515662257
81165	1	stim019_animate_aquatic_shrimp_3.png	19	animate	aquatic	shrimp	3	0	3	stars	4	correct	0.420426515662257
81215	1	stim051_animate_human_clown_3.png	51	animate	human	clown	3	0	3	stars	4	correct	0.420426515662257
81265	1	stim088_animate_mammal_giraffe_4.png	88	animate	mammal	giraffe	4	0	3	stars	4	correct	0.420426515662257
81315	1	stim026_animate_bird_duck_2.png	26	animate	bird	duck	2	0	3	stars	4	correct	0.420426515662257
81365	1	stim071_animate_insect_butterfly_3.png	71	animate	insect	butterfly	3	0	3	stars	4	correct	0.420426515662257
81415	1	stim053_animate_human_faces_1.png	53	animate	human	faces	1	0	3	stars	4	correct	0.420426515662257
81465	1	stim159_inanimate_furniture_table_3.png	159	inanimate	furniture	table	3	0	3	stars	4	correct	0.420426515662257
81515	1	stim106_inanimate_clothing_hat_2.png	106	inanimate	clothing	hat	2	0	3	stars	4	correct	0.420426515662257
81565	1	stim183_inanimate_tools_broom_3.png	183	inanimate	tools	broom	3	0	3	stars	4	correct	0.420426515662257
81615	1	stim104_inanimate_clothing_gloves_4.png	104	inanimate	clothing	gloves	4	0	3	stars	4	correct	0.420426515662257
81665	1	stim096_animate_mammal_monkey_4.png	96	animate	mammal	monkey	4	0	3	stars	4	correct	0.420426515662257
81715	1	stim064_animate_insect_ant_4.png	64	animate	insect	ant	4	0	3	stars	4	correct	0.420426515662257
81765	1	stim145_inanimate_furniture_chair_1.png	145	inanimate	furniture	chair	1	0	3	stars	4	correct	0.420426515662257
81815	1	stim078_animate_insect_grasshopper_2.png	78	animate	insect	grasshopper	2	0	3	stars	4	correct	0.420426515662257
81865	1	stim214_targets_shapes_star_2.png	214	targets	shapes	star	2	1	3	stars	4	correct	0.420426515662257
81915	1	stim045_animate_human_child_1.png	45	animate	human	child	1	0	3	stars	4	correct	0.420426515662257
81965	1	stim016_animate_aquatic_shark_4.png	16	animate	aquatic	shark	4	0	3	stars	4	correct	0.420426515662257
82015	1	stim126_inanimate_fruits_banana_2.png	126	inanimate	fruits	banana	2	0	3	stars	4	correct	0.420426515662257
82065	1	stim119_inanimate_clothing_socks_3.png	119	inanimate	clothing	socks	3	0	3	stars	4	correct	0.420426515662257
82115	1	stim157_inanimate_furniture_table_1.png	157	inanimate	furniture	table	1	0	3	stars	4	correct	0.420426515662257
82165	1	stim054_animate_human_faces_2.png	54	animate	human	faces	2	0	3	stars	4	correct	0.420426515662257
82215	1	stim043_animate_human_baby_3.png	43	animate	human	baby	3	0	3	stars	4	correct	0.420426515662257
82265	1	stim059_animate_human_sports_3.png	59	animate	human	sports	3	0	3	stars	4	correct	0.420426515662257
82315	1	stim181_inanimate_tools_broom_1.png	181	inanimate	tools	broom	1	0	3	stars	4	correct	0.420426515662257
82365	1	stim060_animate_human_sports_4.png	60	animate	human	sports	4	0	3	stars	4	correct	0.420426515662257
82415	1	stim185_inanimate_tools_hammer_1.png	185	inanimate	tools	hammer	1	0	3	stars	4	correct	0.420426515662257
82465	1	stim116_inanimate_clothing_shirt_4.png	116	inanimate	clothing	shirt	4	0	3	stars	4	correct	0.420426515662257
82515	1	stim029_animate_bird_parrot_1.png	29	animate	bird	parrot	1	0	3	stars	4	correct	0.420426515662257
82565	1	stim046_animate_human_child_2.png	46	animate	human	child	2	0	3	stars	4	correct	0.420426515662257
82615	1	stim138_inanimate_fruits_strawberry_2.png	138	inanimate	fruits	strawberry	2	0	3	stars	4	correct	0.420426515662257
82665	1	stim047_animate_human_child_3.png	47	animate	human	child	3	0	3	stars	4	correct	0.420426515662257
82715	1	stim155_inanimate_furniture_sofa_3.png	155	inanimate	furniture	sofa	3	0	3	stars	4	correct	0.420426515662257
82765	1	stim052_animate_human_clown_4.png	52	animate	human	clown	4	0	3	stars	4	correct	0.420426515662257
82815	1	stim012_animate_aquatic_seahorse_4.png	12	animate	aquatic	seahorse	4	0	3	stars	4	correct	0.420426515662257
82865	1	stim117_inanimate_clothing_socks_1.png	117	inanimate	clothing	socks	1	0	3	stars	4	correct	0.420426515662257
82915	1	stim171_inanimate_plants_sunflower_3.png	171	inanimate	plants	sunflower	3	0	3	stars	4	correct	0.420426515662257
82965	1	stim153_inanimate_furniture_sofa_1.png	153	inanimate	furniture	sofa	1	0	3	stars	4	correct	0.420426515662257
83015	1	stim194_inanimate_tools_scissors_2.png	194	inanimate	tools	scissors	2	0	3	stars	4	correct	0.420426515662257
83065	1	stim090_animate_mammal_kangaroo_2.png	90	animate	mammal	kangaroo	2	0	3	stars	4	correct	0.420426515662257
83115	1	stim184_inanimate_tools_broom_4.png	184	inanimate	tools	broom	4	0	3	stars	4	correct	0.420426515662257
83165	1	stim089_animate_mammal_kangaroo_1.png	89	animate	mammal	kangaroo	1	0	3	stars	4	correct	0.420426515662257
83215	1	stim049_animate_human_clown_1.png	49	animate	human	clown	1	0	3	stars	4	correct	0.420426515662257
83265	1	stim094_animate_mammal_monkey_2.png	94	animate	mammal	monkey	2	0	3	stars	4	correct	0.420426515662257
83315	1	stim125_inanimate_fruits_banana_1.png	125	inanimate	fruits	banana	1	0	3	stars	4	correct	0.420426515662257
83365	1	stim118_inanimate_clothing_socks_2.png	118	inanimate	clothing	socks	2	0	3	stars	4	correct	0.420426515662257
83415	1	stim110_inanimate_clothing_jeans_2.png	110	inanimate	clothing	jeans	2	0	3	stars	4	correct	0.420426515662257
83465	1	stim011_animate_aquatic_seahorse_3.png	11	animate	aquatic	seahorse	3	0	3	stars	4	correct	0.420426515662257
83515	1	stim114_inanimate_clothing_shirt_2.png	114	inanimate	clothing	shirt	2	0	3	stars	4	correct	0.420426515662257
83565	1	stim165_inanimate_plants_cactus_1.png	165	inanimate	plants	cactus	1	0	3	stars	4	correct	0.420426515662257
83615	1	stim168_inanimate_plants_cactus_4.png	168	inanimate	plants	cactus	4	0	3	stars	4	correct	0.420426515662257
83665	1	stim020_animate_aquatic_shrimp_4.png	20	animate	aquatic	shrimp	4	0	3	stars	4	correct	0.420426515662257
83715	1	stim187_inanimate_tools_hammer_3.png	187	inanimate	tools	hammer	3	0	3	stars	4	correct	0.420426515662257
83765	1	stim086_animate_mammal_giraffe_2.png	86	animate	mammal	giraffe	2	0	3	stars	4	correct	0.420426515662257
83815	1	stim100_animate_mammal_rhino_4.png	100	animate	mammal	rhino	4	0	3	stars	4	correct	0.420426515662257
83865	1	stim102_inanimate_clothing_gloves_2.png	102	inanimate	clothing	gloves	2	0	3	stars	4	correct	0.420426515662257
83915	1	stim003_animate_aquatic_crab_3.png	3	animate	aquatic	crab	3	0	3	stars	4	correct	0.420426515662257
83965	1	stim035_animate_bird_peacock_3.png	35	animate	bird	peacock	3	0	3	stars	4	correct	0.420426515662257
84015	1	stim082_animate_mammal_cow_2.png	82	animate	mammal	cow	2	0	3	stars	4	correct	0.420426515662257
84065	1	stim213_targets_shapes_star_1.png	213	targets	shapes	star	1	1	3	stars	4	correct	0.420426515662257
84115	1	stim113_inanimate_clothing_shirt_1.png	113	inanimate	clothing	shirt	1	0	3	stars	4	correct	0.420426515662257
84165	1	stim057_animate_human_sports_1.png	57	animate	human	sports	1	0	3	stars	4	correct	0.420426515662257
84215	1	stim067_animate_insect_bug_3.png	67	animate	insect	bug	3	0	3	stars	4	correct	0.420426515662257
84265	1	stim163_inanimate_plants_bush_3.png	163	inanimate	plants	bush	3	0	3	stars	4	correct	0.420426515662257
84315	1	stim099_animate_mammal_rhino_3.png	99	animate	mammal	rhino	3	0	3	stars	4	correct	0.420426515662257
84365	1	stim112_inanimate_clothing_jeans_4.png	112	inanimate	clothing	jeans	4	0	3	stars	4	correct	0.420426515662257
84415	1	stim124_inanimate_fruits_apple_4.png	124	inanimate	fruits	apple	4	0	3	stars	4	correct	0.420426515662257
84465	1	stim182_inanimate_tools_broom_2.png	182	inanimate	tools	broom	2	0	3	stars	4	correct	0.420426515662257
84515	1	stim084_animate_mammal_cow_4.png	84	animate	mammal	cow	4	0	3	stars	4	correct	0.420426515662257
84565	1	stim072_animate_insect_butterfly_4.png	72	animate	insect	butterfly	4	0	3	stars	4	correct	0.420426515662257
84615	1	stim103_inanimate_clothing_gloves_3.png	103	inanimate	clothing	gloves	3	0	3	stars	4	correct	0.420426515662257
84665	1	stim087_animate_mammal_giraffe_3.png	87	animate	mammal	giraffe	3	0	3	stars	4	correct	0.420426515662257
84715	1	stim008_animate_aquatic_fish_4.png	8	animate	aquatic	fish	4	0	3	stars	4	correct	0.420426515662257
84765	1	stim022_animate_bird_chicken_2.png	22	animate	bird	chicken	2	0	3	stars	4	correct	0.420426515662257
84815	1	stim127_inanimate_fruits_banana_3.png	127	inanimate	fruits	banana	3	0	3	stars	4	correct	0.420426515662257
84865	1	stim063_animate_insect_ant_3.png	63	animate	insect	ant	3	0	3	stars	4	correct	0.420426515662257
84915	1	stim178_inanimate_plants_tulip_2.png	178	inanimate	plants	tulip	2	0	3	stars	4	correct	0.420426515662257
84965	1	stim156_inanimate_furniture_sofa_4.png	156	inanimate	furniture	sofa	4	0	3	stars	4	correct	0.420426515662257
85015	1	stim170_inanimate_plants_sunflower_2.png	170	inanimate	plants	sunflower	2	0	3	stars	4	correct	0.420426515662257
85065	1	stim098_animate_mammal_rhino_2.png	98	animate	mammal	rhino	2	0	3	stars	4	correct	0.420426515662257
85115	1	stim007_animate_aquatic_fish_3.png	7	animate	aquatic	fish	3	0	3	stars	4	correct	0.420426515662257
85165	1	stim066_animate_insect_bug_2.png	66	animate	insect	bug	2	0	3	stars	4	correct	0.420426515662257
85215	1	stim191_inanimate_tools_pan_3.png	191	inanimate	tools	pan	3	0	3	stars	4	correct	0.420426515662257
85265	1	stim111_inanimate_clothing_jeans_3.png	111	inanimate	clothing	jeans	3	0	3	stars	4	correct	0.420426515662257
85315	1	stim069_animate_insect_butterfly_1.png	69	animate	insect	butterfly	1	0	3	stars	4	correct	0.420426515662257
85365	1	stim190_inanimate_tools_pan_2.png	190	inanimate	tools	pan	2	0	3	stars	4	correct	0.420426515662257
85415	1	stim189_inanimate_tools_pan_1.png	189	inanimate	tools	pan	1	0	3	stars	4	correct	0.420426515662257
85465	1	stim002_animate_aquatic_crab_2.png	2	animate	aquatic	crab	2	0	3	stars	4	correct	0.420426515662257
85515	1	stim108_inanimate_clothing_hat_4.png	108	inanimate	clothing	hat	4	0	3	stars	4	correct	0.420426515662257
85565	1	stim209_targets_shapes_star_1.png	209	targets	shapes	star	1	1	3	stars	4	correct	0.420426515662257
85615	1	stim095_animate_mammal_monkey_3.png	95	animate	mammal	monkey	3	0	3	stars	4	correct	0.420426515662257
85665	1	stim143_inanimate_furniture_bed_3.png	143	inanimate	furniture	bed	3	0	3	stars	4	correct	0.420426515662257
85715	1	stim122_inanimate_fruits_apple_2.png	122	inanimate	fruits	apple	2	0	3	stars	4	correct	0.420426515662257
85765	1	stim166_inanimate_plants_cactus_2.png	166	inanimate	plants	cactus	2	0	3	stars	4	correct	0.420426515662257
85815	1	stim198_inanimate_tools_wrench_2.png	198	inanimate	tools	wrench	2	0	3	stars	4	correct	0.420426515662257
85865	1	stim027_animate_bird_duck_3.png	27	animate	bird	duck	3	0	3	stars	4	correct	0.420426515662257
85915	1	stim109_inanimate_clothing_jeans_1.png	109	inanimate	clothing	jeans	1	0	3	stars	4	correct	0.420426515662257
85965	1	stim149_inanimate_furniture_closet_1.png	149	inanimate	furniture	closet	1	0	3	stars	4	correct	0.420426515662257
86015	1	stim167_inanimate_plants_cactus_3.png	167	inanimate	plants	cactus	3	0	3	stars	4	correct	0.420426515662257
86065	1	stim058_animate_human_sports_2.png	58	animate	human	sports	2	0	3	stars	4	correct	0.420426515662257
86115	1	stim032_animate_bird_parrot_4.png	32	animate	bird	parrot	4	0	3	stars	4	correct	0.420426515662257
86165	1	stim142_inanimate_furniture_bed_2.png	142	inanimate	furniture	bed	2	0	3	stars	4	correct	0.420426515662257
86215	1	stim081_animate_mammal_cow_1.png	81	animate	mammal	cow	1	0	3	stars	4	correct	0.420426515662257
86265	1	stim040_animate_bird_penguin_4.png	40	animate	bird	penguin	4	0	3	stars	4	correct	0.420426515662257
86315	1	stim130_inanimate_fruits_grape_2.png	130	inanimate	fruits	grape	2	0	3	stars	4	correct	0.420426515662257
86365	1	stim135_inanimate_fruits_pineapple_3.png	135	inanimate	fruits	pineapple	3	0	3	stars	4	correct	0.420426515662257
86415	1	stim033_animate_bird_peacock_1.png	33	animate	bird	peacock	1	0	3	stars	4	correct	0.420426515662257
86465	1	stim050_animate_human_clown_2.png	50	animate	human	clown	2	0	3	stars	4	correct	0.420426515662257
86515	1	stim161_inanimate_plants_bush_1.png	161	inanimate	plants	bush	1	0	3	stars	4	correct	0.420426515662257
86565	1	stim154_inanimate_furniture_sofa_2.png	154	inanimate	furniture	sofa	2	0	3	stars	4	correct	0.420426515662257
86615	1	stim123_inanimate_fruits_apple_3.png	123	inanimate	fruits	apple	3	0	3	stars	4	correct	0.420426515662257
86665	1	stim179_inanimate_plants_tulip_3.png	179	inanimate	plants	tulip	3	0	3	stars	4	correct	0.420426515662257
86715	1	stim180_inanimate_plants_tulip_4.png	180	inanimate	plants	tulip	4	0	3	stars	4	correct	0.420426515662257
86765	1	stim148_inanimate_furniture_chair_4.png	148	inanimate	furniture	chair	4	0	3	stars	4	correct	0.420426515662257
86815	1	stim164_inanimate_plants_bush_4.png	164	inanimate	plants	bush	4	0	3	stars	4	correct	0.420426515662257
86865	1	stim062_animate_insect_ant_2.png	62	animate	insect	ant	2	0	3	stars	4	correct	0.420426515662257
86915	1	stim134_inanimate_fruits_pineapple_2.png	134	inanimate	fruits	pineapple	2	0	3	stars	4	correct	0.420426515662257
86965	1	stim024_animate_bird_chicken_4.png	24	animate	bird	chicken	4	0	3	stars	4	correct	0.420426515662257
87015	1	stim068_animate_insect_bug_4.png	68	animate	insect	bug	4	0	3	stars	4	correct	0.420426515662257
87065	1	stim010_animate_aquatic_seahorse_2.png	10	animate	aquatic	seahorse	2	0	3	stars	4	correct	0.420426515662257
87115	1	stim105_inanimate_clothing_hat_1.png	105	inanimate	clothing	hat	1	0	3	stars	4	correct	0.420426515662257
87165	1	stim136_inanimate_fruits_pineapple_4.png	136	inanimate	fruits	pineapple	4	0	3	stars	4	correct	0.420426515662257
87215	1	stim038_animate_bird_penguin_2.png	38	animate	bird	penguin	2	0	3	stars	4	correct	0.420426515662257
87265	1	stim044_animate_human_baby_4.png	44	animate	human	baby	4	0	3	stars	4	correct	0.420426515662257
87315	1	stim141_inanimate_furniture_bed_1.png	141	inanimate	furniture	bed	1	0	3	stars	4	correct	0.420426515662257
87365	1	stim037_animate_bird_penguin_1.png	37	animate	bird	penguin	1	0	3	stars	4	correct	0.420426515662257
87415	1	stim146_inanimate_furniture_chair_2.png	146	inanimate	furniture	chair	2	0	3	stars	4	correct	0.420426515662257
87465	1	stim131_inanimate_fruits_grape_3.png	131	inanimate	fruits	grape	3	0	3	stars	4	correct	0.420426515662257
87515	1	stim055_animate_human_faces_3.png	55	animate	human	faces	3	0	3	stars	4	correct	0.420426515662257
87565	1	stim031_animate_bird_parrot_3.png	31	animate	bird	parrot	3	0	3	stars	4	correct	0.420426515662257
87615	1	stim017_animate_aquatic_shrimp_1.png	17	animate	aquatic	shrimp	1	0	3	stars	4	correct	0.420426515662257
87665	1	stim101_inanimate_clothing_gloves_1.png	101	inanimate	clothing	gloves	1	0	3	stars	4	correct	0.420426515662257
87715	1	stim070_animate_insect_butterfly_2.png	70	animate	insect	butterfly	2	0	3	stars	4	correct	0.420426515662257
87765	1	stim132_inanimate_fruits_grape_4.png	132	inanimate	fruits	grape	4	0	3	stars	4	correct	0.420426515662257
87815	1	stim005_animate_aquatic_fish_1.png	5	animate	aquatic	fish	1	0	3	stars	4	correct	0.420426515662257
87865	1	stim030_animate_bird_parrot_2.png	30	animate	bird	parrot	2	0	3	stars	4	correct	0.420426515662257
87915	1	stim023_animate_bird_chicken_3.png	23	animate	bird	chicken	3	0	3	stars	4	correct	0.420426515662257
87965	1	stim073_animate_insect_dragonfly_1.png	73	animate	insect	dragonfly	1	0	3	stars	4	correct	0.420426515662257
88015	1	stim120_inanimate_clothing_socks_4.png	120	inanimate	clothing	socks	4	0	3	stars	4	correct	0.420426515662257
88065	1	stim034_animate_bird_peacock_2.png	34	animate	bird	peacock	2	0	3	stars	4	correct	0.420426515662257
88115	1	stim077_animate_insect_grasshopper_1.png	77	animate	insect	grasshopper	1	0	3	stars	4	correct	0.420426515662257
92115	1	stim165_inanimate_plants_cactus_1.png	165	inanimate	plants	cactus	1	0	4	boats	1	correct	0.432538977234799
92165	1	stim076_animate_insect_dragonfly_4.png	76	animate	insect	dragonfly	4	0	4	boats	1	correct	0.432538977234799
92215	1	stim023_animate_bird_chicken_3.png	23	animate	bird	chicken	3	0	4	boats	1	correct	0.432538977234799
92265	1	stim170_inanimate_plants_sunflower_2.png	170	inanimate	plants	sunflower	2	0	4	boats	1	correct	0.432538977234799
92315	1	stim083_animate_mammal_cow_3.png	83	animate	mammal	cow	3	0	4	boats	1	correct	0.432538977234799
92365	1	stim002_animate_aquatic_crab_2.png	2	animate	aquatic	crab	2	0	4	boats	1	correct	0.432538977234799
92415	1	stim081_animate_mammal_cow_1.png	81	animate	mammal	cow	1	0	4	boats	1	correct	0.432538977234799
92465	1	stim160_inanimate_furniture_table_4.png	160	inanimate	furniture	table	4	0	4	boats	1	correct	0.432538977234799
92515	1	stim030_animate_bird_parrot_2.png	30	animate	bird	parrot	2	0	4	boats	1	correct	0.432538977234799
92565	1	stim119_inanimate_clothing_socks_3.png	119	inanimate	clothing	socks	3	0	4	boats	1	correct	0.432538977234799
92615	1	stim148_inanimate_furniture_chair_4.png	148	inanimate	furniture	chair	4	0	4	boats	1	correct	0.432538977234799
92665	1	stim018_animate_aquatic_shrimp_2.png	18	animate	aquatic	shrimp	2	0	4	boats	1	correct	0.432538977234799
92715	1	stim173_inanimate_plants_tree_1.png	173	inanimate	plants	tree	1	0	4	boats	1	correct	0.432538977234799
92765	1	stim198_inanimate_tools_wrench_2.png	198	inanimate	tools	wrench	2	0	4	boats	1	correct	0.432538977234799
92815	1	stim088_animate_mammal_giraffe_4.png	88	animate	mammal	giraffe	4	0	4	boats	1	correct	0.432538977234799
92865	1	stim177_inanimate_plants_tulip_1.png	177	inanimate	plants	tulip	1	0	4	boats	1	correct	0.432538977234799
92915	1	stim107_inanimate_clothing_hat_3.png	107	inanimate	clothing	hat	3	0	4	boats	1	correct	0.432538977234799
92965	1	stim009_animate_aquatic_seahorse_1.png	9	animate	aquatic	seahorse	1	0	4	boats	1	correct	0.432538977234799
93015	1	stim038_animate_bird_penguin_2.png	38	animate	bird	penguin	2	0	4	boats	1	correct	0.432538977234799
93065	1	stim114_inanimate_clothing_shirt_2.png	114	inanimate	clothing	shirt	2	0	4	boats	1	correct	0.432538977234799
93115	1	stim075_animate_insect_dragonfly_3.png	75	animate	insect	dragonfly	3	0	4	boats	1	correct	0.432538977234799
93165	1	stim115_inanimate_clothing_shirt_3.png	115	inanimate	clothing	shirt	3	0	4	boats	1	correct	0.432538977234799
93215	1	stim104_inanimate_clothing_gloves_4.png	104	inanimate	clothing	gloves	4	0	4	boats	1	correct	0.432538977234799
93265	1	stim123_inanimate_fruits_apple_3.png	123	inanimate	fruits	apple	3	0	4	boats	1	correct	0.432538977234799
93315	1	stim089_animate_mammal_kangaroo_1.png	89	animate	mammal	kangaroo	1	0	4	boats	1	correct	0.432538977234799
93365	1	stim154_inanimate_furniture_sofa_2.png	154	inanimate	furniture	sofa	2	0	4	boats	1	correct	0.432538977234799
93415	1	stim140_inanimate_fruits_strawberry_4.png	140	inanimate	fruits	strawberry	4	0	4	boats	1	correct	0.432538977234799
93465	1	stim098_animate_mammal_rhino_2.png	98	animate	mammal	rhino	2	0	4	boats	1	correct	0.432538977234799
93515	1	stim146_inanimate_furniture_chair_2.png	146	inanimate	furniture	chair	2	0	4	boats	1	correct	0.432538977234799
93565	1	stim050_animate_human_clown_2.png	50	animate	human	clown	2	0	4	boats	1	correct	0.432538977234799
93615	1	stim200_inanimate_tools_wrench_4.png	200	inanimate	tools	wrench	4	0	4	boats	1	correct	0.432538977234799
93665	1	stim046_animate_human_child_2.png	46	animate	human	child	2	0	4	boats	1	correct	0.432538977234799
93715	1	stim185_inanimate_tools_hammer_1.png	185	inanimate	tools	hammer	1	0	4	boats	1	correct	0.432538977234799
93765	1	stim020_animate_aquatic_shrimp_4.png	20	animate	aquatic	shrimp	4	0	4	boats	1	correct	0.432538977234799
93815	1	stim171_inanimate_plants_sunflower_3.png	171	inanimate	plants	sunflower	3	0	4	boats	1	correct	0.432538977234799
93865	1	stim103_inanimate_clothing_gloves_3.png	103	inanimate	clothing	gloves	3	0	4	boats	1	correct	0.432538977234799
93915	1	stim163_inanimate_plants_bush_3.png	163	inanimate	plants	bush	3	0	4	boats	1	correct	0.432538977234799
93965	1	stim095_animate_mammal_monkey_3.png	95	animate	mammal	monkey	3	0	4	boats	1	correct	0.432538977234799
94015	1	stim033_animate_bird_peacock_1.png	33	animate	bird	peacock	1	0	4	boats	1	correct	0.432538977234799
94065	1	stim080_animate_insect_grasshopper_4.png	80	animate	insect	grasshopper	4	0	4	boats	1	correct	0.432538977234799
94115	1	stim126_inanimate_fruits_banana_2.png	126	inanimate	fruits	banana	2	0	4	boats	1	correct	0.432538977234799
94166	1	stim044_animate_human_baby_4.png	44	animate	human	baby	4	0	4	boats	1	correct	0.432538977234799
94215	1	stim040_animate_bird_penguin_4.png	40	animate	bird	penguin	4	0	4	boats	1	correct	0.432538977234799
94265	1	stim048_animate_human_child_4.png	48	animate	human	child	4	0	4	boats	1	correct	0.432538977234799
94315	1	stim179_inanimate_plants_tulip_3.png	179	inanimate	plants	tulip	3	0	4	boats	1	correct	0.432538977234799
94365	1	stim077_animate_insect_grasshopper_1.png	77	animate	insect	grasshopper	1	0	4	boats	1	correct	0.432538977234799
94415	1	stim026_animate_bird_duck_2.png	26	animate	bird	duck	2	0	4	boats	1	correct	0.432538977234799
94465	1	stim128_inanimate_fruits_banana_4.png	128	inanimate	fruits	banana	4	0	4	boats	1	correct	0.432538977234799
94515	1	stim158_inanimate_furniture_table_2.png	158	inanimate	furniture	table	2	0	4	boats	1	correct	0.432538977234799
94565	1	stim161_inanimate_plants_bush_1.png	161	inanimate	plants	bush	1	0	4	boats	1	correct	0.432538977234799
94615	1	stim008_animate_aquatic_fish_4.png	8	animate	aquatic	fish	4	0	4	boats	1	correct	0.432538977234799
94665	1	stim192_inanimate_tools_pan_4.png	192	inanimate	tools	pan	4	0	4	boats	1	correct	0.432538977234799
94715	1	stim124_inanimate_fruits_apple_4.png	124	inanimate	fruits	apple	4	0	4	boats	1	correct	0.432538977234799
94766	1	stim057_animate_human_sports_1.png	57	animate	human	sports	1	0	4	boats	1	correct	0.432538977234799
94815	1	stim025_animate_bird_duck_1.png	25	animate	bird	duck	1	0	4	boats	1	correct	0.432538977234799
94865	1	stim181_inanimate_tools_broom_1.png	181	inanimate	tools	broom	1	0	4	boats	1	correct	0.432538977234799
94915	1	stim196_inanimate_tools_scissors_4.png	196	inanimate	tools	scissors	4	0	4	boats	1	correct	0.432538977234799
94965	1	stim162_inanimate_plants_bush_2.png	162	inanimate	plants	bush	2	0	4	boats	1	correct	0.432538977234799
95015	1	stim064_animate_insect_ant_4.png	64	animate	insect	ant	4	0	4	boats	1	correct	0.432538977234799
95065	1	stim194_inanimate_tools_scissors_2.png	194	inanimate	tools	scissors	2	0	4	boats	1	correct	0.432538977234799
95115	1	stim133_inanimate_fruits_pineapple_1.png	133	inanimate	fruits	pineapple	1	0	4	boats	1	correct	0.432538977234799
95165	1	stim058_animate_human_sports_2.png	58	animate	human	sports	2	0	4	boats	1	correct	0.432538977234799
95216	1	stim052_animate_human_clown_4.png	52	animate	human	clown	4	0	4	boats	1	correct	0.432538977234799
95265	1	stim014_animate_aquatic_shark_2.png	14	animate	aquatic	shark	2	0	4	boats	1	correct	0.432538977234799
95315	1	stim065_animate_insect_bug_1.png	65	animate	insect	bug	1	0	4	boats	1	correct	0.432538977234799
95366	1	stim010_animate_aquatic_seahorse_2.png	10	animate	aquatic	seahorse	2	0	4	boats	1	correct	0.432538977234799
95415	1	stim019_animate_aquatic_shrimp_3.png	19	animate	aquatic	shrimp	3	0	4	boats	1	correct	0.432538977234799
95465	1	stim086_animate_mammal_giraffe_2.png	86	animate	mammal	giraffe	2	0	4	boats	1	correct	0.432538977234799
95515	1	stim032_animate_bird_parrot_4.png	32	animate	bird	parrot	4	0	4	boats	1	correct	0.432538977234799
95565	1	stim011_animate_aquatic_seahorse_3.png	11	animate	aquatic	seahorse	3	0	4	boats	1	correct	0.432538977234799
95615	1	stim127_inanimate_fruits_banana_3.png	127	inanimate	fruits	banana	3	0	4	boats	1	correct	0.432538977234799
95665	1	stim178_inanimate_plants_tulip_2.png	178	inanimate	plants	tulip	2	0	4	boats	1	correct	0.432538977234799
95716	1	stim034_animate_bird_peacock_2.png	34	animate	bird	peacock	2	0	4	boats	1	correct	0.432538977234799
95765	1	stim142_inanimate_furniture_bed_2.png	142	inanimate	furniture	bed	2	0	4	boats	1	correct	0.432538977234799
95815	1	stim071_animate_insect_butterfly_3.png	71	animate	insect	butterfly	3	0	4	boats	1	correct	0.432538977234799
95865	1	stim063_animate_insect_ant_3.png	63	animate	insect	ant	3	0	4	boats	1	correct	0.432538977234799
95915	1	stim093_animate_mammal_monkey_1.png	93	animate	mammal	monkey	1	0	4	boats	1	correct	0.432538977234799
95965	1	stim169_inanimate_plants_sunflower_1.png	169	inanimate	plants	sunflower	1	0	4	boats	1	correct	0.432538977234799
96015	1	stim039_animate_bird_penguin_3.png	39	animate	bird	penguin	3	0	4	boats	1	correct	0.432538977234799
96066	1	stim168_inanimate_plants_cactus_4.png	168	inanimate	plants	cactus	4	0	4	boats	1	correct	0.432538977234799
96115	1	stim053_animate_human_faces_1.png	53	animate	human	faces	1	0	4	boats	1	correct	0.432538977234799
96166	1	stim147_inanimate_furniture_chair_3.png	147	inanimate	furniture	chair	3	0	4	boats	1	correct	0.432538977234799
96215	1	stim073_animate_insect_dragonfly_1.png	73	animate	insect	dragonfly	1	0	4	boats	1	correct	0.432538977234799
96266	1	stim035_animate_bird_peacock_3.png	35	animate	bird	peacock	3	0	4	boats	1	correct	0.432538977234799
96315	1	stim105_inanimate_clothing_hat_1.png	105	inanimate	clothing	hat	1	0	4	boats	1	correct	0.432538977234799
96366	1	stim138_inanimate_fruits_strawberry_2.png	138	inanimate	fruits	strawberry	2	0	4	boats	1	correct	0.432538977234799
96416	1	stim055_animate_human_faces_3.png	55	animate	human	faces	3	0	4	boats	1	correct	0.432538977234799
96466	1	stim094_animate_mammal_monkey_2.png	94	animate	mammal	monkey	2	0	4	boats	1	correct	0.432538977234799
96516	1	stim132_inanimate_fruits_grape_4.png	132	inanimate	fruits	grape	4	0	4	boats	1	correct	0.432538977234799
96566	1	stim042_animate_human_baby_2.png	42	animate	human	baby	2	0	4	boats	1	correct	0.432538977234799
96615	1	stim108_inanimate_clothing_hat_4.png	108	inanimate	clothing	hat	4	0	4	boats	1	correct	0.432538977234799
96666	1	stim060_animate_human_sports_4.png	60	animate	human	sports	4	0	4	boats	1	correct	0.432538977234799
96715	1	stim106_inanimate_clothing_hat_2.png	106	inanimate	clothing	hat	2	0	4	boats	1	correct	0.432538977234799
96766	1	stim182_inanimate_tools_broom_2.png	182	inanimate	tools	broom	2	0	4	boats	1	correct	0.432538977234799
96816	1	stim166_inanimate_plants_cactus_2.png	166	inanimate	plants	cactus	2	0	4	boats	1	correct	0.432538977234799
96866	1	stim100_animate_mammal_rhino_4.png	100	animate	mammal	rhino	4	0	4	boats	1	correct	0.432538977234799
96916	1	stim013_animate_aquatic_shark_1.png	13	animate	aquatic	shark	1	0	4	boats	1	correct	0.432538977234799
96966	1	stim122_inanimate_fruits_apple_2.png	122	inanimate	fruits	apple	2	0	4	boats	1	correct	0.432538977234799
97016	1	stim184_inanimate_tools_broom_4.png	184	inanimate	tools	broom	4	0	4	boats	1	correct	0.432538977234799
97065	1	stim180_inanimate_plants_tulip_4.png	180	inanimate	plants	tulip	4	0	4	boats	1	correct	0.432538977234799
97116	1	stim016_animate_aquatic_shark_4.png	16	animate	aquatic	shark	4	0	4	boats	1	correct	0.432538977234799
97165	1	stim208_targets_object_boats_4.png	208	targets	object	boats	4	1	4	boats	1	correct	0.432538977234799
97216	1	stim111_inanimate_clothing_jeans_3.png	111	inanimate	clothing	jeans	3	0	4	boats	1	correct	0.432538977234799
97266	1	stim037_animate_bird_penguin_1.png	37	animate	bird	penguin	1	0	4	boats	1	correct	0.432538977234799
97316	1	stim049_animate_human_clown_1.png	49	animate	human	clown	1	0	4	boats	1	correct	0.432538977234799
97366	1	stim137_inanimate_fruits_strawberry_1.png	137	inanimate	fruits	strawberry	1	0	4	boats	1	correct	0.432538977234799
97416	1	stim007_animate_aquatic_fish_3.png	7	animate	aquatic	fish	3	0	4	boats	1	correct	0.432538977234799
97466	1	stim029_animate_bird_parrot_1.png	29	animate	bird	parrot	1	0	4	boats	1	correct	0.432538977234799
97515	1	stim191_inanimate_tools_pan_3.png	191	inanimate	tools	pan	3	0	4	boats	1	correct	0.432538977234799
97566	1	stim117_inanimate_clothing_socks_1.png	117	inanimate	clothing	socks	1	0	4	boats	1	correct	0.432538977234799
97616	1	stim156_inanimate_furniture_sofa_4.png	156	inanimate	furniture	sofa	4	0	4	boats	1	correct	0.432538977234799
97666	1	stim153_inanimate_furniture_sofa_1.png	153	inanimate	furniture	sofa	1	0	4	boats	1	correct	0.432538977234799
97715	1	stim125_inanimate_fruits_banana_1.png	125	inanimate	fruits	banana	1	0	4	boats	1	correct	0.432538977234799
97765	1	stim195_inanimate_tools_scissors_3.png	195	inanimate	tools	scissors	3	0	4	boats	1	correct	0.432538977234799
97815	1	stim031_animate_bird_parrot_3.png	31	animate	bird	parrot	3	0	4	boats	1	correct	0.432538977234799
97866	1	stim090_animate_mammal_kangaroo_2.png	90	animate	mammal	kangaroo	2	0	4	boats	1	correct	0.432538977234799
97916	1	stim022_animate_bird_chicken_2.png	22	animate	bird	chicken	2	0	4	boats	1	correct	0.432538977234799
97965	1	stim043_animate_human_baby_3.png	43	animate	human	baby	3	0	4	boats	1	correct	0.432538977234799
98016	1	stim134_inanimate_fruits_pineapple_2.png	134	inanimate	fruits	pineapple	2	0	4	boats	1	correct	0.432538977234799
98066	1	stim004_animate_aquatic_crab_4.png	4	animate	aquatic	crab	4	0	4	boats	1	correct	0.432538977234799
98116	1	stim167_inanimate_plants_cactus_3.png	167	inanimate	plants	cactus	3	0	4	boats	1	correct	0.432538977234799
98166	1	stim141_inanimate_furniture_bed_1.png	141	inanimate	furniture	bed	1	0	4	boats	1	correct	0.432538977234799
98216	1	stim150_inanimate_furniture_closet_2.png	150	inanimate	furniture	closet	2	0	4	boats	1	correct	0.432538977234799
98265	1	stim006_animate_aquatic_fish_2.png	6	animate	aquatic	fish	2	0	4	boats	1	correct	0.432538977234799
98315	1	stim078_animate_insect_grasshopper_2.png	78	animate	insect	grasshopper	2	0	4	boats	1	correct	0.432538977234799
98366	1	stim041_animate_human_baby_1.png	41	animate	human	baby	1	0	4	boats	1	correct	0.432538977234799
98416	1	stim045_animate_human_child_1.png	45	animate	human	child	1	0	4	boats	1	correct	0.432538977234799
98466	1	stim145_inanimate_furniture_chair_1.png	145	inanimate	furniture	chair	1	0	4	boats	1	correct	0.432538977234799
98516	1	stim082_animate_mammal_cow_2.png	82	animate	mammal	cow	2	0	4	boats	1	correct	0.432538977234799
98566	1	stim091_animate_mammal_kangaroo_3.png	91	animate	mammal	kangaroo	3	0	4	boats	1	correct	0.432538977234799
98616	1	stim130_inanimate_fruits_grape_2.png	130	inanimate	fruits	grape	2	0	4	boats	1	correct	0.432538977234799
98666	1	stim143_inanimate_furniture_bed_3.png	143	inanimate	furniture	bed	3	0	4	boats	1	correct	0.432538977234799
98716	1	stim155_inanimate_furniture_sofa_3.png	155	inanimate	furniture	sofa	3	0	4	boats	1	correct	0.432538977234799
98766	1	stim175_inanimate_plants_tree_3.png	175	inanimate	plants	tree	3	0	4	boats	1	correct	0.432538977234799
98816	1	stim193_inanimate_tools_scissors_1.png	193	inanimate	tools	scissors	1	0	4	boats	1	correct	0.432538977234799
98866	1	stim188_inanimate_tools_hammer_4.png	188	inanimate	tools	hammer	4	0	4	boats	1	correct	0.432538977234799
98916	1	stim027_animate_bird_duck_3.png	27	animate	bird	duck	3	0	4	boats	1	correct	0.432538977234799
98966	1	stim151_inanimate_furniture_closet_3.png	151	inanimate	furniture	closet	3	0	4	boats	1	correct	0.432538977234799
99016	1	stim056_animate_human_faces_4.png	56	animate	human	faces	4	0	4	boats	1	correct	0.432538977234799
99066	1	stim183_inanimate_tools_broom_3.png	183	inanimate	tools	broom	3	0	4	boats	1	correct	0.432538977234799
99116	1	stim129_inanimate_fruits_grape_1.png	129	inanimate	fruits	grape	1	0	4	boats	1	correct	0.432538977234799
99166	1	stim118_inanimate_clothing_socks_2.png	118	inanimate	clothing	socks	2	0	4	boats	1	correct	0.432538977234799
99216	1	stim116_inanimate_clothing_shirt_4.png	116	inanimate	clothing	shirt	4	0	4	boats	1	correct	0.432538977234799
99266	1	stim097_animate_mammal_rhino_1.png	97	animate	mammal	rhino	1	0	4	boats	1	correct	0.432538977234799
99316	1	stim072_animate_insect_butterfly_4.png	72	animate	insect	butterfly	4	0	4	boats	1	correct	0.432538977234799
99366	1	stim135_inanimate_fruits_pineapple_3.png	135	inanimate	fruits	pineapple	3	0	4	boats	1	correct	0.432538977234799
99416	1	stim190_inanimate_tools_pan_2.png	190	inanimate	tools	pan	2	0	4	boats	1	correct	0.432538977234799
99466	1	stim074_animate_insect_dragonfly_2.png	74	animate	insect	dragonfly	2	0	4	boats	1	correct	0.432538977234799
99516	1	stim131_inanimate_fruits_grape_3.png	131	inanimate	fruits	grape	3	0	4	boats	1	correct	0.432538977234799
99566	1	stim099_animate_mammal_rhino_3.png	99	animate	mammal	rhino	3	0	4	boats	1	correct	0.432538977234799
99616	1	stim087_animate_mammal_giraffe_3.png	87	animate	mammal	giraffe	3	0	4	boats	1	correct	0.432538977234799
99666	1	stim021_animate_bird_chicken_1.png	21	animate	bird	chicken	1	0	4	boats	1	correct	0.432538977234799
99716	1	stim159_inanimate_furniture_table_3.png	159	inanimate	furniture	table	3	0	4	boats	1	correct	0.432538977234799
99766	1	stim112_inanimate_clothing_jeans_4.png	112	inanimate	clothing	jeans	4	0	4	boats	1	correct	0.432538977234799
99816	1	stim015_animate_aquatic_shark_3.png	15	animate	aquatic	shark	3	0	4	boats	1	correct	0.432538977234799
99866	1	stim139_inanimate_fruits_strawberry_3.png	139	inanimate	fruits	strawberry	3	0	4	boats	1	correct	0.432538977234799
99916	1	stim113_inanimate_clothing_shirt_1.png	113	inanimate	clothing	shirt	1	0	4	boats	1	correct	0.432538977234799
99966	1	stim066_animate_insect_bug_2.png	66	animate	insect	bug	2	0	4	boats	1	correct	0.432538977234799
100016	1	stim051_animate_human_clown_3.png	51	animate	human	clown	3	0	4	boats	1	correct	0.432538977234799
100066	1	stim068_animate_insect_bug_4.png	68	animate	insect	bug	4	0	4	boats	1	correct	0.432538977234799
100116	1	stim197_inanimate_tools_wrench_1.png	197	inanimate	tools	wrench	1	0	4	boats	1	correct	0.432538977234799
100166	1	stim069_animate_insect_butterfly_1.png	69	animate	insect	butterfly	1	0	4	boats	1	correct	0.432538977234799
100216	1	stim001_animate_aquatic_crab_1.png	1	animate	aquatic	crab	1	0	4	boats	1	correct	0.432538977234799
100266	1	stim157_inanimate_furniture_table_1.png	157	inanimate	furniture	table	1	0	4	boats	1	correct	0.432538977234799
100316	1	stim152_inanimate_furniture_closet_4.png	152	inanimate	furniture	closet	4	0	4	boats	1	correct	0.432538977234799
100366	1	stim047_animate_human_child_3.png	47	animate	human	child	3	0	4	boats	1	correct	0.432538977234799
100416	1	stim067_animate_insect_bug_3.png	67	animate	insect	bug	3	0	4	boats	1	correct	0.432538977234799
100466	1	stim003_animate_aquatic_crab_3.png	3	animate	aquatic	crab	3	0	4	boats	1	correct	0.432538977234799
100516	1	stim024_animate_bird_chicken_4.png	24	animate	bird	chicken	4	0	4	boats	1	correct	0.432538977234799
100566	1	stim061_animate_insect_ant_1.png	61	animate	insect	ant	1	0	4	boats	1	correct	0.432538977234799
100616	1	stim136_inanimate_fruits_pineapple_4.png	136	inanimate	fruits	pineapple	4	0	4	boats	1	correct	0.432538977234799
100666	1	stim085_animate_mammal_giraffe_1.png	85	animate	mammal	giraffe	1	0	4	boats	1	correct	0.432538977234799
100716	1	stim005_animate_aquatic_fish_1.png	5	animate	aquatic	fish	1	0	4	boats	1	correct	0.432538977234799
100766	1	stim164_inanimate_plants_bush_4.png	164	inanimate	plants	bush	4	0	4	boats	1	correct	0.432538977234799
100816	1	stim062_animate_insect_ant_2.png	62	animate	insect	ant	2	0	4	boats	1	correct	0.432538977234799
100866	1	stim059_animate_human_sports_3.png	59	animate	human	sports	3	0	4	boats	1	correct	0.432538977234799
100916	1	stim110_inanimate_clothing_jeans_2.png	110	inanimate	clothing	jeans	2	0	4	boats	1	correct	0.432538977234799
100966	1	stim017_animate_aquatic_shrimp_1.png	17	animate	aquatic	shrimp	1	0	4	boats	1	correct	0.432538977234799
101016	1	stim054_animate_human_faces_2.png	54	animate	human	faces	2	0	4	boats	1	correct	0.432538977234799
101066	1	stim144_inanimate_furniture_bed_4.png	144	inanimate	furniture	bed	4	0	4	boats	1	correct	0.432538977234799
101116	1	stim028_animate_bird_duck_4.png	28	animate	bird	duck	4	0	4	boats	1	correct	0.432538977234799
101166	1	stim084_animate_mammal_cow_4.png	84	animate	mammal	cow	4	0	4	boats	1	correct	0.432538977234799
101216	1	stim172_inanimate_plants_sunflower_4.png	172	inanimate	plants	sunflower	4	0	4	boats	1	correct	0.432538977234799
101266	1	stim036_animate_bird_peacock_4.png	36	animate	bird	peacock	4	0	4	boats	1	correct	0.432538977234799
101316	1	stim096_animate_mammal_monkey_4.png	96	animate	mammal	monkey	4	0	4	boats	1	correct	0.432538977234799
101366	1	stim174_inanimate_plants_tree_2.png	174	inanimate	plants	tree	2	0	4	boats	1	correct	0.432538977234799
101416	1	stim109_inanimate_clothing_jeans_1.png	109	inanimate	clothing	jeans	1	0	4	boats	1	correct	0.432538977234799
101466	1	stim079_animate_insect_grasshopper_3.png	79	animate	insect	grasshopper	3	0	4	boats	1	correct	0.432538977234799
101516	1	stim012_animate_aquatic_seahorse_4.png	12	animate	aquatic	seahorse	4	0	4	boats	1	correct	0.432538977234799
101566	1	stim189_inanimate_tools_pan_1.png	189	inanimate	tools	pan	1	0	4	boats	1	correct	0.432538977234799
101616	1	stim070_animate_insect_butterfly_2.png	70	animate	insect	butterfly	2	0	4	boats	1	correct	0.432538977234799
101666	1	stim101_inanimate_clothing_gloves_1.png	101	inanimate	clothing	gloves	1	0	4	boats	1	correct	0.432538977234799
101716	1	stim176_inanimate_plants_tree_4.png	176	inanimate	plants	tree	4	0	4	boats	1	correct	0.432538977234799
101766	1	stim199_inanimate_tools_wrench_3.png	199	inanimate	tools	wrench	3	0	4	boats	1	correct	0.432538977234799
101816	1	stim187_inanimate_tools_hammer_3.png	187	inanimate	tools	hammer	3	0	4	boats	1	correct	0.432538977234799
101866	1	stim102_inanimate_clothing_gloves_2.png	102	inanimate	clothing	gloves	2	0	4	boats	1	correct	0.432538977234799
101916	1	stim092_animate_mammal_kangaroo_4.png	92	animate	mammal	kangaroo	4	0	4	boats	1	correct	0.432538977234799
101966	1	stim186_inanimate_tools_hammer_2.png	186	inanimate	tools	hammer	2	0	4	boats	1	correct	0.432538977234799
102016	1	stim149_inanimate_furniture_closet_1.png	149	inanimate	furniture	closet	1	0	4	boats	1	correct	0.432538977234799
102066	1	stim121_inanimate_fruits_apple_1.png	121	inanimate	fruits	apple	1	0	4	boats	1	correct	0.432538977234799
102116	1	stim120_inanimate_clothing_socks_4.png	120	inanimate	clothing	socks	4	0	4	boats	1	correct	0.432538977234799
111583	1	stim126_inanimate_fruits_banana_2.png	126	inanimate	fruits	banana	2	0	5	stars	2	correct	0.633105785822409
111632	1	stim083_animate_mammal_cow_3.png	83	animate	mammal	cow	3	0	5	stars	2	correct	0.633105785822409
111683	1	stim088_animate_mammal_giraffe_4.png	88	animate	mammal	giraffe	4	0	5	stars	2	correct	0.633105785822409
111732	1	stim157_inanimate_furniture_table_1.png	157	inanimate	furniture	table	1	0	5	stars	2	correct	0.633105785822409
111782	1	stim136_inanimate_fruits_pineapple_4.png	136	inanimate	fruits	pineapple	4	0	5	stars	2	correct	0.633105785822409
111833	1	stim109_inanimate_clothing_jeans_1.png	109	inanimate	clothing	jeans	1	0	5	stars	2	correct	0.633105785822409
111883	1	stim096_animate_mammal_monkey_4.png	96	animate	mammal	monkey	4	0	5	stars	2	correct	0.633105785822409
111933	1	stim073_animate_insect_dragonfly_1.png	73	animate	insect	dragonfly	1	0	5	stars	2	correct	0.633105785822409
111983	1	stim137_inanimate_fruits_strawberry_1.png	137	inanimate	fruits	strawberry	1	0	5	stars	2	correct	0.633105785822409
112033	1	stim053_animate_human_faces_1.png	53	animate	human	faces	1	0	5	stars	2	correct	0.633105785822409
112083	1	stim176_inanimate_plants_tree_4.png	176	inanimate	plants	tree	4	0	5	stars	2	correct	0.633105785822409
112133	1	stim071_animate_insect_butterfly_3.png	71	animate	insect	butterfly	3	0	5	stars	2	correct	0.633105785822409
112183	1	stim009_animate_aquatic_seahorse_1.png	9	animate	aquatic	seahorse	1	0	5	stars	2	correct	0.633105785822409
112233	1	stim184_inanimate_tools_broom_4.png	184	inanimate	tools	broom	4	0	5	stars	2	correct	0.633105785822409
112282	1	stim019_animate_aquatic_shrimp_3.png	19	animate	aquatic	shrimp	3	0	5	stars	2	correct	0.633105785822409
112333	1	stim125_inanimate_fruits_banana_1.png	125	inanimate	fruits	banana	1	0	5	stars	2	correct	0.633105785822409
112383	1	stim025_animate_bird_duck_1.png	25	animate	bird	duck	1	0	5	stars	2	correct	0.633105785822409
112433	1	stim078_animate_insect_grasshopper_2.png	78	animate	insect	grasshopper	2	0	5	stars	2	correct	0.633105785822409
112483	1	stim188_inanimate_tools_hammer_4.png	188	inanimate	tools	hammer	4	0	5	stars	2	correct	0.633105785822409
112533	1	stim031_animate_bird_parrot_3.png	31	animate	bird	parrot	3	0	5	stars	2	correct	0.633105785822409
112583	1	stim030_animate_bird_parrot_2.png	30	animate	bird	parrot	2	0	5	stars	2	correct	0.633105785822409
112633	1	stim198_inanimate_tools_wrench_2.png	198	inanimate	tools	wrench	2	0	5	stars	2	correct	0.633105785822409
112683	1	stim134_inanimate_fruits_pineapple_2.png	134	inanimate	fruits	pineapple	2	0	5	stars	2	correct	0.633105785822409
112733	1	stim182_inanimate_tools_broom_2.png	182	inanimate	tools	broom	2	0	5	stars	2	correct	0.633105785822409
112783	1	stim118_inanimate_clothing_socks_2.png	118	inanimate	clothing	socks	2	0	5	stars	2	correct	0.633105785822409
112833	1	stim177_inanimate_plants_tulip_1.png	177	inanimate	plants	tulip	1	0	5	stars	2	correct	0.633105785822409
112883	1	stim090_animate_mammal_kangaroo_2.png	90	animate	mammal	kangaroo	2	0	5	stars	2	correct	0.633105785822409
112933	1	stim141_inanimate_furniture_bed_1.png	141	inanimate	furniture	bed	1	0	5	stars	2	correct	0.633105785822409
112983	1	stim192_inanimate_tools_pan_4.png	192	inanimate	tools	pan	4	0	5	stars	2	correct	0.633105785822409
113033	1	stim107_inanimate_clothing_hat_3.png	107	inanimate	clothing	hat	3	0	5	stars	2	correct	0.633105785822409
113083	1	stim117_inanimate_clothing_socks_1.png	117	inanimate	clothing	socks	1	0	5	stars	2	correct	0.633105785822409
113133	1	stim084_animate_mammal_cow_4.png	84	animate	mammal	cow	4	0	5	stars	2	correct	0.633105785822409
113183	1	stim087_animate_mammal_giraffe_3.png	87	animate	mammal	giraffe	3	0	5	stars	2	correct	0.633105785822409
113233	1	stim122_inanimate_fruits_apple_2.png	122	inanimate	fruits	apple	2	0	5	stars	2	correct	0.633105785822409
113283	1	stim094_animate_mammal_monkey_2.png	94	animate	mammal	monkey	2	0	5	stars	2	correct	0.633105785822409
113333	1	stim015_animate_aquatic_shark_3.png	15	animate	aquatic	shark	3	0	5	stars	2	correct	0.633105785822409
113383	1	stim075_animate_insect_dragonfly_3.png	75	animate	insect	dragonfly	3	0	5	stars	2	correct	0.633105785822409
113433	1	stim178_inanimate_plants_tulip_2.png	178	inanimate	plants	tulip	2	0	5	stars	2	correct	0.633105785822409
113483	1	stim018_animate_aquatic_shrimp_2.png	18	animate	aquatic	shrimp	2	0	5	stars	2	correct	0.633105785822409
113533	1	stim131_inanimate_fruits_grape_3.png	131	inanimate	fruits	grape	3	0	5	stars	2	correct	0.633105785822409
113583	1	stim179_inanimate_plants_tulip_3.png	179	inanimate	plants	tulip	3	0	5	stars	2	correct	0.633105785822409
113633	1	stim163_inanimate_plants_bush_3.png	163	inanimate	plants	bush	3	0	5	stars	2	correct	0.633105785822409
113683	1	stim187_inanimate_tools_hammer_3.png	187	inanimate	tools	hammer	3	0	5	stars	2	correct	0.633105785822409
113733	1	stim091_animate_mammal_kangaroo_3.png	91	animate	mammal	kangaroo	3	0	5	stars	2	correct	0.633105785822409
113783	1	stim154_inanimate_furniture_sofa_2.png	154	inanimate	furniture	sofa	2	0	5	stars	2	correct	0.633105785822409
113833	1	stim165_inanimate_plants_cactus_1.png	165	inanimate	plants	cactus	1	0	5	stars	2	correct	0.633105785822409
113883	1	stim010_animate_aquatic_seahorse_2.png	10	animate	aquatic	seahorse	2	0	5	stars	2	correct	0.633105785822409
113933	1	stim135_inanimate_fruits_pineapple_3.png	135	inanimate	fruits	pineapple	3	0	5	stars	2	correct	0.633105785822409
113983	1	stim058_animate_human_sports_2.png	58	animate	human	sports	2	0	5	stars	2	correct	0.633105785822409
114033	1	stim066_animate_insect_bug_2.png	66	animate	insect	bug	2	0	5	stars	2	correct	0.633105785822409
114083	1	stim132_inanimate_fruits_grape_4.png	132	inanimate	fruits	grape	4	0	5	stars	2	correct	0.633105785822409
114133	1	stim052_animate_human_clown_4.png	52	animate	human	clown	4	0	5	stars	2	correct	0.633105785822409
114183	1	stim151_inanimate_furniture_closet_3.png	151	inanimate	furniture	closet	3	0	5	stars	2	correct	0.633105785822409
114233	1	stim161_inanimate_plants_bush_1.png	161	inanimate	plants	bush	1	0	5	stars	2	correct	0.633105785822409
114283	1	stim003_animate_aquatic_crab_3.png	3	animate	aquatic	crab	3	0	5	stars	2	correct	0.633105785822409
114333	1	stim038_animate_bird_penguin_2.png	38	animate	bird	penguin	2	0	5	stars	2	correct	0.633105785822409
114383	1	stim007_animate_aquatic_fish_3.png	7	animate	aquatic	fish	3	0	5	stars	2	correct	0.633105785822409
114433	1	stim013_animate_aquatic_shark_1.png	13	animate	aquatic	shark	1	0	5	stars	2	correct	0.633105785822409
114483	1	stim002_animate_aquatic_crab_2.png	2	animate	aquatic	crab	2	0	5	stars	2	correct	0.633105785822409
114533	1	stim067_animate_insect_bug_3.png	67	animate	insect	bug	3	0	5	stars	2	correct	0.633105785822409
114583	1	stim006_animate_aquatic_fish_2.png	6	animate	aquatic	fish	2	0	5	stars	2	correct	0.633105785822409
114633	1	stim108_inanimate_clothing_hat_4.png	108	inanimate	clothing	hat	4	0	5	stars	2	correct	0.633105785822409
114683	1	stim149_inanimate_furniture_closet_1.png	149	inanimate	furniture	closet	1	0	5	stars	2	correct	0.633105785822409
114733	1	stim167_inanimate_plants_cactus_3.png	167	inanimate	plants	cactus	3	0	5	stars	2	correct	0.633105785822409
114783	1	stim173_inanimate_plants_tree_1.png	173	inanimate	plants	tree	1	0	5	stars	2	correct	0.633105785822409
114833	1	stim061_animate_insect_ant_1.png	61	animate	insect	ant	1	0	5	stars	2	correct	0.633105785822409
114883	1	stim212_targets_shapes_star_4.png	212	targets	shapes	star	4	1	5	stars	2	correct	0.633105785822409
114933	1	stim057_animate_human_sports_1.png	57	animate	human	sports	1	0	5	stars	2	correct	0.633105785822409
114983	1	stim011_animate_aquatic_seahorse_3.png	11	animate	aquatic	seahorse	3	0	5	stars	2	correct	0.633105785822409
115033	1	stim144_inanimate_furniture_bed_4.png	144	inanimate	furniture	bed	4	0	5	stars	2	correct	0.633105785822409
115083	1	stim047_animate_human_child_3.png	47	animate	human	child	3	0	5	stars	2	correct	0.633105785822409
115133	1	stim069_animate_insect_butterfly_1.png	69	animate	insect	butterfly	1	0	5	stars	2	correct	0.633105785822409
115183	1	stim036_animate_bird_peacock_4.png	36	animate	bird	peacock	4	0	5	stars	2	correct	0.633105785822409
115233	1	stim100_animate_mammal_rhino_4.png	100	animate	mammal	rhino	4	0	5	stars	2	correct	0.633105785822409
115283	1	stim191_inanimate_tools_pan_3.png	191	inanimate	tools	pan	3	0	5	stars	2	correct	0.633105785822409
115333	1	stim064_animate_insect_ant_4.png	64	animate	insect	ant	4	0	5	stars	2	correct	0.633105785822409
115383	1	stim022_animate_bird_chicken_2.png	22	animate	bird	chicken	2	0	5	stars	2	correct	0.633105785822409
115433	1	stim180_inanimate_plants_tulip_4.png	180	inanimate	plants	tulip	4	0	5	stars	2	correct	0.633105785822409
115483	1	stim017_animate_aquatic_shrimp_1.png	17	animate	aquatic	shrimp	1	0	5	stars	2	correct	0.633105785822409
115533	1	stim103_inanimate_clothing_gloves_3.png	103	inanimate	clothing	gloves	3	0	5	stars	2	correct	0.633105785822409
115583	1	stim143_inanimate_furniture_bed_3.png	143	inanimate	furniture	bed	3	0	5	stars	2	correct	0.633105785822409
115633	1	stim190_inanimate_tools_pan_2.png	190	inanimate	tools	pan	2	0	5	stars	2	correct	0.633105785822409
115683	1	stim028_animate_bird_duck_4.png	28	animate	bird	duck	4	0	5	stars	2	correct	0.633105785822409
