onset	duration	stimulusname	stimulusnumber	levelA	levelB	levelC	withinexemplarnumber	istarget	trialnumber	condition	response	correct	rt
43529	1	stim024_animate_bird_chicken_4.png	24	animate	bird	chicken	4	0	1	boats	4	correct	0.931842440855689
43729	1	stim127_inanimate_fruits_banana_3.png	127	inanimate	fruits	banana	3	0	1	boats	4	correct	0.931842440855689
43929	1	stim112_inanimate_clothing_jeans_4.png	112	inanimate	clothing	jeans	4	0	1	boats	4	correct	0.931842440855689
44129	1	stim069_animate_insect_butterfly_1.png	69	animate	insect	butterfly	1	0	1	boats	4	correct	0.931842440855689
44329	1	stim103_inanimate_clothing_gloves_3.png	103	inanimate	clothing	gloves	3	0	1	boats	4	correct	0.931842440855689
44529	1	stim117_inanimate_clothing_socks_1.png	117	inanimate	clothing	socks	1	0	1	boats	4	correct	0.931842440855689
44728	1	stim028_animate_bird_duck_4.png	28	animate	bird	duck	4	0	1	boats	4	correct	0.931842440855689
44928	1	stim186_inanimate_tools_hammer_2.png	186	inanimate	tools	hammer	2	0	1	boats	4	correct	0.931842440855689
45128	1	stim195_inanimate_tools_scissors_3.png	195	inanimate	tools	scissors	3	0	1	boats	4	correct	0.931842440855689
45328	1	stim197_inanimate_tools_wrench_1.png	197	inanimate	tools	wrench	1	0	1	boats	4	correct	0.931842440855689
45528	1	stim019_animate_aquatic_shrimp_3.png	19	animate	aquatic	shrimp	3	0	1	boats	4	correct	0.931842440855689
45729	1	stim031_animate_bird_parrot_3.png	31	animate	bird	parrot	3	0	1	boats	4	correct	0.931842440855689
45929	1	stim078_animate_insect_grasshopper_2.png	78	animate	insect	grasshopper	2	0	1	boats	4	correct	0.931842440855689
46129	1	stim011_animate_aquatic_seahorse_3.png	11	animate	aquatic	seahorse	3	0	1	boats	4	correct	0.931842440855689
46329	1	stim149_inanimate_furniture_closet_1.png	149	inanimate	furniture	closet	1	0	1	boats	4	correct	0.931842440855689
46529	1	stim198_inanimate_tools_wrench_2.png	198	inanimate	tools	wrench	2	0	1	boats	4	correct	0.931842440855689
46728	1	stim185_inanimate_tools_hammer_1.png	185	inanimate	tools	hammer	1	0	1	boats	4	correct	0.931842440855689
46929	1	stim066_animate_insect_bug_2.png	66	animate	insect	bug	2	0	1	boats	4	correct	0.931842440855689
47129	1	stim106_inanimate_clothing_hat_2.png	106	inanimate	clothing	hat	2	0	1	boats	4	correct	0.931842440855689
47329	1	stim034_animate_bird_peacock_2.png	34	animate	bird	peacock	2	0	1	boats	4	correct	0.931842440855689
47529	1	stim047_animate_human_child_3.png	47	animate	human	child	3	0	1	boats	4	correct	0.931842440855689
47729	1	stim118_inanimate_clothing_socks_2.png	118	inanimate	clothing	socks	2	0	1	boats	4	correct	0.931842440855689
47929	1	stim013_animate_aquatic_shark_1.png	13	animate	aquatic	shark	1	0	1	boats	4	correct	0.931842440855689
48129	1	stim001_animate_aquatic_crab_1.png	1	animate	aquatic	crab	1	0	1	boats	4	correct	0.931842440855689
48329	1	stim182_inanimate_tools_broom_2.png	182	inanimate	tools	broom	2	0	1	boats	4	correct	0.931842440855689
48529	1	stim075_animate_insect_dragonfly_3.png	75	animate	insect	dragonfly	3	0	1	boats	4	correct	0.931842440855689
48729	1	stim108_inanimate_clothing_hat_4.png	108	inanimate	clothing	hat	4	0	1	boats	4	correct	0.931842440855689
48929	1	stim053_animate_human_faces_1.png	53	animate	human	faces	1	0	1	boats	4	correct	0.931842440855689
49129	1	stim129_inanimate_fruits_grape_1.png	129	inanimate	fruits	grape	1	0	1	boats	4	correct	0.931842440855689
49329	1	stim156_inanimate_furniture_sofa_4.png	156	inanimate	furniture	sofa	4	0	1	boats	4	correct	0.931842440855689
49529	1	stim161_inanimate_plants_bush_1.png	161	inanimate	plants	bush	1	0	1	boats	4	correct	0.931842440855689
49729	1	stim097_animate_mammal_rhino_1.png	97	animate	mammal	rhino	1	0	1	boats	4	correct	0.931842440855689
49929	1	stim074_animate_insect_dragonfly_2.png	74	animate	insect	dragonfly	2	0	1	boats	4	correct	0.931842440855689
50129	1	stim191_inanimate_tools_pan_3.png	191	inanimate	tools	pan	3	0	1	boats	4	correct	0.931842440855689
50329	1	stim162_inanimate_plants_bush_2.png	162	inanimate	plants	bush	2	0	1	boats	4	correct	0.931842440855689
50529	1	stim180_inanimate_plants_tulip_4.png	180	inanimate	plants	tulip	4	0	1	boats	4	correct	0.931842440855689
50729	1	stim003_animate_aquatic_crab_3.png	3	animate	aquatic	crab	3	0	1	boats	4	correct	0.931842440855689
50929	1	stim113_inanimate_clothing_shirt_1.png	113	inanimate	clothing	shirt	1	0	1	boats	4	correct	0.931842440855689
51129	1	stim014_animate_aquatic_shark_2.png	14	animate	aquatic	shark	2	0	1	boats	4	correct	0.931842440855689
51329	1	stim159_inanimate_furniture_table_3.png	159	inanimate	furniture	table	3	0	1	boats	4	correct	0.931842440855689
51529	1	stim140_inanimate_fruits_strawberry_4.png	140	inanimate	fruits	strawberry	4	0	1	boats	4	correct	0.931842440855689
51729	1	stim080_animate_insect_grasshopper_4.png	80	animate	insect	grasshopper	4	0	1	boats	4	correct	0.931842440855689
51929	1	stim147_inanimate_furniture_chair_3.png	147	inanimate	furniture	chair	3	0	1	boats	4	correct	0.931842440855689
52129	1	stim136_inanimate_fruits_pineapple_4.png	136	inanimate	fruits	pineapple	4	0	1	boats	4	correct	0.931842440855689
52329	1	stim157_inanimate_furniture_table_1.png	157	inanimate	furniture	table	1	0	1	boats	4	correct	0.931842440855689
52529	1	stim119_inanimate_clothing_socks_3.png	119	inanimate	clothing	socks	3	0	1	boats	4	correct	0.931842440855689
52729	1	stim095_animate_mammal_monkey_3.png	95	animate	mammal	monkey	3	0	1	boats	4	correct	0.931842440855689
52929	1	stim178_inanimate_plants_tulip_2.png	178	inanimate	plants	tulip	2	0	1	boats	4	correct	0.931842440855689
53129	1	stim083_animate_mammal_cow_3.png	83	animate	mammal	cow	3	0	1	boats	4	correct	0.931842440855689
53329	1	stim174_inanimate_plants_tree_2.png	174	inanimate	plants	tree	2	0	1	boats	4	correct	0.931842440855689
53529	1	stim181_inanimate_tools_broom_1.png	181	inanimate	tools	broom	1	0	1	boats	4	correct	0.931842440855689
53729	1	stim125_inanimate_fruits_banana_1.png	125	inanimate	fruits	banana	1	0	1	boats	4	correct	0.931842440855689
53929	1	stim132_inanimate_fruits_grape_4.png	132	inanimate	fruits	grape	4	0	1	boats	4	correct	0.931842440855689
54129	1	stim045_animate_human_child_1.png	45	animate	human	child	1	0	1	boats	4	correct	0.931842440855689
54329	1	stim092_animate_mammal_kangaroo_4.png	92	animate	mammal	kangaroo	4	0	1	boats	4	correct	0.931842440855689
54529	1	stim043_animate_human_baby_3.png	43	animate	human	baby	3	0	1	boats	4	correct	0.931842440855689
54729	1	stim123_inanimate_fruits_apple_3.png	123	inanimate	fruits	apple	3	0	1	boats	4	correct	0.931842440855689
54929	1	stim201_targets_object_boats_1.png	201	targets	object	boats	1	1	1	boats	4	correct	0.931842440855689
55129	1	stim163_inanimate_plants_bush_3.png	163	inanimate	plants	bush	3	0	1	boats	4	correct	0.931842440855689
55329	1	stim022_animate_bird_chicken_2.png	22	animate	bird	chicken	2	0	1	boats	4	correct	0.931842440855689
55529	1	stim025_animate_bird_duck_1.png	25	animate	bird	duck	1	0	1	boats	4	correct	0.931842440855689
55729	1	stim096_animate_mammal_monkey_4.png	96	animate	mammal	monkey	4	0	1	boats	4	correct	0.931842440855689
55929	1	stim183_inanimate_tools_broom_3.png	183	inanimate	tools	broom	3	0	1	boats	4	correct	0.931842440855689
56129	1	stim121_inanimate_fruits_apple_1.png	121	inanimate	fruits	apple	1	0	1	boats	4	correct	0.931842440855689
56329	1	stim100_animate_mammal_rhino_4.png	100	animate	mammal	rhino	4	0	1	boats	4	correct	0.931842440855689
56529	1	stim089_animate_mammal_kangaroo_1.png	89	animate	mammal	kangaroo	1	0	1	boats	4	correct	0.931842440855689
56729	1	stim115_inanimate_clothing_shirt_3.png	115	inanimate	clothing	shirt	3	0	1	boats	4	correct	0.931842440855689
56929	1	stim188_inanimate_tools_hammer_4.png	188	inanimate	tools	hammer	4	0	1	boats	4	correct	0.931842440855689
57129	1	stim054_animate_human_faces_2.png	54	animate	human	faces	2	0	1	boats	4	correct	0.931842440855689
57329	1	stim116_inanimate_clothing_shirt_4.png	116	inanimate	clothing	shirt	4	0	1	boats	4	correct	0.931842440855689
57529	1	stim153_inanimate_furniture_sofa_1.png	153	inanimate	furniture	sofa	1	0	1	boats	4	correct	0.931842440855689
57729	1	stim130_inanimate_fruits_grape_2.png	130	inanimate	fruits	grape	2	0	1	boats	4	correct	0.931842440855689
57929	1	stim175_inanimate_plants_tree_3.png	175	inanimate	plants	tree	3	0	1	boats	4	correct	0.931842440855689
58129	1	stim176_inanimate_plants_tree_4.png	176	inanimate	plants	tree	4	0	1	boats	4	correct	0.931842440855689
58329	1	stim005_animate_aquatic_fish_1.png	5	animate	aquatic	fish	1	0	1	boats	4	correct	0.931842440855689
58529	1	stim196_inanimate_tools_scissors_4.png	196	inanimate	tools	scissors	4	0	1	boats	4	correct	0.931842440855689
58729	1	stim082_animate_mammal_cow_2.png	82	animate	mammal	cow	2	0	1	boats	4	correct	0.931842440855689
58929	1	stim010_animate_aquatic_seahorse_2.png	10	animate	aquatic	seahorse	2	0	1	boats	4	correct	0.931842440855689
59129	1	stim164_inanimate_plants_bush_4.png	164	inanimate	plants	bush	4	0	1	boats	4	correct	0.931842440855689
59329	1	stim038_animate_bird_penguin_2.png	38	animate	bird	penguin	2	0	1	boats	4	correct	0.931842440855689
59529	1	stim048_animate_human_child_4.png	48	animate	human	child	4	0	1	boats	4	correct	0.931842440855689
59729	1	stim004_animate_aquatic_crab_4.png	4	animate	aquatic	crab	4	0	1	boats	4	correct	0.931842440855689
59929	1	stim068_animate_insect_bug_4.png	68	animate	insect	bug	4	0	1	boats	4	correct	0.931842440855689
60129	1	stim169_inanimate_plants_sunflower_1.png	169	inanimate	plants	sunflower	1	0	1	boats	4	correct	0.931842440855689
60329	1	stim138_inanimate_fruits_strawberry_2.png	138	inanimate	fruits	strawberry	2	0	1	boats	4	correct	0.931842440855689
60529	1	stim042_animate_human_baby_2.png	42	animate	human	baby	2	0	1	boats	4	correct	0.931842440855689
60729	1	stim206_targets_object_boats_2.png	206	targets	object	boats	2	1	1	boats	4	correct	0.931842440855689
60929	1	stim088_animate_mammal_giraffe_4.png	88	animate	mammal	giraffe	4	0	1	boats	4	correct	0.931842440855689
61129	1	stim007_animate_aquatic_fish_3.png	7	animate	aquatic	fish	3	0	1	boats	4	correct	0.931842440855689
61329	1	stim173_inanimate_plants_tree_1.png	173	inanimate	plants	tree	1	0	1	boats	4	correct	0.931842440855689
61529	1	stim199_inanimate_tools_wrench_3.png	199	inanimate	tools	wrench	3	0	1	boats	4	correct	0.931842440855689
61729	1	stim107_inanimate_clothing_hat_3.png	107	inanimate	clothing	hat	3	0	1	boats	4	correct	0.931842440855689
61929	1	stim018_animate_aquatic_shrimp_2.png	18	animate	aquatic	shrimp	2	0	1	boats	4	correct	0.931842440855689
62129	1	stim172_inanimate_plants_sunflower_4.png	172	inanimate	plants	sunflower	4	0	1	boats	4	correct	0.931842440855689
62329	1	stim009_animate_aquatic_seahorse_1.png	9	animate	aquatic	seahorse	1	0	1	boats	4	correct	0.931842440855689
62529	1	stim055_animate_human_faces_3.png	55	animate	human	faces	3	0	1	boats	4	correct	0.931842440855689
62729	1	stim152_inanimate_furniture_closet_4.png	152	inanimate	furniture	closet	4	0	1	boats	4	correct	0.931842440855689
62929	1	stim026_animate_bird_duck_2.png	26	animate	bird	duck	2	0	1	boats	4	correct	0.931842440855689
63129	1	stim109_inanimate_clothing_jeans_1.png	109	inanimate	clothing	jeans	1	0	1	boats	4	correct	0.931842440855689
63329	1	stim131_inanimate_fruits_grape_3.png	131	inanimate	fruits	grape	3	0	1	boats	4	correct	0.931842440855689
63529	1	stim056_animate_human_faces_4.png	56	animate	human	faces	4	0	1	boats	4	correct	0.931842440855689
63729	1	stim189_inanimate_tools_pan_1.png	189	inanimate	tools	pan	1	0	1	boats	4	correct	0.931842440855689
63929	1	stim091_animate_mammal_kangaroo_3.png	91	animate	mammal	kangaroo	3	0	1	boats	4	correct	0.931842440855689
64129	1	stim148_inanimate_furniture_chair_4.png	148	inanimate	furniture	chair	4	0	1	boats	4	correct	0.931842440855689
64329	1	stim134_inanimate_fruits_pineapple_2.png	134	inanimate	fruits	pineapple	2	0	1	boats	4	correct	0.931842440855689
64529	1	stim063_animate_insect_ant_3.png	63	animate	insect	ant	3	0	1	boats	4	correct	0.931842440855689
64729	1	stim033_animate_bird_peacock_1.png	33	animate	bird	peacock	1	0	1	boats	4	correct	0.931842440855689
64929	1	stim141_inanimate_furniture_bed_1.png	141	inanimate	furniture	bed	1	0	1	boats	4	correct	0.931842440855689
65129	1	stim065_animate_insect_bug_1.png	65	animate	insect	bug	1	0	1	boats	4	correct	0.931842440855689
65329	1	stim143_inanimate_furniture_bed_3.png	143	inanimate	furniture	bed	3	0	1	boats	4	correct	0.931842440855689
65529	1	stim064_animate_insect_ant_4.png	64	animate	insect	ant	4	0	1	boats	4	correct	0.931842440855689
65729	1	stim114_inanimate_clothing_shirt_2.png	114	inanimate	clothing	shirt	2	0	1	boats	4	correct	0.931842440855689
65929	1	stim167_inanimate_plants_cactus_3.png	167	inanimate	plants	cactus	3	0	1	boats	4	correct	0.931842440855689
66129	1	stim142_inanimate_furniture_bed_2.png	142	inanimate	furniture	bed	2	0	1	boats	4	correct	0.931842440855689
66329	1	stim037_animate_bird_penguin_1.png	37	animate	bird	penguin	1	0	1	boats	4	correct	0.931842440855689
66529	1	stim067_animate_insect_bug_3.png	67	animate	insect	bug	3	0	1	boats	4	correct	0.931842440855689
66729	1	stim087_animate_mammal_giraffe_3.png	87	animate	mammal	giraffe	3	0	1	boats	4	correct	0.931842440855689
66929	1	stim124_inanimate_fruits_apple_4.png	124	inanimate	fruits	apple	4	0	1	boats	4	correct	0.931842440855689
67129	1	stim040_animate_bird_penguin_4.png	40	animate	bird	penguin	4	0	1	boats	4	correct	0.931842440855689
67329	1	stim084_animate_mammal_cow_4.png	84	animate	mammal	cow	4	0	1	boats	4	correct	0.931842440855689
67529	1	stim035_animate_bird_peacock_3.png	35	animate	bird	peacock	3	0	1	boats	4	correct	0.931842440855689
67729	1	stim102_inanimate_clothing_gloves_2.png	102	inanimate	clothing	gloves	2	0	1	boats	4	correct	0.931842440855689
67929	1	stim086_animate_mammal_giraffe_2.png	86	animate	mammal	giraffe	2	0	1	boats	4	correct	0.931842440855689
68129	1	stim207_targets_object_boats_3.png	207	targets	object	boats	3	1	1	boats	4	correct	0.931842440855689
68329	1	stim051_animate_human_clown_3.png	51	animate	human	clown	3	0	1	boats	4	correct	0.931842440855689
68529	1	stim120_inanimate_clothing_socks_4.png	120	inanimate	clothing	socks	4	0	1	boats	4	correct	0.931842440855689
68729	1	stim008_animate_aquatic_fish_4.png	8	animate	aquatic	fish	4	0	1	boats	4	correct	0.931842440855689
68929	1	stim165_inanimate_plants_cactus_1.png	165	inanimate	plants	cactus	1	0	1	boats	4	correct	0.931842440855689
69129	1	stim099_animate_mammal_rhino_3.png	99	animate	mammal	rhino	3	0	1	boats	4	correct	0.931842440855689
69329	1	stim122_inanimate_fruits_apple_2.png	122	inanimate	fruits	apple	2	0	1	boats	4	correct	0.931842440855689
69529	1	stim039_animate_bird_penguin_3.png	39	animate	bird	penguin	3	0	1	boats	4	correct	0.931842440855689
69729	1	stim057_animate_human_sports_1.png	57	animate	human	sports	1	0	1	boats	4	correct	0.931842440855689
69929	1	stim190_inanimate_tools_pan_2.png	190	inanimate	tools	pan	2	0	1	boats	4	correct	0.931842440855689
70129	1	stim111_inanimate_clothing_jeans_3.png	111	inanimate	clothing	jeans	3	0	1	boats	4	correct	0.931842440855689
70329	1	stim193_inanimate_tools_scissors_1.png	193	inanimate	tools	scissors	1	0	1	boats	4	correct	0.931842440855689
70529	1	stim139_inanimate_fruits_strawberry_3.png	139	inanimate	fruits	strawberry	3	0	1	boats	4	correct	0.931842440855689
70729	1	stim094_animate_mammal_monkey_2.png	94	animate	mammal	monkey	2	0	1	boats	4	correct	0.931842440855689
70929	1	stim027_animate_bird_duck_3.png	27	animate	bird	duck	3	0	1	boats	4	correct	0.931842440855689
71129	1	stim012_animate_aquatic_seahorse_4.png	12	animate	aquatic	seahorse	4	0	1	boats	4	correct	0.931842440855689
71329	1	stim032_animate_bird_parrot_4.png	32	animate	bird	parrot	4	0	1	boats	4	correct	0.931842440855689
71529	1	stim002_animate_aquatic_crab_2.png	2	animate	aquatic	crab	2	0	1	boats	4	correct	0.931842440855689
71729	1	stim151_inanimate_furniture_closet_3.png	151	inanimate	furniture	closet	3	0	1	boats	4	correct	0.931842440855689
71929	1	stim179_inanimate_plants_tulip_3.png	179	inanimate	plants	tulip	3	0	1	boats	4	correct	0.931842440855689
72129	1	stim079_animate_insect_grasshopper_3.png	79	animate	insect	grasshopper	3	0	1	boats	4	correct	0.931842440855689
72329	1	stim202_targets_object_boats_2.png	202	targets	object	boats	2	1	1	boats	4	correct	0.931842440855689
72529	1	stim104_inanimate_clothing_gloves_4.png	104	inanimate	clothing	gloves	4	0	1	boats	4	correct	0.931842440855689
72729	1	stim070_animate_insect_butterfly_2.png	70	animate	insect	butterfly	2	0	1	boats	4	correct	0.931842440855689
72929	1	stim017_animate_aquatic_shrimp_1.png	17	animate	aquatic	shrimp	1	0	1	boats	4	correct	0.931842440855689
73129	1	stim077_animate_insect_grasshopper_1.png	77	animate	insect	grasshopper	1	0	1	boats	4	correct	0.931842440855689
73329	1	stim105_inanimate_clothing_hat_1.png	105	inanimate	clothing	hat	1	0	1	boats	4	correct	0.931842440855689
73529	1	stim058_animate_human_sports_2.png	58	animate	human	sports	2	0	1	boats	4	correct	0.931842440855689
73729	1	stim073_animate_insect_dragonfly_1.png	73	animate	insect	dragonfly	1	0	1	boats	4	correct	0.931842440855689
73929	1	stim144_inanimate_furniture_bed_4.png	144	inanimate	furniture	bed	4	0	1	boats	4	correct	0.931842440855689
74129	1	stim060_animate_human_sports_4.png	60	animate	human	sports	4	0	1	boats	4	correct	0.931842440855689
74329	1	stim192_inanimate_tools_pan_4.png	192	inanimate	tools	pan	4	0	1	boats	4	correct	0.931842440855689
74529	1	stim184_inanimate_tools_broom_4.png	184	inanimate	tools	broom	4	0	1	boats	4	correct	0.931842440855689
74729	1	stim135_inanimate_fruits_pineapple_3.png	135	inanimate	fruits	pineapple	3	0	1	boats	4	correct	0.931842440855689
74929	1	stim072_animate_insect_butterfly_4.png	72	animate	insect	butterfly	4	0	1	boats	4	correct	0.931842440855689
75129	1	stim158_inanimate_furniture_table_2.png	158	inanimate	furniture	table	2	0	1	boats	4	correct	0.931842440855689
75329	1	stim030_animate_bird_parrot_2.png	30	animate	bird	parrot	2	0	1	boats	4	correct	0.931842440855689
75529	1	stim041_animate_human_baby_1.png	41	animate	human	baby	1	0	1	boats	4	correct	0.931842440855689
75729	1	stim061_animate_insect_ant_1.png	61	animate	insect	ant	1	0	1	boats	4	correct	0.931842440855689
75929	1	stim177_inanimate_plants_tulip_1.png	177	inanimate	plants	tulip	1	0	1	boats	4	correct	0.931842440855689
76129	1	stim101_inanimate_clothing_gloves_1.png	101	inanimate	clothing	gloves	1	0	1	boats	4	correct	0.931842440855689
76329	1	stim044_animate_human_baby_4.png	44	animate	human	baby	4	0	1	boats	4	correct	0.931842440855689
76529	1	stim154_inanimate_furniture_sofa_2.png	154	inanimate	furniture	sofa	2	0	1	boats	4	correct	0.931842440855689
76729	1	stim146_inanimate_furniture_chair_2.png	146	inanimate	furniture	chair	2	0	1	boats	4	correct	0.931842440855689
76929	1	stim071_animate_insect_butterfly_3.png	71	animate	insect	butterfly	3	0	1	boats	4	correct	0.931842440855689
77129	1	stim166_inanimate_plants_cactus_2.png	166	inanimate	plants	cactus	2	0	1	boats	4	correct	0.931842440855689
77329	1	stim171_inanimate_plants_sunflower_3.png	171	inanimate	plants	sunflower	3	0	1	boats	4	correct	0.931842440855689
77529	1	stim021_animate_bird_chicken_1.png	21	animate	bird	chicken	1	0	1	boats	4	correct	0.931842440855689
77729	1	stim076_animate_insect_dragonfly_4.png	76	animate	insect	dragonfly	4	0	1	boats	4	correct	0.931842440855689
77929	1	stim062_animate_insect_ant_2.png	62	animate	insect	ant	2	0	1	boats	4	correct	0.931842440855689
78129	1	stim187_inanimate_tools_hammer_3.png	187	inanimate	tools	hammer	3	0	1	boats	4	correct	0.931842440855689
78329	1	stim145_inanimate_furniture_chair_1.png	145	inanimate	furniture	chair	1	0	1	boats	4	correct	0.931842440855689
78529	1	stim194_inanimate_tools_scissors_2.png	194	inanimate	tools	scissors	2	0	1	boats	4	correct	0.931842440855689
78729	1	stim029_animate_bird_parrot_1.png	29	animate	bird	parrot	1	0	1	boats	4	correct	0.931842440855689
78929	1	stim059_animate_human_sports_3.png	59	animate	human	sports	3	0	1	boats	4	correct	0.931842440855689
79129	1	stim036_animate_bird_peacock_4.png	36	animate	bird	peacock	4	0	1	boats	4	correct	0.931842440855689
79329	1	stim046_animate_human_child_2.png	46	animate	human	child	2	0	1	boats	4	correct	0.931842440855689
79529	1	stim093_animate_mammal_monkey_1.png	93	animate	mammal	monkey	1	0	1	boats	4	correct	0.931842440855689
79729	1	stim023_animate_bird_chicken_3.png	23	animate	bird	chicken	3	0	1	boats	4	correct	0.931842440855689
79929	1	stim049_animate_human_clown_1.png	49	animate	human	clown	1	0	1	boats	4	correct	0.931842440855689
80129	1	stim050_animate_human_clown_2.png	50	animate	human	clown	2	0	1	boats	4	correct	0.931842440855689
80329	1	stim090_animate_mammal_kangaroo_2.png	90	animate	mammal	kangaroo	2	0	1	boats	4	correct	0.931842440855689
80529	1	stim170_inanimate_plants_sunflower_2.png	170	inanimate	plants	sunflower	2	0	1	boats	4	correct	0.931842440855689
80729	1	stim015_animate_aquatic_shark_3.png	15	animate	aquatic	shark	3	0	1	boats	4	correct	0.931842440855689
80929	1	stim006_animate_aquatic_fish_2.png	6	animate	aquatic	fish	2	0	1	boats	4	correct	0.931842440855689
81129	1	stim128_inanimate_fruits_banana_4.png	128	inanimate	fruits	banana	4	0	1	boats	4	correct	0.931842440855689
81329	1	stim126_inanimate_fruits_banana_2.png	126	inanimate	fruits	banana	2	0	1	boats	4	correct	0.931842440855689
81529	1	stim168_inanimate_plants_cactus_4.png	168	inanimate	plants	cactus	4	0	1	boats	4	correct	0.931842440855689
81729	1	stim150_inanimate_furniture_closet_2.png	150	inanimate	furniture	closet	2	0	1	boats	4	correct	0.931842440855689
81929	1	stim155_inanimate_furniture_sofa_3.png	155	inanimate	furniture	sofa	3	0	1	boats	4	correct	0.931842440855689
82129	1	stim081_animate_mammal_cow_1.png	81	animate	mammal	cow	1	0	1	boats	4	correct	0.931842440855689
82329	1	stim110_inanimate_clothing_jeans_2.png	110	inanimate	clothing	jeans	2	0	1	boats	4	correct	0.931842440855689
82529	1	stim133_inanimate_fruits_pineapple_1.png	133	inanimate	fruits	pineapple	1	0	1	boats	4	correct	0.931842440855689
82729	1	stim137_inanimate_fruits_strawberry_1.png	137	inanimate	fruits	strawberry	1	0	1	boats	4	correct	0.931842440855689
82929	1	stim085_animate_mammal_giraffe_1.png	85	animate	mammal	giraffe	1	0	1	boats	4	correct	0.931842440855689
83129	1	stim020_animate_aquatic_shrimp_4.png	20	animate	aquatic	shrimp	4	0	1	boats	4	correct	0.931842440855689
83329	1	stim052_animate_human_clown_4.png	52	animate	human	clown	4	0	1	boats	4	correct	0.931842440855689
83529	1	stim016_animate_aquatic_shark_4.png	16	animate	aquatic	shark	4	0	1	boats	4	correct	0.931842440855689
83729	1	stim160_inanimate_furniture_table_4.png	160	inanimate	furniture	table	4	0	1	boats	4	correct	0.931842440855689
83929	1	stim200_inanimate_tools_wrench_4.png	200	inanimate	tools	wrench	4	0	1	boats	4	correct	0.931842440855689
84129	1	stim098_animate_mammal_rhino_2.png	98	animate	mammal	rhino	2	0	1	boats	4	correct	0.931842440855689
130347	1	stim071_animate_insect_butterfly_3.png	71	animate	insect	butterfly	3	0	2	stars	3	correct	0.961500596138649
130547	1	stim018_animate_aquatic_shrimp_2.png	18	animate	aquatic	shrimp	2	0	2	stars	3	correct	0.961500596138649
130747	1	stim049_animate_human_clown_1.png	49	animate	human	clown	1	0	2	stars	3	correct	0.961500596138649
130947	1	stim045_animate_human_child_1.png	45	animate	human	child	1	0	2	stars	3	correct	0.961500596138649
131147	1	stim098_animate_mammal_rhino_2.png	98	animate	mammal	rhino	2	0	2	stars	3	correct	0.961500596138649
131347	1	stim109_inanimate_clothing_jeans_1.png	109	inanimate	clothing	jeans	1	0	2	stars	3	correct	0.961500596138649
131547	1	stim174_inanimate_plants_tree_2.png	174	inanimate	plants	tree	2	0	2	stars	3	correct	0.961500596138649
131747	1	stim169_inanimate_plants_sunflower_1.png	169	inanimate	plants	sunflower	1	0	2	stars	3	correct	0.961500596138649
131947	1	stim074_animate_insect_dragonfly_2.png	74	animate	insect	dragonfly	2	0	2	stars	3	correct	0.961500596138649
132147	1	stim143_inanimate_furniture_bed_3.png	143	inanimate	furniture	bed	3	0	2	stars	3	correct	0.961500596138649
132347	1	stim157_inanimate_furniture_table_1.png	157	inanimate	furniture	table	1	0	2	stars	3	correct	0.961500596138649
132547	1	stim128_inanimate_fruits_banana_4.png	128	inanimate	fruits	banana	4	0	2	stars	3	correct	0.961500596138649
132747	1	stim191_inanimate_tools_pan_3.png	191	inanimate	tools	pan	3	0	2	stars	3	correct	0.961500596138649
132947	1	stim196_inanimate_tools_scissors_4.png	196	inanimate	tools	scissors	4	0	2	stars	3	correct	0.961500596138649
133147	1	stim113_inanimate_clothing_shirt_1.png	113	inanimate	clothing	shirt	1	0	2	stars	3	correct	0.961500596138649
133347	1	stim186_inanimate_tools_hammer_2.png	186	inanimate	tools	hammer	2	0	2	stars	3	correct	0.961500596138649
133547	1	stim183_inanimate_tools_broom_3.png	183	inanimate	tools	broom	3	0	2	stars	3	correct	0.961500596138649
133747	1	stim102_inanimate_clothing_gloves_2.png	102	inanimate	clothing	gloves	2	0	2	stars	3	correct	0.961500596138649
133947	1	stim082_animate_mammal_cow_2.png	82	animate	mammal	cow	2	0	2	stars	3	correct	0.961500596138649
134147	1	stim159_inanimate_furniture_table_3.png	159	inanimate	furniture	table	3	0	2	stars	3	correct	0.961500596138649
134347	1	stim091_animate_mammal_kangaroo_3.png	91	animate	mammal	kangaroo	3	0	2	stars	3	correct	0.961500596138649
134547	1	stim144_inanimate_furniture_bed_4.png	144	inanimate	furniture	bed	4	0	2	stars	3	correct	0.961500596138649
134747	1	stim195_inanimate_tools_scissors_3.png	195	inanimate	tools	scissors	3	0	2	stars	3	correct	0.961500596138649
134947	1	stim138_inanimate_fruits_strawberry_2.png	138	inanimate	fruits	strawberry	2	0	2	stars	3	correct	0.961500596138649
135147	1	stim135_inanimate_fruits_pineapple_3.png	135	inanimate	fruits	pineapple	3	0	2	stars	3	correct	0.961500596138649
135347	1	stim008_animate_aquatic_fish_4.png	8	animate	aquatic	fish	4	0	2	stars	3	correct	0.961500596138649
135547	1	stim167_inanimate_plants_cactus_3.png	167	inanimate	plants	cactus	3	0	2	stars	3	correct	0.961500596138649
135747	1	stim145_inanimate_furniture_chair_1.png	145	inanimate	furniture	chair	1	0	2	stars	3	correct	0.961500596138649
135947	1	stim089_animate_mammal_kangaroo_1.png	89	animate	mammal	kangaroo	1	0	2	stars	3	correct	0.961500596138649
136147	1	stim078_animate_insect_grasshopper_2.png	78	animate	insect	grasshopper	2	0	2	stars	3	correct	0.961500596138649
136347	1	stim058_animate_human_sports_2.png	58	animate	human	sports	2	0	2	stars	3	correct	0.961500596138649
136547	1	stim114_inanimate_clothing_shirt_2.png	114	inanimate	clothing	shirt	2	0	2	stars	3	correct	0.961500596138649
136747	1	stim092_animate_mammal_kangaroo_4.png	92	animate	mammal	kangaroo	4	0	2	stars	3	correct	0.961500596138649
136947	1	stim012_animate_aquatic_seahorse_4.png	12	animate	aquatic	seahorse	4	0	2	stars	3	correct	0.961500596138649
137147	1	stim075_animate_insect_dragonfly_3.png	75	animate	insect	dragonfly	3	0	2	stars	3	correct	0.961500596138649
137347	1	stim120_inanimate_clothing_socks_4.png	120	inanimate	clothing	socks	4	0	2	stars	3	correct	0.961500596138649
137547	1	stim064_animate_insect_ant_4.png	64	animate	insect	ant	4	0	2	stars	3	correct	0.961500596138649
137747	1	stim063_animate_insect_ant_3.png	63	animate	insect	ant	3	0	2	stars	3	correct	0.961500596138649
137947	1	stim140_inanimate_fruits_strawberry_4.png	140	inanimate	fruits	strawberry	4	0	2	stars	3	correct	0.961500596138649
138147	1	stim004_animate_aquatic_crab_4.png	4	animate	aquatic	crab	4	0	2	stars	3	correct	0.961500596138649
138347	1	stim056_animate_human_faces_4.png	56	animate	human	faces	4	0	2	stars	3	correct	0.961500596138649
138547	1	stim165_inanimate_plants_cactus_1.png	165	inanimate	plants	cactus	1	0	2	stars	3	correct	0.961500596138649
138747	1	stim019_animate_aquatic_shrimp_3.png	19	animate	aquatic	shrimp	3	0	2	stars	3	correct	0.961500596138649
138947	1	stim046_animate_human_child_2.png	46	animate	human	child	2	0	2	stars	3	correct	0.961500596138649
139147	1	stim121_inanimate_fruits_apple_1.png	121	inanimate	fruits	apple	1	0	2	stars	3	correct	0.961500596138649
139347	1	stim061_animate_insect_ant_1.png	61	animate	insect	ant	1	0	2	stars	3	correct	0.961500596138649
139547	1	stim096_animate_mammal_monkey_4.png	96	animate	mammal	monkey	4	0	2	stars	3	correct	0.961500596138649
139747	1	stim119_inanimate_clothing_socks_3.png	119	inanimate	clothing	socks	3	0	2	stars	3	correct	0.961500596138649
139947	1	stim171_inanimate_plants_sunflower_3.png	171	inanimate	plants	sunflower	3	0	2	stars	3	correct	0.961500596138649
140147	1	stim137_inanimate_fruits_strawberry_1.png	137	inanimate	fruits	strawberry	1	0	2	stars	3	correct	0.961500596138649
140347	1	stim213_targets_shapes_star_1.png	213	targets	shapes	star	1	1	2	stars	3	correct	0.961500596138649
140547	1	stim001_animate_aquatic_crab_1.png	1	animate	aquatic	crab	1	0	2	stars	3	correct	0.961500596138649
140747	1	stim155_inanimate_furniture_sofa_3.png	155	inanimate	furniture	sofa	3	0	2	stars	3	correct	0.961500596138649
140947	1	stim156_inanimate_furniture_sofa_4.png	156	inanimate	furniture	sofa	4	0	2	stars	3	correct	0.961500596138649
141147	1	stim041_animate_human_baby_1.png	41	animate	human	baby	1	0	2	stars	3	correct	0.961500596138649
141347	1	stim025_animate_bird_duck_1.png	25	animate	bird	duck	1	0	2	stars	3	correct	0.961500596138649
141547	1	stim130_inanimate_fruits_grape_2.png	130	inanimate	fruits	grape	2	0	2	stars	3	correct	0.961500596138649
141747	1	stim164_inanimate_plants_bush_4.png	164	inanimate	plants	bush	4	0	2	stars	3	correct	0.961500596138649
141947	1	stim149_inanimate_furniture_closet_1.png	149	inanimate	furniture	closet	1	0	2	stars	3	correct	0.961500596138649
142147	1	stim087_animate_mammal_giraffe_3.png	87	animate	mammal	giraffe	3	0	2	stars	3	correct	0.961500596138649
142347	1	stim030_animate_bird_parrot_2.png	30	animate	bird	parrot	2	0	2	stars	3	correct	0.961500596138649
142547	1	stim126_inanimate_fruits_banana_2.png	126	inanimate	fruits	banana	2	0	2	stars	3	correct	0.961500596138649
142747	1	stim066_animate_insect_bug_2.png	66	animate	insect	bug	2	0	2	stars	3	correct	0.961500596138649
142947	1	stim139_inanimate_fruits_strawberry_3.png	139	inanimate	fruits	strawberry	3	0	2	stars	3	correct	0.961500596138649
143147	1	stim005_animate_aquatic_fish_1.png	5	animate	aquatic	fish	1	0	2	stars	3	correct	0.961500596138649
143347	1	stim146_inanimate_furniture_chair_2.png	146	inanimate	furniture	chair	2	0	2	stars	3	correct	0.961500596138649
143547	1	stim106_inanimate_clothing_hat_2.png	106	inanimate	clothing	hat	2	0	2	stars	3	correct	0.961500596138649
143747	1	stim178_inanimate_plants_tulip_2.png	178	inanimate	plants	tulip	2	0	2	stars	3	correct	0.961500596138649
143947	1	stim031_animate_bird_parrot_3.png	31	animate	bird	parrot	3	0	2	stars	3	correct	0.961500596138649
144147	1	stim124_inanimate_fruits_apple_4.png	124	inanimate	fruits	apple	4	0	2	stars	3	correct	0.961500596138649
144347	1	stim042_animate_human_baby_2.png	42	animate	human	baby	2	0	2	stars	3	correct	0.961500596138649
144547	1	stim007_animate_aquatic_fish_3.png	7	animate	aquatic	fish	3	0	2	stars	3	correct	0.961500596138649
144747	1	stim123_inanimate_fruits_apple_3.png	123	inanimate	fruits	apple	3	0	2	stars	3	correct	0.961500596138649
144947	1	stim094_animate_mammal_monkey_2.png	94	animate	mammal	monkey	2	0	2	stars	3	correct	0.961500596138649
145147	1	stim197_inanimate_tools_wrench_1.png	197	inanimate	tools	wrench	1	0	2	stars	3	correct	0.961500596138649
145347	1	stim062_animate_insect_ant_2.png	62	animate	insect	ant	2	0	2	stars	3	correct	0.961500596138649
145547	1	stim134_inanimate_fruits_pineapple_2.png	134	inanimate	fruits	pineapple	2	0	2	stars	3	correct	0.961500596138649
145747	1	stim147_inanimate_furniture_chair_3.png	147	inanimate	furniture	chair	3	0	2	stars	3	correct	0.961500596138649
145947	1	stim190_inanimate_tools_pan_2.png	190	inanimate	tools	pan	2	0	2	stars	3	correct	0.961500596138649
146147	1	stim013_animate_aquatic_shark_1.png	13	animate	aquatic	shark	1	0	2	stars	3	correct	0.961500596138649
146347	1	stim080_animate_insect_grasshopper_4.png	80	animate	insect	grasshopper	4	0	2	stars	3	correct	0.961500596138649
146547	1	stim163_inanimate_plants_bush_3.png	163	inanimate	plants	bush	3	0	2	stars	3	correct	0.961500596138649
146747	1	stim048_animate_human_child_4.png	48	animate	human	child	4	0	2	stars	3	correct	0.961500596138649
146947	1	stim184_inanimate_tools_broom_4.png	184	inanimate	tools	broom	4	0	2	stars	3	correct	0.961500596138649
147147	1	stim088_animate_mammal_giraffe_4.png	88	animate	mammal	giraffe	4	0	2	stars	3	correct	0.961500596138649
147347	1	stim084_animate_mammal_cow_4.png	84	animate	mammal	cow	4	0	2	stars	3	correct	0.961500596138649
147547	1	stim154_inanimate_furniture_sofa_2.png	154	inanimate	furniture	sofa	2	0	2	stars	3	correct	0.961500596138649
147747	1	stim193_inanimate_tools_scissors_1.png	193	inanimate	tools	scissors	1	0	2	stars	3	correct	0.961500596138649
147947	1	stim015_animate_aquatic_shark_3.png	15	animate	aquatic	shark	3	0	2	stars	3	correct	0.961500596138649
148147	1	stim067_animate_insect_bug_3.png	67	animate	insect	bug	3	0	2	stars	3	correct	0.961500596138649
148347	1	stim069_animate_insect_butterfly_1.png	69	animate	insect	butterfly	1	0	2	stars	3	correct	0.961500596138649
148547	1	stim053_animate_human_faces_1.png	53	animate	human	faces	1	0	2	stars	3	correct	0.961500596138649
148747	1	stim034_animate_bird_peacock_2.png	34	animate	bird	peacock	2	0	2	stars	3	correct	0.961500596138649
148948	1	stim181_inanimate_tools_broom_1.png	181	inanimate	tools	broom	1	0	2	stars	3	correct	0.961500596138649
149148	1	stim179_inanimate_plants_tulip_3.png	179	inanimate	plants	tulip	3	0	2	stars	3	correct	0.961500596138649
149347	1	stim039_animate_bird_penguin_3.png	39	animate	bird	penguin	3	0	2	stars	3	correct	0.961500596138649
149548	1	stim099_animate_mammal_rhino_3.png	99	animate	mammal	rhino	3	0	2	stars	3	correct	0.961500596138649
149748	1	stim173_inanimate_plants_tree_1.png	173	inanimate	plants	tree	1	0	2	stars	3	correct	0.961500596138649
149948	1	stim077_animate_insect_grasshopper_1.png	77	animate	insect	grasshopper	1	0	2	stars	3	correct	0.961500596138649
150148	1	stim111_inanimate_clothing_jeans_3.png	111	inanimate	clothing	jeans	3	0	2	stars	3	correct	0.961500596138649
150348	1	stim011_animate_aquatic_seahorse_3.png	11	animate	aquatic	seahorse	3	0	2	stars	3	correct	0.961500596138649
150548	1	stim116_inanimate_clothing_shirt_4.png	116	inanimate	clothing	shirt	4	0	2	stars	3	correct	0.961500596138649
150748	1	stim055_animate_human_faces_3.png	55	animate	human	faces	3	0	2	stars	3	correct	0.961500596138649
150948	1	stim211_targets_shapes_star_3.png	211	targets	shapes	star	3	1	2	stars	3	correct	0.961500596138649
151148	1	stim115_inanimate_clothing_shirt_3.png	115	inanimate	clothing	shirt	3	0	2	stars	3	correct	0.961500596138649
151348	1	stim002_animate_aquatic_crab_2.png	2	animate	aquatic	crab	2	0	2	stars	3	correct	0.961500596138649
151548	1	stim185_inanimate_tools_hammer_1.png	185	inanimate	tools	hammer	1	0	2	stars	3	correct	0.961500596138649
151748	1	stim170_inanimate_plants_sunflower_2.png	170	inanimate	plants	sunflower	2	0	2	stars	3	correct	0.961500596138649
151948	1	stim188_inanimate_tools_hammer_4.png	188	inanimate	tools	hammer	4	0	2	stars	3	correct	0.961500596138649
152148	1	stim057_animate_human_sports_1.png	57	animate	human	sports	1	0	2	stars	3	correct	0.961500596138649
152348	1	stim153_inanimate_furniture_sofa_1.png	153	inanimate	furniture	sofa	1	0	2	stars	3	correct	0.961500596138649
152548	1	stim189_inanimate_tools_pan_1.png	189	inanimate	tools	pan	1	0	2	stars	3	correct	0.961500596138649
152748	1	stim182_inanimate_tools_broom_2.png	182	inanimate	tools	broom	2	0	2	stars	3	correct	0.961500596138649
152948	1	stim110_inanimate_clothing_jeans_2.png	110	inanimate	clothing	jeans	2	0	2	stars	3	correct	0.961500596138649
153148	1	stim047_animate_human_child_3.png	47	animate	human	child	3	0	2	stars	3	correct	0.961500596138649
153348	1	stim151_inanimate_furniture_closet_3.png	151	inanimate	furniture	closet	3	0	2	stars	3	correct	0.961500596138649
153548	1	stim059_animate_human_sports_3.png	59	animate	human	sports	3	0	2	stars	3	correct	0.961500596138649
153748	1	stim024_animate_bird_chicken_4.png	24	animate	bird	chicken	4	0	2	stars	3	correct	0.961500596138649
153948	1	stim107_inanimate_clothing_hat_3.png	107	inanimate	clothing	hat	3	0	2	stars	3	correct	0.961500596138649
154148	1	stim003_animate_aquatic_crab_3.png	3	animate	aquatic	crab	3	0	2	stars	3	correct	0.961500596138649
154348	1	stim051_animate_human_clown_3.png	51	animate	human	clown	3	0	2	stars	3	correct	0.961500596138649
154548	1	stim168_inanimate_plants_cactus_4.png	168	inanimate	plants	cactus	4	0	2	stars	3	correct	0.961500596138649
154748	1	stim068_animate_insect_bug_4.png	68	animate	insect	bug	4	0	2	stars	3	correct	0.961500596138649
154948	1	stim014_animate_aquatic_shark_2.png	14	animate	aquatic	shark	2	0	2	stars	3	correct	0.961500596138649
155148	1	stim172_inanimate_plants_sunflower_4.png	172	inanimate	plants	sunflower	4	0	2	stars	3	correct	0.961500596138649
155348	1	stim200_inanimate_tools_wrench_4.png	200	inanimate	tools	wrench	4	0	2	stars	3	correct	0.961500596138649
155548	1	stim079_animate_insect_grasshopper_3.png	79	animate	insect	grasshopper	3	0	2	stars	3	correct	0.961500596138649
155748	1	stim010_animate_aquatic_seahorse_2.png	10	animate	aquatic	seahorse	2	0	2	stars	3	correct	0.961500596138649
155948	1	stim166_inanimate_plants_cactus_2.png	166	inanimate	plants	cactus	2	0	2	stars	3	correct	0.961500596138649
156148	1	stim160_inanimate_furniture_table_4.png	160	inanimate	furniture	table	4	0	2	stars	3	correct	0.961500596138649
156348	1	stim180_inanimate_plants_tulip_4.png	180	inanimate	plants	tulip	4	0	2	stars	3	correct	0.961500596138649
156548	1	stim040_animate_bird_penguin_4.png	40	animate	bird	penguin	4	0	2	stars	3	correct	0.961500596138649
156748	1	stim081_animate_mammal_cow_1.png	81	animate	mammal	cow	1	0	2	stars	3	correct	0.961500596138649
156948	1	stim054_animate_human_faces_2.png	54	animate	human	faces	2	0	2	stars	3	correct	0.961500596138649
157148	1	stim022_animate_bird_chicken_2.png	22	animate	bird	chicken	2	0	2	stars	3	correct	0.961500596138649
157348	1	stim177_inanimate_plants_tulip_1.png	177	inanimate	plants	tulip	1	0	2	stars	3	correct	0.961500596138649
157548	1	stim028_animate_bird_duck_4.png	28	animate	bird	duck	4	0	2	stars	3	correct	0.961500596138649
157748	1	stim020_animate_aquatic_shrimp_4.png	20	animate	aquatic	shrimp	4	0	2	stars	3	correct	0.961500596138649
157948	1	stim095_animate_mammal_monkey_3.png	95	animate	mammal	monkey	3	0	2	stars	3	correct	0.961500596138649
158148	1	stim009_animate_aquatic_seahorse_1.png	9	animate	aquatic	seahorse	1	0	2	stars	3	correct	0.961500596138649
158348	1	stim050_animate_human_clown_2.png	50	animate	human	clown	2	0	2	stars	3	correct	0.961500596138649
158548	1	stim037_animate_bird_penguin_1.png	37	animate	bird	penguin	1	0	2	stars	3	correct	0.961500596138649
158748	1	stim017_animate_aquatic_shrimp_1.png	17	animate	aquatic	shrimp	1	0	2	stars	3	correct	0.961500596138649
158948	1	stim016_animate_aquatic_shark_4.png	16	animate	aquatic	shark	4	0	2	stars	3	correct	0.961500596138649
159148	1	stim043_animate_human_baby_3.png	43	animate	human	baby	3	0	2	stars	3	correct	0.961500596138649
159348	1	stim192_inanimate_tools_pan_4.png	192	inanimate	tools	pan	4	0	2	stars	3	correct	0.961500596138649
159548	1	stim199_inanimate_tools_wrench_3.png	199	inanimate	tools	wrench	3	0	2	stars	3	correct	0.961500596138649
159748	1	stim072_animate_insect_butterfly_4.png	72	animate	insect	butterfly	4	0	2	stars	3	correct	0.961500596138649
159948	1	stim216_targets_shapes_star_4.png	216	targets	shapes	star	4	1	2	stars	3	correct	0.961500596138649
160148	1	stim158_inanimate_furniture_table_2.png	158	inanimate	furniture	table	2	0	2	stars	3	correct	0.961500596138649
160348	1	stim125_inanimate_fruits_banana_1.png	125	inanimate	fruits	banana	1	0	2	stars	3	correct	0.961500596138649
160548	1	stim112_inanimate_clothing_jeans_4.png	112	inanimate	clothing	jeans	4	0	2	stars	3	correct	0.961500596138649
160748	1	stim100_animate_mammal_rhino_4.png	100	animate	mammal	rhino	4	0	2	stars	3	correct	0.961500596138649
160948	1	stim194_inanimate_tools_scissors_2.png	194	inanimate	tools	scissors	2	0	2	stars	3	correct	0.961500596138649
161148	1	stim148_inanimate_furniture_chair_4.png	148	inanimate	furniture	chair	4	0	2	stars	3	correct	0.961500596138649
161348	1	stim118_inanimate_clothing_socks_2.png	118	inanimate	clothing	socks	2	0	2	stars	3	correct	0.961500596138649
161548	1	stim108_inanimate_clothing_hat_4.png	108	inanimate	clothing	hat	4	0	2	stars	3	correct	0.961500596138649
161748	1	stim127_inanimate_fruits_banana_3.png	127	inanimate	fruits	banana	3	0	2	stars	3	correct	0.961500596138649
161948	1	stim101_inanimate_clothing_gloves_1.png	101	inanimate	clothing	gloves	1	0	2	stars	3	correct	0.961500596138649
162148	1	stim097_animate_mammal_rhino_1.png	97	animate	mammal	rhino	1	0	2	stars	3	correct	0.961500596138649
162348	1	stim044_animate_human_baby_4.png	44	animate	human	baby	4	0	2	stars	3	correct	0.961500596138649
162548	1	stim117_inanimate_clothing_socks_1.png	117	inanimate	clothing	socks	1	0	2	stars	3	correct	0.961500596138649
162748	1	stim104_inanimate_clothing_gloves_4.png	104	inanimate	clothing	gloves	4	0	2	stars	3	correct	0.961500596138649
162948	1	stim187_inanimate_tools_hammer_3.png	187	inanimate	tools	hammer	3	0	2	stars	3	correct	0.961500596138649
163148	1	stim070_animate_insect_butterfly_2.png	70	animate	insect	butterfly	2	0	2	stars	3	correct	0.961500596138649
163348	1	stim198_inanimate_tools_wrench_2.png	198	inanimate	tools	wrench	2	0	2	stars	3	correct	0.961500596138649
163548	1	stim083_animate_mammal_cow_3.png	83	animate	mammal	cow	3	0	2	stars	3	correct	0.961500596138649
163748	1	stim065_animate_insect_bug_1.png	65	animate	insect	bug	1	0	2	stars	3	correct	0.961500596138649
163948	1	stim122_inanimate_fruits_apple_2.png	122	inanimate	fruits	apple	2	0	2	stars	3	correct	0.961500596138649
164148	1	stim052_animate_human_clown_4.png	52	animate	human	clown	4	0	2	stars	3	correct	0.961500596138649
164348	1	stim036_animate_bird_peacock_4.png	36	animate	bird	peacock	4	0	2	stars	3	correct	0.961500596138649
164548	1	stim150_inanimate_furniture_closet_2.png	150	inanimate	furniture	closet	2	0	2	stars	3	correct	0.961500596138649
164748	1	stim133_inanimate_fruits_pineapple_1.png	133	inanimate	fruits	pineapple	1	0	2	stars	3	correct	0.961500596138649
164948	1	stim085_animate_mammal_giraffe_1.png	85	animate	mammal	giraffe	1	0	2	stars	3	correct	0.961500596138649
165148	1	stim176_inanimate_plants_tree_4.png	176	inanimate	plants	tree	4	0	2	stars	3	correct	0.961500596138649
165348	1	stim131_inanimate_fruits_grape_3.png	131	inanimate	fruits	grape	3	0	2	stars	3	correct	0.961500596138649
165548	1	stim132_inanimate_fruits_grape_4.png	132	inanimate	fruits	grape	4	0	2	stars	3	correct	0.961500596138649
165748	1	stim090_animate_mammal_kangaroo_2.png	90	animate	mammal	kangaroo	2	0	2	stars	3	correct	0.961500596138649
165948	1	stim141_inanimate_furniture_bed_1.png	141	inanimate	furniture	bed	1	0	2	stars	3	correct	0.961500596138649
166148	1	stim093_animate_mammal_monkey_1.png	93	animate	mammal	monkey	1	0	2	stars	3	correct	0.961500596138649
166348	1	stim032_animate_bird_parrot_4.png	32	animate	bird	parrot	4	0	2	stars	3	correct	0.961500596138649
166548	1	stim175_inanimate_plants_tree_3.png	175	inanimate	plants	tree	3	0	2	stars	3	correct	0.961500596138649
166748	1	stim073_animate_insect_dragonfly_1.png	73	animate	insect	dragonfly	1	0	2	stars	3	correct	0.961500596138649
166948	1	stim076_animate_insect_dragonfly_4.png	76	animate	insect	dragonfly	4	0	2	stars	3	correct	0.961500596138649
167148	1	stim038_animate_bird_penguin_2.png	38	animate	bird	penguin	2	0	2	stars	3	correct	0.961500596138649
167348	1	stim086_animate_mammal_giraffe_2.png	86	animate	mammal	giraffe	2	0	2	stars	3	correct	0.961500596138649
167548	1	stim103_inanimate_clothing_gloves_3.png	103	inanimate	clothing	gloves	3	0	2	stars	3	correct	0.961500596138649
167748	1	stim029_animate_bird_parrot_1.png	29	animate	bird	parrot	1	0	2	stars	3	correct	0.961500596138649
167948	1	stim035_animate_bird_peacock_3.png	35	animate	bird	peacock	3	0	2	stars	3	correct	0.961500596138649
168148	1	stim142_inanimate_furniture_bed_2.png	142	inanimate	furniture	bed	2	0	2	stars	3	correct	0.961500596138649
168348	1	stim161_inanimate_plants_bush_1.png	161	inanimate	plants	bush	1	0	2	stars	3	correct	0.961500596138649
168548	1	stim136_inanimate_fruits_pineapple_4.png	136	inanimate	fruits	pineapple	4	0	2	stars	3	correct	0.961500596138649
168748	1	stim021_animate_bird_chicken_1.png	21	animate	bird	chicken	1	0	2	stars	3	correct	0.961500596138649
168948	1	stim105_inanimate_clothing_hat_1.png	105	inanimate	clothing	hat	1	0	2	stars	3	correct	0.961500596138649
169148	1	stim152_inanimate_furniture_closet_4.png	152	inanimate	furniture	closet	4	0	2	stars	3	correct	0.961500596138649
169348	1	stim060_animate_human_sports_4.png	60	animate	human	sports	4	0	2	stars	3	correct	0.961500596138649
169548	1	stim033_animate_bird_peacock_1.png	33	animate	bird	peacock	1	0	2	stars	3	correct	0.961500596138649
169748	1	stim026_animate_bird_duck_2.png	26	animate	bird	duck	2	0	2	stars	3	correct	0.961500596138649
169948	1	stim006_animate_aquatic_fish_2.png	6	animate	aquatic	fish	2	0	2	stars	3	correct	0.961500596138649
170148	1	stim129_inanimate_fruits_grape_1.png	129	inanimate	fruits	grape	1	0	2	stars	3	correct	0.961500596138649
170348	1	stim027_animate_bird_duck_3.png	27	animate	bird	duck	3	0	2	stars	3	correct	0.961500596138649
170548	1	stim162_inanimate_plants_bush_2.png	162	inanimate	plants	bush	2	0	2	stars	3	correct	0.961500596138649
170748	1	stim023_animate_bird_chicken_3.png	23	animate	bird	chicken	3	0	2	stars	3	correct	0.961500596138649
177631	1	stim002_animate_aquatic_crab_2.png	2	animate	aquatic	crab	2	0	3	stars	2	correct	0.650299031869508
177831	1	stim045_animate_human_child_1.png	45	animate	human	child	1	0	3	stars	2	correct	0.650299031869508
178032	1	stim037_animate_bird_penguin_1.png	37	animate	bird	penguin	1	0	3	stars	2	correct	0.650299031869508
178231	1	stim138_inanimate_fruits_strawberry_2.png	138	inanimate	fruits	strawberry	2	0	3	stars	2	correct	0.650299031869508
178431	1	stim066_animate_insect_bug_2.png	66	animate	insect	bug	2	0	3	stars	2	correct	0.650299031869508
178632	1	stim024_animate_bird_chicken_4.png	24	animate	bird	chicken	4	0	3	stars	2	correct	0.650299031869508
178831	1	stim180_inanimate_plants_tulip_4.png	180	inanimate	plants	tulip	4	0	3	stars	2	correct	0.650299031869508
179032	1	stim033_animate_bird_peacock_1.png	33	animate	bird	peacock	1	0	3	stars	2	correct	0.650299031869508
179232	1	stim158_inanimate_furniture_table_2.png	158	inanimate	furniture	table	2	0	3	stars	2	correct	0.650299031869508
179432	1	stim003_animate_aquatic_crab_3.png	3	animate	aquatic	crab	3	0	3	stars	2	correct	0.650299031869508
179632	1	stim173_inanimate_plants_tree_1.png	173	inanimate	plants	tree	1	0	3	stars	2	correct	0.650299031869508
179832	1	stim063_animate_insect_ant_3.png	63	animate	insect	ant	3	0	3	stars	2	correct	0.650299031869508
180032	1	stim126_inanimate_fruits_banana_2.png	126	inanimate	fruits	banana	2	0	3	stars	2	correct	0.650299031869508
180232	1	stim107_inanimate_clothing_hat_3.png	107	inanimate	clothing	hat	3	0	3	stars	2	correct	0.650299031869508
180432	1	stim120_inanimate_clothing_socks_4.png	120	inanimate	clothing	socks	4	0	3	stars	2	correct	0.650299031869508
180632	1	stim035_animate_bird_peacock_3.png	35	animate	bird	peacock	3	0	3	stars	2	correct	0.650299031869508
180832	1	stim025_animate_bird_duck_1.png	25	animate	bird	duck	1	0	3	stars	2	correct	0.650299031869508
181032	1	stim044_animate_human_baby_4.png	44	animate	human	baby	4	0	3	stars	2	correct	0.650299031869508
181232	1	stim061_animate_insect_ant_1.png	61	animate	insect	ant	1	0	3	stars	2	correct	0.650299031869508
181432	1	stim137_inanimate_fruits_strawberry_1.png	137	inanimate	fruits	strawberry	1	0	3	stars	2	correct	0.650299031869508
181632	1	stim053_animate_human_faces_1.png	53	animate	human	faces	1	0	3	stars	2	correct	0.650299031869508
181832	1	stim128_inanimate_fruits_banana_4.png	128	inanimate	fruits	banana	4	0	3	stars	2	correct	0.650299031869508
182032	1	stim041_animate_human_baby_1.png	41	animate	human	baby	1	0	3	stars	2	correct	0.650299031869508
182232	1	stim026_animate_bird_duck_2.png	26	animate	bird	duck	2	0	3	stars	2	correct	0.650299031869508
182432	1	stim175_inanimate_plants_tree_3.png	175	inanimate	plants	tree	3	0	3	stars	2	correct	0.650299031869508
182632	1	stim147_inanimate_furniture_chair_3.png	147	inanimate	furniture	chair	3	0	3	stars	2	correct	0.650299031869508
182832	1	stim088_animate_mammal_giraffe_4.png	88	animate	mammal	giraffe	4	0	3	stars	2	correct	0.650299031869508
183032	1	stim006_animate_aquatic_fish_2.png	6	animate	aquatic	fish	2	0	3	stars	2	correct	0.650299031869508
183232	1	stim013_animate_aquatic_shark_1.png	13	animate	aquatic	shark	1	0	3	stars	2	correct	0.650299031869508
183432	1	stim172_inanimate_plants_sunflower_4.png	172	inanimate	plants	sunflower	4	0	3	stars	2	correct	0.650299031869508
183632	1	stim109_inanimate_clothing_jeans_1.png	109	inanimate	clothing	jeans	1	0	3	stars	2	correct	0.650299031869508
183832	1	stim157_inanimate_furniture_table_1.png	157	inanimate	furniture	table	1	0	3	stars	2	correct	0.650299031869508
184032	1	stim022_animate_bird_chicken_2.png	22	animate	bird	chicken	2	0	3	stars	2	correct	0.650299031869508
184232	1	stim057_animate_human_sports_1.png	57	animate	human	sports	1	0	3	stars	2	correct	0.650299031869508
184432	1	stim185_inanimate_tools_hammer_1.png	185	inanimate	tools	hammer	1	0	3	stars	2	correct	0.650299031869508
184632	1	stim112_inanimate_clothing_jeans_4.png	112	inanimate	clothing	jeans	4	0	3	stars	2	correct	0.650299031869508
184832	1	stim110_inanimate_clothing_jeans_2.png	110	inanimate	clothing	jeans	2	0	3	stars	2	correct	0.650299031869508
185032	1	stim099_animate_mammal_rhino_3.png	99	animate	mammal	rhino	3	0	3	stars	2	correct	0.650299031869508
185232	1	stim097_animate_mammal_rhino_1.png	97	animate	mammal	rhino	1	0	3	stars	2	correct	0.650299031869508
185432	1	stim117_inanimate_clothing_socks_1.png	117	inanimate	clothing	socks	1	0	3	stars	2	correct	0.650299031869508
185632	1	stim125_inanimate_fruits_banana_1.png	125	inanimate	fruits	banana	1	0	3	stars	2	correct	0.650299031869508
185832	1	stim142_inanimate_furniture_bed_2.png	142	inanimate	furniture	bed	2	0	3	stars	2	correct	0.650299031869508
186032	1	stim069_animate_insect_butterfly_1.png	69	animate	insect	butterfly	1	0	3	stars	2	correct	0.650299031869508
186232	1	stim171_inanimate_plants_sunflower_3.png	171	inanimate	plants	sunflower	3	0	3	stars	2	correct	0.650299031869508
186432	1	stim052_animate_human_clown_4.png	52	animate	human	clown	4	0	3	stars	2	correct	0.650299031869508
186632	1	stim034_animate_bird_peacock_2.png	34	animate	bird	peacock	2	0	3	stars	2	correct	0.650299031869508
186832	1	stim131_inanimate_fruits_grape_3.png	131	inanimate	fruits	grape	3	0	3	stars	2	correct	0.650299031869508
187032	1	stim081_animate_mammal_cow_1.png	81	animate	mammal	cow	1	0	3	stars	2	correct	0.650299031869508
187232	1	stim161_inanimate_plants_bush_1.png	161	inanimate	plants	bush	1	0	3	stars	2	correct	0.650299031869508
187432	1	stim087_animate_mammal_giraffe_3.png	87	animate	mammal	giraffe	3	0	3	stars	2	correct	0.650299031869508
187632	1	stim091_animate_mammal_kangaroo_3.png	91	animate	mammal	kangaroo	3	0	3	stars	2	correct	0.650299031869508
187832	1	stim062_animate_insect_ant_2.png	62	animate	insect	ant	2	0	3	stars	2	correct	0.650299031869508
188032	1	stim151_inanimate_furniture_closet_3.png	151	inanimate	furniture	closet	3	0	3	stars	2	correct	0.650299031869508
188232	1	stim076_animate_insect_dragonfly_4.png	76	animate	insect	dragonfly	4	0	3	stars	2	correct	0.650299031869508
188432	1	stim031_animate_bird_parrot_3.png	31	animate	bird	parrot	3	0	3	stars	2	correct	0.650299031869508
188632	1	stim168_inanimate_plants_cactus_4.png	168	inanimate	plants	cactus	4	0	3	stars	2	correct	0.650299031869508
188832	1	stim049_animate_human_clown_1.png	49	animate	human	clown	1	0	3	stars	2	correct	0.650299031869508
189032	1	stim195_inanimate_tools_scissors_3.png	195	inanimate	tools	scissors	3	0	3	stars	2	correct	0.650299031869508
189232	1	stim040_animate_bird_penguin_4.png	40	animate	bird	penguin	4	0	3	stars	2	correct	0.650299031869508
189432	1	stim145_inanimate_furniture_chair_1.png	145	inanimate	furniture	chair	1	0	3	stars	2	correct	0.650299031869508
189632	1	stim038_animate_bird_penguin_2.png	38	animate	bird	penguin	2	0	3	stars	2	correct	0.650299031869508
189832	1	stim189_inanimate_tools_pan_1.png	189	inanimate	tools	pan	1	0	3	stars	2	correct	0.650299031869508
190032	1	stim004_animate_aquatic_crab_4.png	4	animate	aquatic	crab	4	0	3	stars	2	correct	0.650299031869508
190232	1	stim139_inanimate_fruits_strawberry_3.png	139	inanimate	fruits	strawberry	3	0	3	stars	2	correct	0.650299031869508
190432	1	stim187_inanimate_tools_hammer_3.png	187	inanimate	tools	hammer	3	0	3	stars	2	correct	0.650299031869508
190632	1	stim156_inanimate_furniture_sofa_4.png	156	inanimate	furniture	sofa	4	0	3	stars	2	correct	0.650299031869508
190832	1	stim096_animate_mammal_monkey_4.png	96	animate	mammal	monkey	4	0	3	stars	2	correct	0.650299031869508
191032	1	stim159_inanimate_furniture_table_3.png	159	inanimate	furniture	table	3	0	3	stars	2	correct	0.650299031869508
191232	1	stim166_inanimate_plants_cactus_2.png	166	inanimate	plants	cactus	2	0	3	stars	2	correct	0.650299031869508
191432	1	stim155_inanimate_furniture_sofa_3.png	155	inanimate	furniture	sofa	3	0	3	stars	2	correct	0.650299031869508
191632	1	stim089_animate_mammal_kangaroo_1.png	89	animate	mammal	kangaroo	1	0	3	stars	2	correct	0.650299031869508
191832	1	stim132_inanimate_fruits_grape_4.png	132	inanimate	fruits	grape	4	0	3	stars	2	correct	0.650299031869508
192032	1	stim055_animate_human_faces_3.png	55	animate	human	faces	3	0	3	stars	2	correct	0.650299031869508
192232	1	stim084_animate_mammal_cow_4.png	84	animate	mammal	cow	4	0	3	stars	2	correct	0.650299031869508
192432	1	stim192_inanimate_tools_pan_4.png	192	inanimate	tools	pan	4	0	3	stars	2	correct	0.650299031869508
192632	1	stim092_animate_mammal_kangaroo_4.png	92	animate	mammal	kangaroo	4	0	3	stars	2	correct	0.650299031869508
192832	1	stim058_animate_human_sports_2.png	58	animate	human	sports	2	0	3	stars	2	correct	0.650299031869508
193032	1	stim183_inanimate_tools_broom_3.png	183	inanimate	tools	broom	3	0	3	stars	2	correct	0.650299031869508
193232	1	stim146_inanimate_furniture_chair_2.png	146	inanimate	furniture	chair	2	0	3	stars	2	correct	0.650299031869508
193432	1	stim144_inanimate_furniture_bed_4.png	144	inanimate	furniture	bed	4	0	3	stars	2	correct	0.650299031869508
193632	1	stim028_animate_bird_duck_4.png	28	animate	bird	duck	4	0	3	stars	2	correct	0.650299031869508
193832	1	stim212_targets_shapes_star_4.png	212	targets	shapes	star	4	1	3	stars	2	correct	0.650299031869508
194032	1	stim082_animate_mammal_cow_2.png	82	animate	mammal	cow	2	0	3	stars	2	correct	0.650299031869508
194232	1	stim068_animate_insect_bug_4.png	68	animate	insect	bug	4	0	3	stars	2	correct	0.650299031869508
194432	1	stim073_animate_insect_dragonfly_1.png	73	animate	insect	dragonfly	1	0	3	stars	2	correct	0.650299031869508
194632	1	stim153_inanimate_furniture_sofa_1.png	153	inanimate	furniture	sofa	1	0	3	stars	2	correct	0.650299031869508
194832	1	stim042_animate_human_baby_2.png	42	animate	human	baby	2	0	3	stars	2	correct	0.650299031869508
195032	1	stim016_animate_aquatic_shark_4.png	16	animate	aquatic	shark	4	0	3	stars	2	correct	0.650299031869508
195232	1	stim102_inanimate_clothing_gloves_2.png	102	inanimate	clothing	gloves	2	0	3	stars	2	correct	0.650299031869508
195432	1	stim060_animate_human_sports_4.png	60	animate	human	sports	4	0	3	stars	2	correct	0.650299031869508
195632	1	stim072_animate_insect_butterfly_4.png	72	animate	insect	butterfly	4	0	3	stars	2	correct	0.650299031869508
195832	1	stim067_animate_insect_bug_3.png	67	animate	insect	bug	3	0	3	stars	2	correct	0.650299031869508
196032	1	stim018_animate_aquatic_shrimp_2.png	18	animate	aquatic	shrimp	2	0	3	stars	2	correct	0.650299031869508
196232	1	stim008_animate_aquatic_fish_4.png	8	animate	aquatic	fish	4	0	3	stars	2	correct	0.650299031869508
196432	1	stim119_inanimate_clothing_socks_3.png	119	inanimate	clothing	socks	3	0	3	stars	2	correct	0.650299031869508
196632	1	stim103_inanimate_clothing_gloves_3.png	103	inanimate	clothing	gloves	3	0	3	stars	2	correct	0.650299031869508
196832	1	stim048_animate_human_child_4.png	48	animate	human	child	4	0	3	stars	2	correct	0.650299031869508
197032	1	stim065_animate_insect_bug_1.png	65	animate	insect	bug	1	0	3	stars	2	correct	0.650299031869508
197232	1	stim046_animate_human_child_2.png	46	animate	human	child	2	0	3	stars	2	correct	0.650299031869508
197432	1	stim021_animate_bird_chicken_1.png	21	animate	bird	chicken	1	0	3	stars	2	correct	0.650299031869508
197632	1	stim007_animate_aquatic_fish_3.png	7	animate	aquatic	fish	3	0	3	stars	2	correct	0.650299031869508
197832	1	stim184_inanimate_tools_broom_4.png	184	inanimate	tools	broom	4	0	3	stars	2	correct	0.650299031869508
198032	1	stim105_inanimate_clothing_hat_1.png	105	inanimate	clothing	hat	1	0	3	stars	2	correct	0.650299031869508
198232	1	stim193_inanimate_tools_scissors_1.png	193	inanimate	tools	scissors	1	0	3	stars	2	correct	0.650299031869508
198432	1	stim001_animate_aquatic_crab_1.png	1	animate	aquatic	crab	1	0	3	stars	2	correct	0.650299031869508
198632	1	stim030_animate_bird_parrot_2.png	30	animate	bird	parrot	2	0	3	stars	2	correct	0.650299031869508
198832	1	stim164_inanimate_plants_bush_4.png	164	inanimate	plants	bush	4	0	3	stars	2	correct	0.650299031869508
199032	1	stim114_inanimate_clothing_shirt_2.png	114	inanimate	clothing	shirt	2	0	3	stars	2	correct	0.650299031869508
199232	1	stim163_inanimate_plants_bush_3.png	163	inanimate	plants	bush	3	0	3	stars	2	correct	0.650299031869508
199432	1	stim108_inanimate_clothing_hat_4.png	108	inanimate	clothing	hat	4	0	3	stars	2	correct	0.650299031869508
199632	1	stim135_inanimate_fruits_pineapple_3.png	135	inanimate	fruits	pineapple	3	0	3	stars	2	correct	0.650299031869508
199832	1	stim182_inanimate_tools_broom_2.png	182	inanimate	tools	broom	2	0	3	stars	2	correct	0.650299031869508
200032	1	stim177_inanimate_plants_tulip_1.png	177	inanimate	plants	tulip	1	0	3	stars	2	correct	0.650299031869508
200232	1	stim154_inanimate_furniture_sofa_2.png	154	inanimate	furniture	sofa	2	0	3	stars	2	correct	0.650299031869508
200432	1	stim050_animate_human_clown_2.png	50	animate	human	clown	2	0	3	stars	2	correct	0.650299031869508
200632	1	stim047_animate_human_child_3.png	47	animate	human	child	3	0	3	stars	2	correct	0.650299031869508
200832	1	stim029_animate_bird_parrot_1.png	29	animate	bird	parrot	1	0	3	stars	2	correct	0.650299031869508
201032	1	stim017_animate_aquatic_shrimp_1.png	17	animate	aquatic	shrimp	1	0	3	stars	2	correct	0.650299031869508
201232	1	stim191_inanimate_tools_pan_3.png	191	inanimate	tools	pan	3	0	3	stars	2	correct	0.650299031869508
201432	1	stim014_animate_aquatic_shark_2.png	14	animate	aquatic	shark	2	0	3	stars	2	correct	0.650299031869508
201632	1	stim165_inanimate_plants_cactus_1.png	165	inanimate	plants	cactus	1	0	3	stars	2	correct	0.650299031869508
201832	1	stim186_inanimate_tools_hammer_2.png	186	inanimate	tools	hammer	2	0	3	stars	2	correct	0.650299031869508
202032	1	stim011_animate_aquatic_seahorse_3.png	11	animate	aquatic	seahorse	3	0	3	stars	2	correct	0.650299031869508
202232	1	stim127_inanimate_fruits_banana_3.png	127	inanimate	fruits	banana	3	0	3	stars	2	correct	0.650299031869508
202432	1	stim079_animate_insect_grasshopper_3.png	79	animate	insect	grasshopper	3	0	3	stars	2	correct	0.650299031869508
202632	1	stim194_inanimate_tools_scissors_2.png	194	inanimate	tools	scissors	2	0	3	stars	2	correct	0.650299031869508
202832	1	stim209_targets_shapes_star_1.png	209	targets	shapes	star	1	1	3	stars	2	correct	0.650299031869508
203032	1	stim023_animate_bird_chicken_3.png	23	animate	bird	chicken	3	0	3	stars	2	correct	0.650299031869508
203232	1	stim064_animate_insect_ant_4.png	64	animate	insect	ant	4	0	3	stars	2	correct	0.650299031869508
203432	1	stim123_inanimate_fruits_apple_3.png	123	inanimate	fruits	apple	3	0	3	stars	2	correct	0.650299031869508
203632	1	stim094_animate_mammal_monkey_2.png	94	animate	mammal	monkey	2	0	3	stars	2	correct	0.650299031869508
203832	1	stim054_animate_human_faces_2.png	54	animate	human	faces	2	0	3	stars	2	correct	0.650299031869508
204032	1	stim019_animate_aquatic_shrimp_3.png	19	animate	aquatic	shrimp	3	0	3	stars	2	correct	0.650299031869508
204232	1	stim015_animate_aquatic_shark_3.png	15	animate	aquatic	shark	3	0	3	stars	2	correct	0.650299031869508
204432	1	stim051_animate_human_clown_3.png	51	animate	human	clown	3	0	3	stars	2	correct	0.650299031869508
204632	1	stim136_inanimate_fruits_pineapple_4.png	136	inanimate	fruits	pineapple	4	0	3	stars	2	correct	0.650299031869508
204832	1	stim027_animate_bird_duck_3.png	27	animate	bird	duck	3	0	3	stars	2	correct	0.650299031869508
205032	1	stim196_inanimate_tools_scissors_4.png	196	inanimate	tools	scissors	4	0	3	stars	2	correct	0.650299031869508
205232	1	stim086_animate_mammal_giraffe_2.png	86	animate	mammal	giraffe	2	0	3	stars	2	correct	0.650299031869508
205432	1	stim188_inanimate_tools_hammer_4.png	188	inanimate	tools	hammer	4	0	3	stars	2	correct	0.650299031869508
205632	1	stim012_animate_aquatic_seahorse_4.png	12	animate	aquatic	seahorse	4	0	3	stars	2	correct	0.650299031869508
205832	1	stim095_animate_mammal_monkey_3.png	95	animate	mammal	monkey	3	0	3	stars	2	correct	0.650299031869508
206032	1	stim111_inanimate_clothing_jeans_3.png	111	inanimate	clothing	jeans	3	0	3	stars	2	correct	0.650299031869508
206232	1	stim074_animate_insect_dragonfly_2.png	74	animate	insect	dragonfly	2	0	3	stars	2	correct	0.650299031869508
206432	1	stim134_inanimate_fruits_pineapple_2.png	134	inanimate	fruits	pineapple	2	0	3	stars	2	correct	0.650299031869508
206632	1	stim075_animate_insect_dragonfly_3.png	75	animate	insect	dragonfly	3	0	3	stars	2	correct	0.650299031869508
206832	1	stim167_inanimate_plants_cactus_3.png	167	inanimate	plants	cactus	3	0	3	stars	2	correct	0.650299031869508
207032	1	stim115_inanimate_clothing_shirt_3.png	115	inanimate	clothing	shirt	3	0	3	stars	2	correct	0.650299031869508
207232	1	stim178_inanimate_plants_tulip_2.png	178	inanimate	plants	tulip	2	0	3	stars	2	correct	0.650299031869508
207432	1	stim121_inanimate_fruits_apple_1.png	121	inanimate	fruits	apple	1	0	3	stars	2	correct	0.650299031869508
207632	1	stim124_inanimate_fruits_apple_4.png	124	inanimate	fruits	apple	4	0	3	stars	2	correct	0.650299031869508
207832	1	stim129_inanimate_fruits_grape_1.png	129	inanimate	fruits	grape	1	0	3	stars	2	correct	0.650299031869508
208032	1	stim020_animate_aquatic_shrimp_4.png	20	animate	aquatic	shrimp	4	0	3	stars	2	correct	0.650299031869508
208232	1	stim098_animate_mammal_rhino_2.png	98	animate	mammal	rhino	2	0	3	stars	2	correct	0.650299031869508
208432	1	stim130_inanimate_fruits_grape_2.png	130	inanimate	fruits	grape	2	0	3	stars	2	correct	0.650299031869508
208632	1	stim101_inanimate_clothing_gloves_1.png	101	inanimate	clothing	gloves	1	0	3	stars	2	correct	0.650299031869508
208832	1	stim043_animate_human_baby_3.png	43	animate	human	baby	3	0	3	stars	2	correct	0.650299031869508
209032	1	stim140_inanimate_fruits_strawberry_4.png	140	inanimate	fruits	strawberry	4	0	3	stars	2	correct	0.650299031869508
209232	1	stim104_inanimate_clothing_gloves_4.png	104	inanimate	clothing	gloves	4	0	3	stars	2	correct	0.650299031869508
209432	1	stim080_animate_insect_grasshopper_4.png	80	animate	insect	grasshopper	4	0	3	stars	2	correct	0.650299031869508
209632	1	stim039_animate_bird_penguin_3.png	39	animate	bird	penguin	3	0	3	stars	2	correct	0.650299031869508
209832	1	stim197_inanimate_tools_wrench_1.png	197	inanimate	tools	wrench	1	0	3	stars	2	correct	0.650299031869508
210032	1	stim056_animate_human_faces_4.png	56	animate	human	faces	4	0	3	stars	2	correct	0.650299031869508
210232	1	stim176_inanimate_plants_tree_4.png	176	inanimate	plants	tree	4	0	3	stars	2	correct	0.650299031869508
210432	1	stim200_inanimate_tools_wrench_4.png	200	inanimate	tools	wrench	4	0	3	stars	2	correct	0.650299031869508
210632	1	stim106_inanimate_clothing_hat_2.png	106	inanimate	clothing	hat	2	0	3	stars	2	correct	0.650299031869508
210832	1	stim071_animate_insect_butterfly_3.png	71	animate	insect	butterfly	3	0	3	stars	2	correct	0.650299031869508
211032	1	stim118_inanimate_clothing_socks_2.png	118	inanimate	clothing	socks	2	0	3	stars	2	correct	0.650299031869508
211232	1	stim059_animate_human_sports_3.png	59	animate	human	sports	3	0	3	stars	2	correct	0.650299031869508
211432	1	stim149_inanimate_furniture_closet_1.png	149	inanimate	furniture	closet	1	0	3	stars	2	correct	0.650299031869508
211632	1	stim133_inanimate_fruits_pineapple_1.png	133	inanimate	fruits	pineapple	1	0	3	stars	2	correct	0.650299031869508
211832	1	stim174_inanimate_plants_tree_2.png	174	inanimate	plants	tree	2	0	3	stars	2	correct	0.650299031869508
212032	1	stim100_animate_mammal_rhino_4.png	100	animate	mammal	rhino	4	0	3	stars	2	correct	0.650299031869508
212232	1	stim070_animate_insect_butterfly_2.png	70	animate	insect	butterfly	2	0	3	stars	2	correct	0.650299031869508
212432	1	stim116_inanimate_clothing_shirt_4.png	116	inanimate	clothing	shirt	4	0	3	stars	2	correct	0.650299031869508
212632	1	stim141_inanimate_furniture_bed_1.png	141	inanimate	furniture	bed	1	0	3	stars	2	correct	0.650299031869508
212832	1	stim032_animate_bird_parrot_4.png	32	animate	bird	parrot	4	0	3	stars	2	correct	0.650299031869508
213032	1	stim113_inanimate_clothing_shirt_1.png	113	inanimate	clothing	shirt	1	0	3	stars	2	correct	0.650299031869508
213232	1	stim078_animate_insect_grasshopper_2.png	78	animate	insect	grasshopper	2	0	3	stars	2	correct	0.650299031869508
213432	1	stim198_inanimate_tools_wrench_2.png	198	inanimate	tools	wrench	2	0	3	stars	2	correct	0.650299031869508
213632	1	stim085_animate_mammal_giraffe_1.png	85	animate	mammal	giraffe	1	0	3	stars	2	correct	0.650299031869508
213832	1	stim179_inanimate_plants_tulip_3.png	179	inanimate	plants	tulip	3	0	3	stars	2	correct	0.650299031869508
214032	1	stim150_inanimate_furniture_closet_2.png	150	inanimate	furniture	closet	2	0	3	stars	2	correct	0.650299031869508
214232	1	stim090_animate_mammal_kangaroo_2.png	90	animate	mammal	kangaroo	2	0	3	stars	2	correct	0.650299031869508
214432	1	stim190_inanimate_tools_pan_2.png	190	inanimate	tools	pan	2	0	3	stars	2	correct	0.650299031869508
214632	1	stim170_inanimate_plants_sunflower_2.png	170	inanimate	plants	sunflower	2	0	3	stars	2	correct	0.650299031869508
214832	1	stim148_inanimate_furniture_chair_4.png	148	inanimate	furniture	chair	4	0	3	stars	2	correct	0.650299031869508
215032	1	stim009_animate_aquatic_seahorse_1.png	9	animate	aquatic	seahorse	1	0	3	stars	2	correct	0.650299031869508
215232	1	stim169_inanimate_plants_sunflower_1.png	169	inanimate	plants	sunflower	1	0	3	stars	2	correct	0.650299031869508
215432	1	stim077_animate_insect_grasshopper_1.png	77	animate	insect	grasshopper	1	0	3	stars	2	correct	0.650299031869508
215632	1	stim162_inanimate_plants_bush_2.png	162	inanimate	plants	bush	2	0	3	stars	2	correct	0.650299031869508
215832	1	stim143_inanimate_furniture_bed_3.png	143	inanimate	furniture	bed	3	0	3	stars	2	correct	0.650299031869508
216032	1	stim093_animate_mammal_monkey_1.png	93	animate	mammal	monkey	1	0	3	stars	2	correct	0.650299031869508
216232	1	stim122_inanimate_fruits_apple_2.png	122	inanimate	fruits	apple	2	0	3	stars	2	correct	0.650299031869508
216432	1	stim036_animate_bird_peacock_4.png	36	animate	bird	peacock	4	0	3	stars	2	correct	0.650299031869508
216632	1	stim005_animate_aquatic_fish_1.png	5	animate	aquatic	fish	1	0	3	stars	2	correct	0.650299031869508
216832	1	stim152_inanimate_furniture_closet_4.png	152	inanimate	furniture	closet	4	0	3	stars	2	correct	0.650299031869508
217032	1	stim083_animate_mammal_cow_3.png	83	animate	mammal	cow	3	0	3	stars	2	correct	0.650299031869508
217232	1	stim010_animate_aquatic_seahorse_2.png	10	animate	aquatic	seahorse	2	0	3	stars	2	correct	0.650299031869508
217432	1	stim181_inanimate_tools_broom_1.png	181	inanimate	tools	broom	1	0	3	stars	2	correct	0.650299031869508
217632	1	stim199_inanimate_tools_wrench_3.png	199	inanimate	tools	wrench	3	0	3	stars	2	correct	0.650299031869508
217832	1	stim160_inanimate_furniture_table_4.png	160	inanimate	furniture	table	4	0	3	stars	2	correct	0.650299031869508
225133	1	stim032_animate_bird_parrot_4.png	32	animate	bird	parrot	4	0	4	stars	3	incorrect	0.98181379318703
225333	1	stim001_animate_aquatic_crab_1.png	1	animate	aquatic	crab	1	0	4	stars	3	incorrect	0.98181379318703
225533	1	stim187_inanimate_tools_hammer_3.png	187	inanimate	tools	hammer	3	0	4	stars	3	incorrect	0.98181379318703
225733	1	stim005_animate_aquatic_fish_1.png	5	animate	aquatic	fish	1	0	4	stars	3	incorrect	0.98181379318703
225933	1	stim152_inanimate_furniture_closet_4.png	152	inanimate	furniture	closet	4	0	4	stars	3	incorrect	0.98181379318703
226133	1	stim166_inanimate_plants_cactus_2.png	166	inanimate	plants	cactus	2	0	4	stars	3	incorrect	0.98181379318703
226333	1	stim067_animate_insect_bug_3.png	67	animate	insect	bug	3	0	4	stars	3	incorrect	0.98181379318703
226533	1	stim075_animate_insect_dragonfly_3.png	75	animate	insect	dragonfly	3	0	4	stars	3	incorrect	0.98181379318703
226733	1	stim082_animate_mammal_cow_2.png	82	animate	mammal	cow	2	0	4	stars	3	incorrect	0.98181379318703
226933	1	stim055_animate_human_faces_3.png	55	animate	human	faces	3	0	4	stars	3	incorrect	0.98181379318703
227133	1	stim085_animate_mammal_giraffe_1.png	85	animate	mammal	giraffe	1	0	4	stars	3	incorrect	0.98181379318703
227333	1	stim194_inanimate_tools_scissors_2.png	194	inanimate	tools	scissors	2	0	4	stars	3	incorrect	0.98181379318703
227533	1	stim023_animate_bird_chicken_3.png	23	animate	bird	chicken	3	0	4	stars	3	incorrect	0.98181379318703
227733	1	stim161_inanimate_plants_bush_1.png	161	inanimate	plants	bush	1	0	4	stars	3	incorrect	0.98181379318703
227933	1	stim093_animate_mammal_monkey_1.png	93	animate	mammal	monkey	1	0	4	stars	3	incorrect	0.98181379318703
228133	1	stim057_animate_human_sports_1.png	57	animate	human	sports	1	0	4	stars	3	incorrect	0.98181379318703
228333	1	stim157_inanimate_furniture_table_1.png	157	inanimate	furniture	table	1	0	4	stars	3	incorrect	0.98181379318703
228533	1	stim113_inanimate_clothing_shirt_1.png	113	inanimate	clothing	shirt	1	0	4	stars	3	incorrect	0.98181379318703
228733	1	stim185_inanimate_tools_hammer_1.png	185	inanimate	tools	hammer	1	0	4	stars	3	incorrect	0.98181379318703
228933	1	stim119_inanimate_clothing_socks_3.png	119	inanimate	clothing	socks	3	0	4	stars	3	incorrect	0.98181379318703
229133	1	stim077_animate_insect_grasshopper_1.png	77	animate	insect	grasshopper	1	0	4	stars	3	incorrect	0.98181379318703
229333	1	stim018_animate_aquatic_shrimp_2.png	18	animate	aquatic	shrimp	2	0	4	stars	3	incorrect	0.98181379318703
229533	1	stim164_inanimate_plants_bush_4.png	164	inanimate	plants	bush	4	0	4	stars	3	incorrect	0.98181379318703
229733	1	stim096_animate_mammal_monkey_4.png	96	animate	mammal	monkey	4	0	4	stars	3	incorrect	0.98181379318703
229933	1	stim195_inanimate_tools_scissors_3.png	195	inanimate	tools	scissors	3	0	4	stars	3	incorrect	0.98181379318703
230133	1	stim160_inanimate_furniture_table_4.png	160	inanimate	furniture	table	4	0	4	stars	3	incorrect	0.98181379318703
230333	1	stim129_inanimate_fruits_grape_1.png	129	inanimate	fruits	grape	1	0	4	stars	3	incorrect	0.98181379318703
230533	1	stim162_inanimate_plants_bush_2.png	162	inanimate	plants	bush	2	0	4	stars	3	incorrect	0.98181379318703
230733	1	stim062_animate_insect_ant_2.png	62	animate	insect	ant	2	0	4	stars	3	incorrect	0.98181379318703
230933	1	stim110_inanimate_clothing_jeans_2.png	110	inanimate	clothing	jeans	2	0	4	stars	3	incorrect	0.98181379318703
231133	1	stim091_animate_mammal_kangaroo_3.png	91	animate	mammal	kangaroo	3	0	4	stars	3	incorrect	0.98181379318703
231333	1	stim158_inanimate_furniture_table_2.png	158	inanimate	furniture	table	2	0	4	stars	3	incorrect	0.98181379318703
231533	1	stim170_inanimate_plants_sunflower_2.png	170	inanimate	plants	sunflower	2	0	4	stars	3	incorrect	0.98181379318703
231733	1	stim133_inanimate_fruits_pineapple_1.png	133	inanimate	fruits	pineapple	1	0	4	stars	3	incorrect	0.98181379318703
231933	1	stim154_inanimate_furniture_sofa_2.png	154	inanimate	furniture	sofa	2	0	4	stars	3	incorrect	0.98181379318703
232133	1	stim083_animate_mammal_cow_3.png	83	animate	mammal	cow	3	0	4	stars	3	incorrect	0.98181379318703
232333	1	stim056_animate_human_faces_4.png	56	animate	human	faces	4	0	4	stars	3	incorrect	0.98181379318703
232533	1	stim089_animate_mammal_kangaroo_1.png	89	animate	mammal	kangaroo	1	0	4	stars	3	incorrect	0.98181379318703
232733	1	stim108_inanimate_clothing_hat_4.png	108	inanimate	clothing	hat	4	0	4	stars	3	incorrect	0.98181379318703
232933	1	stim198_inanimate_tools_wrench_2.png	198	inanimate	tools	wrench	2	0	4	stars	3	incorrect	0.98181379318703
233133	1	stim172_inanimate_plants_sunflower_4.png	172	inanimate	plants	sunflower	4	0	4	stars	3	incorrect	0.98181379318703
233333	1	stim036_animate_bird_peacock_4.png	36	animate	bird	peacock	4	0	4	stars	3	incorrect	0.98181379318703
233533	1	stim122_inanimate_fruits_apple_2.png	122	inanimate	fruits	apple	2	0	4	stars	3	incorrect	0.98181379318703
233733	1	stim213_targets_shapes_star_1.png	213	targets	shapes	star	1	1	4	stars	3	incorrect	0.98181379318703
233933	1	stim012_animate_aquatic_seahorse_4.png	12	animate	aquatic	seahorse	4	0	4	stars	3	incorrect	0.98181379318703
234133	1	stim035_animate_bird_peacock_3.png	35	animate	bird	peacock	3	0	4	stars	3	incorrect	0.98181379318703
234333	1	stim074_animate_insect_dragonfly_2.png	74	animate	insect	dragonfly	2	0	4	stars	3	incorrect	0.98181379318703
234533	1	stim053_animate_human_faces_1.png	53	animate	human	faces	1	0	4	stars	3	incorrect	0.98181379318703
234733	1	stim163_inanimate_plants_bush_3.png	163	inanimate	plants	bush	3	0	4	stars	3	incorrect	0.98181379318703
234933	1	stim030_animate_bird_parrot_2.png	30	animate	bird	parrot	2	0	4	stars	3	incorrect	0.98181379318703
235133	1	stim034_animate_bird_peacock_2.png	34	animate	bird	peacock	2	0	4	stars	3	incorrect	0.98181379318703
235333	1	stim112_inanimate_clothing_jeans_4.png	112	inanimate	clothing	jeans	4	0	4	stars	3	incorrect	0.98181379318703
235533	1	stim014_animate_aquatic_shark_2.png	14	animate	aquatic	shark	2	0	4	stars	3	incorrect	0.98181379318703
235733	1	stim097_animate_mammal_rhino_1.png	97	animate	mammal	rhino	1	0	4	stars	3	incorrect	0.98181379318703
235933	1	stim024_animate_bird_chicken_4.png	24	animate	bird	chicken	4	0	4	stars	3	incorrect	0.98181379318703
236133	1	stim177_inanimate_plants_tulip_1.png	177	inanimate	plants	tulip	1	0	4	stars	3	incorrect	0.98181379318703
236333	1	stim168_inanimate_plants_cactus_4.png	168	inanimate	plants	cactus	4	0	4	stars	3	incorrect	0.98181379318703
236533	1	stim048_animate_human_child_4.png	48	animate	human	child	4	0	4	stars	3	incorrect	0.98181379318703
236733	1	stim144_inanimate_furniture_bed_4.png	144	inanimate	furniture	bed	4	0	4	stars	3	incorrect	0.98181379318703
236933	1	stim013_animate_aquatic_shark_1.png	13	animate	aquatic	shark	1	0	4	stars	3	incorrect	0.98181379318703
237133	1	stim153_inanimate_furniture_sofa_1.png	153	inanimate	furniture	sofa	1	0	4	stars	3	incorrect	0.98181379318703
237333	1	stim069_animate_insect_butterfly_1.png	69	animate	insect	butterfly	1	0	4	stars	3	incorrect	0.98181379318703
237533	1	stim118_inanimate_clothing_socks_2.png	118	inanimate	clothing	socks	2	0	4	stars	3	incorrect	0.98181379318703
237733	1	stim134_inanimate_fruits_pineapple_2.png	134	inanimate	fruits	pineapple	2	0	4	stars	3	incorrect	0.98181379318703
237933	1	stim066_animate_insect_bug_2.png	66	animate	insect	bug	2	0	4	stars	3	incorrect	0.98181379318703
238133	1	stim171_inanimate_plants_sunflower_3.png	171	inanimate	plants	sunflower	3	0	4	stars	3	incorrect	0.98181379318703
238333	1	stim025_animate_bird_duck_1.png	25	animate	bird	duck	1	0	4	stars	3	incorrect	0.98181379318703
238533	1	stim100_animate_mammal_rhino_4.png	100	animate	mammal	rhino	4	0	4	stars	3	incorrect	0.98181379318703
238733	1	stim046_animate_human_child_2.png	46	animate	human	child	2	0	4	stars	3	incorrect	0.98181379318703
238933	1	stim011_animate_aquatic_seahorse_3.png	11	animate	aquatic	seahorse	3	0	4	stars	3	incorrect	0.98181379318703
239133	1	stim199_inanimate_tools_wrench_3.png	199	inanimate	tools	wrench	3	0	4	stars	3	incorrect	0.98181379318703
239333	1	stim042_animate_human_baby_2.png	42	animate	human	baby	2	0	4	stars	3	incorrect	0.98181379318703
239533	1	stim054_animate_human_faces_2.png	54	animate	human	faces	2	0	4	stars	3	incorrect	0.98181379318703
239733	1	stim094_animate_mammal_monkey_2.png	94	animate	mammal	monkey	2	0	4	stars	3	incorrect	0.98181379318703
239933	1	stim070_animate_insect_butterfly_2.png	70	animate	insect	butterfly	2	0	4	stars	3	incorrect	0.98181379318703
240133	1	stim216_targets_shapes_star_4.png	216	targets	shapes	star	4	1	4	stars	3	incorrect	0.98181379318703
240333	1	stim145_inanimate_furniture_chair_1.png	145	inanimate	furniture	chair	1	0	4	stars	3	incorrect	0.98181379318703
240533	1	stim174_inanimate_plants_tree_2.png	174	inanimate	plants	tree	2	0	4	stars	3	incorrect	0.98181379318703
240733	1	stim109_inanimate_clothing_jeans_1.png	109	inanimate	clothing	jeans	1	0	4	stars	3	incorrect	0.98181379318703
240933	1	stim059_animate_human_sports_3.png	59	animate	human	sports	3	0	4	stars	3	incorrect	0.98181379318703
241133	1	stim072_animate_insect_butterfly_4.png	72	animate	insect	butterfly	4	0	4	stars	3	incorrect	0.98181379318703
241333	1	stim033_animate_bird_peacock_1.png	33	animate	bird	peacock	1	0	4	stars	3	incorrect	0.98181379318703
241533	1	stim010_animate_aquatic_seahorse_2.png	10	animate	aquatic	seahorse	2	0	4	stars	3	incorrect	0.98181379318703
241733	1	stim052_animate_human_clown_4.png	52	animate	human	clown	4	0	4	stars	3	incorrect	0.98181379318703
241933	1	stim182_inanimate_tools_broom_2.png	182	inanimate	tools	broom	2	0	4	stars	3	incorrect	0.98181379318703
242133	1	stim002_animate_aquatic_crab_2.png	2	animate	aquatic	crab	2	0	4	stars	3	incorrect	0.98181379318703
242333	1	stim004_animate_aquatic_crab_4.png	4	animate	aquatic	crab	4	0	4	stars	3	incorrect	0.98181379318703
242533	1	stim073_animate_insect_dragonfly_1.png	73	animate	insect	dragonfly	1	0	4	stars	3	incorrect	0.98181379318703
242733	1	stim180_inanimate_plants_tulip_4.png	180	inanimate	plants	tulip	4	0	4	stars	3	incorrect	0.98181379318703
242933	1	stim115_inanimate_clothing_shirt_3.png	115	inanimate	clothing	shirt	3	0	4	stars	3	incorrect	0.98181379318703
243133	1	stim173_inanimate_plants_tree_1.png	173	inanimate	plants	tree	1	0	4	stars	3	incorrect	0.98181379318703
243333	1	stim149_inanimate_furniture_closet_1.png	149	inanimate	furniture	closet	1	0	4	stars	3	incorrect	0.98181379318703
243533	1	stim027_animate_bird_duck_3.png	27	animate	bird	duck	3	0	4	stars	3	incorrect	0.98181379318703
243733	1	stim087_animate_mammal_giraffe_3.png	87	animate	mammal	giraffe	3	0	4	stars	3	incorrect	0.98181379318703
243933	1	stim086_animate_mammal_giraffe_2.png	86	animate	mammal	giraffe	2	0	4	stars	3	incorrect	0.98181379318703
244133	1	stim155_inanimate_furniture_sofa_3.png	155	inanimate	furniture	sofa	3	0	4	stars	3	incorrect	0.98181379318703
244333	1	stim028_animate_bird_duck_4.png	28	animate	bird	duck	4	0	4	stars	3	incorrect	0.98181379318703
244533	1	stim006_animate_aquatic_fish_2.png	6	animate	aquatic	fish	2	0	4	stars	3	incorrect	0.98181379318703
244733	1	stim008_animate_aquatic_fish_4.png	8	animate	aquatic	fish	4	0	4	stars	3	incorrect	0.98181379318703
244933	1	stim132_inanimate_fruits_grape_4.png	132	inanimate	fruits	grape	4	0	4	stars	3	incorrect	0.98181379318703
245133	1	stim040_animate_bird_penguin_4.png	40	animate	bird	penguin	4	0	4	stars	3	incorrect	0.98181379318703
245333	1	stim165_inanimate_plants_cactus_1.png	165	inanimate	plants	cactus	1	0	4	stars	3	incorrect	0.98181379318703
245533	1	stim044_animate_human_baby_4.png	44	animate	human	baby	4	0	4	stars	3	incorrect	0.98181379318703
245733	1	stim196_inanimate_tools_scissors_4.png	196	inanimate	tools	scissors	4	0	4	stars	3	incorrect	0.98181379318703
245933	1	stim060_animate_human_sports_4.png	60	animate	human	sports	4	0	4	stars	3	incorrect	0.98181379318703
246133	1	stim150_inanimate_furniture_closet_2.png	150	inanimate	furniture	closet	2	0	4	stars	3	incorrect	0.98181379318703
246333	1	stim026_animate_bird_duck_2.png	26	animate	bird	duck	2	0	4	stars	3	incorrect	0.98181379318703
246533	1	stim125_inanimate_fruits_banana_1.png	125	inanimate	fruits	banana	1	0	4	stars	3	incorrect	0.98181379318703
246733	1	stim031_animate_bird_parrot_3.png	31	animate	bird	parrot	3	0	4	stars	3	incorrect	0.98181379318703
246933	1	stim020_animate_aquatic_shrimp_4.png	20	animate	aquatic	shrimp	4	0	4	stars	3	incorrect	0.98181379318703
247133	1	stim200_inanimate_tools_wrench_4.png	200	inanimate	tools	wrench	4	0	4	stars	3	incorrect	0.98181379318703
247333	1	stim099_animate_mammal_rhino_3.png	99	animate	mammal	rhino	3	0	4	stars	3	incorrect	0.98181379318703
247533	1	stim143_inanimate_furniture_bed_3.png	143	inanimate	furniture	bed	3	0	4	stars	3	incorrect	0.98181379318703
247733	1	stim064_animate_insect_ant_4.png	64	animate	insect	ant	4	0	4	stars	3	incorrect	0.98181379318703
247933	1	stim197_inanimate_tools_wrench_1.png	197	inanimate	tools	wrench	1	0	4	stars	3	incorrect	0.98181379318703
248133	1	stim215_targets_shapes_star_3.png	215	targets	shapes	star	3	1	4	stars	3	incorrect	0.98181379318703
248333	1	stim116_inanimate_clothing_shirt_4.png	116	inanimate	clothing	shirt	4	0	4	stars	3	incorrect	0.98181379318703
248533	1	stim003_animate_aquatic_crab_3.png	3	animate	aquatic	crab	3	0	4	stars	3	incorrect	0.98181379318703
248733	1	stim126_inanimate_fruits_banana_2.png	126	inanimate	fruits	banana	2	0	4	stars	3	incorrect	0.98181379318703
248933	1	stim178_inanimate_plants_tulip_2.png	178	inanimate	plants	tulip	2	0	4	stars	3	incorrect	0.98181379318703
249133	1	stim121_inanimate_fruits_apple_1.png	121	inanimate	fruits	apple	1	0	4	stars	3	incorrect	0.98181379318703
249333	1	stim183_inanimate_tools_broom_3.png	183	inanimate	tools	broom	3	0	4	stars	3	incorrect	0.98181379318703
249533	1	stim038_animate_bird_penguin_2.png	38	animate	bird	penguin	2	0	4	stars	3	incorrect	0.98181379318703
249733	1	stim141_inanimate_furniture_bed_1.png	141	inanimate	furniture	bed	1	0	4	stars	3	incorrect	0.98181379318703
249933	1	stim039_animate_bird_penguin_3.png	39	animate	bird	penguin	3	0	4	stars	3	incorrect	0.98181379318703
250133	1	stim103_inanimate_clothing_gloves_3.png	103	inanimate	clothing	gloves	3	0	4	stars	3	incorrect	0.98181379318703
250333	1	stim063_animate_insect_ant_3.png	63	animate	insect	ant	3	0	4	stars	3	incorrect	0.98181379318703
250533	1	stim105_inanimate_clothing_hat_1.png	105	inanimate	clothing	hat	1	0	4	stars	3	incorrect	0.98181379318703
250733	1	stim102_inanimate_clothing_gloves_2.png	102	inanimate	clothing	gloves	2	0	4	stars	3	incorrect	0.98181379318703
250933	1	stim176_inanimate_plants_tree_4.png	176	inanimate	plants	tree	4	0	4	stars	3	incorrect	0.98181379318703
251133	1	stim147_inanimate_furniture_chair_3.png	147	inanimate	furniture	chair	3	0	4	stars	3	incorrect	0.98181379318703
251333	1	stim120_inanimate_clothing_socks_4.png	120	inanimate	clothing	socks	4	0	4	stars	3	incorrect	0.98181379318703
251533	1	stim137_inanimate_fruits_strawberry_1.png	137	inanimate	fruits	strawberry	1	0	4	stars	3	incorrect	0.98181379318703
251733	1	stim104_inanimate_clothing_gloves_4.png	104	inanimate	clothing	gloves	4	0	4	stars	3	incorrect	0.98181379318703
251933	1	stim061_animate_insect_ant_1.png	61	animate	insect	ant	1	0	4	stars	3	incorrect	0.98181379318703
252133	1	stim009_animate_aquatic_seahorse_1.png	9	animate	aquatic	seahorse	1	0	4	stars	3	incorrect	0.98181379318703
252333	1	stim123_inanimate_fruits_apple_3.png	123	inanimate	fruits	apple	3	0	4	stars	3	incorrect	0.98181379318703
252533	1	stim193_inanimate_tools_scissors_1.png	193	inanimate	tools	scissors	1	0	4	stars	3	incorrect	0.98181379318703
252733	1	stim084_animate_mammal_cow_4.png	84	animate	mammal	cow	4	0	4	stars	3	incorrect	0.98181379318703
252933	1	stim214_targets_shapes_star_2.png	214	targets	shapes	star	2	1	4	stars	3	incorrect	0.98181379318703
253133	1	stim065_animate_insect_bug_1.png	65	animate	insect	bug	1	0	4	stars	3	incorrect	0.98181379318703
253333	1	stim190_inanimate_tools_pan_2.png	190	inanimate	tools	pan	2	0	4	stars	3	incorrect	0.98181379318703
253533	1	stim095_animate_mammal_monkey_3.png	95	animate	mammal	monkey	3	0	4	stars	3	incorrect	0.98181379318703
253733	1	stim080_animate_insect_grasshopper_4.png	80	animate	insect	grasshopper	4	0	4	stars	3	incorrect	0.98181379318703
253933	1	stim139_inanimate_fruits_strawberry_3.png	139	inanimate	fruits	strawberry	3	0	4	stars	3	incorrect	0.98181379318703
254133	1	stim131_inanimate_fruits_grape_3.png	131	inanimate	fruits	grape	3	0	4	stars	3	incorrect	0.98181379318703
254333	1	stim142_inanimate_furniture_bed_2.png	142	inanimate	furniture	bed	2	0	4	stars	3	incorrect	0.98181379318703
254533	1	stim175_inanimate_plants_tree_3.png	175	inanimate	plants	tree	3	0	4	stars	3	incorrect	0.98181379318703
254733	1	stim148_inanimate_furniture_chair_4.png	148	inanimate	furniture	chair	4	0	4	stars	3	incorrect	0.98181379318703
254933	1	stim029_animate_bird_parrot_1.png	29	animate	bird	parrot	1	0	4	stars	3	incorrect	0.98181379318703
255133	1	stim068_animate_insect_bug_4.png	68	animate	insect	bug	4	0	4	stars	3	incorrect	0.98181379318703
255333	1	stim101_inanimate_clothing_gloves_1.png	101	inanimate	clothing	gloves	1	0	4	stars	3	incorrect	0.98181379318703
255533	1	stim140_inanimate_fruits_strawberry_4.png	140	inanimate	fruits	strawberry	4	0	4	stars	3	incorrect	0.98181379318703
255733	1	stim078_animate_insect_grasshopper_2.png	78	animate	insect	grasshopper	2	0	4	stars	3	incorrect	0.98181379318703
255933	1	stim045_animate_human_child_1.png	45	animate	human	child	1	0	4	stars	3	incorrect	0.98181379318703
256133	1	stim047_animate_human_child_3.png	47	animate	human	child	3	0	4	stars	3	incorrect	0.98181379318703
256333	1	stim107_inanimate_clothing_hat_3.png	107	inanimate	clothing	hat	3	0	4	stars	3	incorrect	0.98181379318703
256533	1	stim151_inanimate_furniture_closet_3.png	151	inanimate	furniture	closet	3	0	4	stars	3	incorrect	0.98181379318703
256733	1	stim037_animate_bird_penguin_1.png	37	animate	bird	penguin	1	0	4	stars	3	incorrect	0.98181379318703
256933	1	stim159_inanimate_furniture_table_3.png	159	inanimate	furniture	table	3	0	4	stars	3	incorrect	0.98181379318703
257133	1	stim135_inanimate_fruits_pineapple_3.png	135	inanimate	fruits	pineapple	3	0	4	stars	3	incorrect	0.98181379318703
257333	1	stim136_inanimate_fruits_pineapple_4.png	136	inanimate	fruits	pineapple	4	0	4	stars	3	incorrect	0.98181379318703
257533	1	stim114_inanimate_clothing_shirt_2.png	114	inanimate	clothing	shirt	2	0	4	stars	3	incorrect	0.98181379318703
257733	1	stim127_inanimate_fruits_banana_3.png	127	inanimate	fruits	banana	3	0	4	stars	3	incorrect	0.98181379318703
257933	1	stim050_animate_human_clown_2.png	50	animate	human	clown	2	0	4	stars	3	incorrect	0.98181379318703
258133	1	stim007_animate_aquatic_fish_3.png	7	animate	aquatic	fish	3	0	4	stars	3	incorrect	0.98181379318703
258333	1	stim156_inanimate_furniture_sofa_4.png	156	inanimate	furniture	sofa	4	0	4	stars	3	incorrect	0.98181379318703
258533	1	stim186_inanimate_tools_hammer_2.png	186	inanimate	tools	hammer	2	0	4	stars	3	incorrect	0.98181379318703
258733	1	stim192_inanimate_tools_pan_4.png	192	inanimate	tools	pan	4	0	4	stars	3	incorrect	0.98181379318703
258933	1	stim179_inanimate_plants_tulip_3.png	179	inanimate	plants	tulip	3	0	4	stars	3	incorrect	0.98181379318703
259133	1	stim130_inanimate_fruits_grape_2.png	130	inanimate	fruits	grape	2	0	4	stars	3	incorrect	0.98181379318703
259333	1	stim117_inanimate_clothing_socks_1.png	117	inanimate	clothing	socks	1	0	4	stars	3	incorrect	0.98181379318703
259533	1	stim081_animate_mammal_cow_1.png	81	animate	mammal	cow	1	0	4	stars	3	incorrect	0.98181379318703
259733	1	stim191_inanimate_tools_pan_3.png	191	inanimate	tools	pan	3	0	4	stars	3	incorrect	0.98181379318703
259933	1	stim071_animate_insect_butterfly_3.png	71	animate	insect	butterfly	3	0	4	stars	3	incorrect	0.98181379318703
260133	1	stim169_inanimate_plants_sunflower_1.png	169	inanimate	plants	sunflower	1	0	4	stars	3	incorrect	0.98181379318703
260333	1	stim016_animate_aquatic_shark_4.png	16	animate	aquatic	shark	4	0	4	stars	3	incorrect	0.98181379318703
260533	1	stim090_animate_mammal_kangaroo_2.png	90	animate	mammal	kangaroo	2	0	4	stars	3	incorrect	0.98181379318703
260733	1	stim128_inanimate_fruits_banana_4.png	128	inanimate	fruits	banana	4	0	4	stars	3	incorrect	0.98181379318703
260933	1	stim111_inanimate_clothing_jeans_3.png	111	inanimate	clothing	jeans	3	0	4	stars	3	incorrect	0.98181379318703
261133	1	stim079_animate_insect_grasshopper_3.png	79	animate	insect	grasshopper	3	0	4	stars	3	incorrect	0.98181379318703
261333	1	stim017_animate_aquatic_shrimp_1.png	17	animate	aquatic	shrimp	1	0	4	stars	3	incorrect	0.98181379318703
261533	1	stim146_inanimate_furniture_chair_2.png	146	inanimate	furniture	chair	2	0	4	stars	3	incorrect	0.98181379318703
261733	1	stim041_animate_human_baby_1.png	41	animate	human	baby	1	0	4	stars	3	incorrect	0.98181379318703
261933	1	stim058_animate_human_sports_2.png	58	animate	human	sports	2	0	4	stars	3	incorrect	0.98181379318703
262133	1	stim021_animate_bird_chicken_1.png	21	animate	bird	chicken	1	0	4	stars	3	incorrect	0.98181379318703
262333	1	stim167_inanimate_plants_cactus_3.png	167	inanimate	plants	cactus	3	0	4	stars	3	incorrect	0.98181379318703
262533	1	stim181_inanimate_tools_broom_1.png	181	inanimate	tools	broom	1	0	4	stars	3	incorrect	0.98181379318703
262733	1	stim184_inanimate_tools_broom_4.png	184	inanimate	tools	broom	4	0	4	stars	3	incorrect	0.98181379318703
262933	1	stim106_inanimate_clothing_hat_2.png	106	inanimate	clothing	hat	2	0	4	stars	3	incorrect	0.98181379318703
263133	1	stim049_animate_human_clown_1.png	49	animate	human	clown	1	0	4	stars	3	incorrect	0.98181379318703
263333	1	stim188_inanimate_tools_hammer_4.png	188	inanimate	tools	hammer	4	0	4	stars	3	incorrect	0.98181379318703
263533	1	stim092_animate_mammal_kangaroo_4.png	92	animate	mammal	kangaroo	4	0	4	stars	3	incorrect	0.98181379318703
263733	1	stim022_animate_bird_chicken_2.png	22	animate	bird	chicken	2	0	4	stars	3	incorrect	0.98181379318703
263933	1	stim138_inanimate_fruits_strawberry_2.png	138	inanimate	fruits	strawberry	2	0	4	stars	3	incorrect	0.98181379318703
264133	1	stim076_animate_insect_dragonfly_4.png	76	animate	insect	dragonfly	4	0	4	stars	3	incorrect	0.98181379318703
264333	1	stim015_animate_aquatic_shark_3.png	15	animate	aquatic	shark	3	0	4	stars	3	incorrect	0.98181379318703
264533	1	stim124_inanimate_fruits_apple_4.png	124	inanimate	fruits	apple	4	0	4	stars	3	incorrect	0.98181379318703
264733	1	stim088_animate_mammal_giraffe_4.png	88	animate	mammal	giraffe	4	0	4	stars	3	incorrect	0.98181379318703
264933	1	stim043_animate_human_baby_3.png	43	animate	human	baby	3	0	4	stars	3	incorrect	0.98181379318703
265133	1	stim189_inanimate_tools_pan_1.png	189	inanimate	tools	pan	1	0	4	stars	3	incorrect	0.98181379318703
265333	1	stim098_animate_mammal_rhino_2.png	98	animate	mammal	rhino	2	0	4	stars	3	incorrect	0.98181379318703
265533	1	stim019_animate_aquatic_shrimp_3.png	19	animate	aquatic	shrimp	3	0	4	stars	3	incorrect	0.98181379318703
265733	1	stim051_animate_human_clown_3.png	51	animate	human	clown	3	0	4	stars	3	incorrect	0.98181379318703
275184	1	stim149_inanimate_furniture_closet_1.png	149	inanimate	furniture	closet	1	0	5	stars	4	correct	0.618517299415544
275384	1	stim178_inanimate_plants_tulip_2.png	178	inanimate	plants	tulip	2	0	5	stars	4	correct	0.618517299415544
275584	1	stim083_animate_mammal_cow_3.png	83	animate	mammal	cow	3	0	5	stars	4	correct	0.618517299415544
275784	1	stim016_animate_aquatic_shark_4.png	16	animate	aquatic	shark	4	0	5	stars	4	correct	0.618517299415544
275984	1	stim097_animate_mammal_rhino_1.png	97	animate	mammal	rhino	1	0	5	stars	4	correct	0.618517299415544
276184	1	stim110_inanimate_clothing_jeans_2.png	110	inanimate	clothing	jeans	2	0	5	stars	4	correct	0.618517299415544
276384	1	stim015_animate_aquatic_shark_3.png	15	animate	aquatic	shark	3	0	5	stars	4	correct	0.618517299415544
276584	1	stim102_inanimate_clothing_gloves_2.png	102	inanimate	clothing	gloves	2	0	5	stars	4	correct	0.618517299415544
276784	1	stim049_animate_human_clown_1.png	49	animate	human	clown	1	0	5	stars	4	correct	0.618517299415544
276984	1	stim162_inanimate_plants_bush_2.png	162	inanimate	plants	bush	2	0	5	stars	4	correct	0.618517299415544
277184	1	stim113_inanimate_clothing_shirt_1.png	113	inanimate	clothing	shirt	1	0	5	stars	4	correct	0.618517299415544
277384	1	stim136_inanimate_fruits_pineapple_4.png	136	inanimate	fruits	pineapple	4	0	5	stars	4	correct	0.618517299415544
277584	1	stim179_inanimate_plants_tulip_3.png	179	inanimate	plants	tulip	3	0	5	stars	4	correct	0.618517299415544
277784	1	stim157_inanimate_furniture_table_1.png	157	inanimate	furniture	table	1	0	5	stars	4	correct	0.618517299415544
277984	1	stim041_animate_human_baby_1.png	41	animate	human	baby	1	0	5	stars	4	correct	0.618517299415544
278184	1	stim012_animate_aquatic_seahorse_4.png	12	animate	aquatic	seahorse	4	0	5	stars	4	correct	0.618517299415544
278384	1	stim192_inanimate_tools_pan_4.png	192	inanimate	tools	pan	4	0	5	stars	4	correct	0.618517299415544
278584	1	stim027_animate_bird_duck_3.png	27	animate	bird	duck	3	0	5	stars	4	correct	0.618517299415544
278784	1	stim176_inanimate_plants_tree_4.png	176	inanimate	plants	tree	4	0	5	stars	4	correct	0.618517299415544
278984	1	stim168_inanimate_plants_cactus_4.png	168	inanimate	plants	cactus	4	0	5	stars	4	correct	0.618517299415544
279184	1	stim166_inanimate_plants_cactus_2.png	166	inanimate	plants	cactus	2	0	5	stars	4	correct	0.618517299415544
279384	1	stim072_animate_insect_butterfly_4.png	72	animate	insect	butterfly	4	0	5	stars	4	correct	0.618517299415544
279584	1	stim121_inanimate_fruits_apple_1.png	121	inanimate	fruits	apple	1	0	5	stars	4	correct	0.618517299415544
279784	1	stim171_inanimate_plants_sunflower_3.png	171	inanimate	plants	sunflower	3	0	5	stars	4	correct	0.618517299415544
279984	1	stim194_inanimate_tools_scissors_2.png	194	inanimate	tools	scissors	2	0	5	stars	4	correct	0.618517299415544
280184	1	stim074_animate_insect_dragonfly_2.png	74	animate	insect	dragonfly	2	0	5	stars	4	correct	0.618517299415544
280384	1	stim103_inanimate_clothing_gloves_3.png	103	inanimate	clothing	gloves	3	0	5	stars	4	correct	0.618517299415544
280584	1	stim158_inanimate_furniture_table_2.png	158	inanimate	furniture	table	2	0	5	stars	4	correct	0.618517299415544
280784	1	stim075_animate_insect_dragonfly_3.png	75	animate	insect	dragonfly	3	0	5	stars	4	correct	0.618517299415544
280984	1	stim167_inanimate_plants_cactus_3.png	167	inanimate	plants	cactus	3	0	5	stars	4	correct	0.618517299415544
281184	1	stim153_inanimate_furniture_sofa_1.png	153	inanimate	furniture	sofa	1	0	5	stars	4	correct	0.618517299415544
281384	1	stim013_animate_aquatic_shark_1.png	13	animate	aquatic	shark	1	0	5	stars	4	correct	0.618517299415544
281584	1	stim061_animate_insect_ant_1.png	61	animate	insect	ant	1	0	5	stars	4	correct	0.618517299415544
281784	1	stim092_animate_mammal_kangaroo_4.png	92	animate	mammal	kangaroo	4	0	5	stars	4	correct	0.618517299415544
281984	1	stim065_animate_insect_bug_1.png	65	animate	insect	bug	1	0	5	stars	4	correct	0.618517299415544
282184	1	stim001_animate_aquatic_crab_1.png	1	animate	aquatic	crab	1	0	5	stars	4	correct	0.618517299415544
282384	1	stim054_animate_human_faces_2.png	54	animate	human	faces	2	0	5	stars	4	correct	0.618517299415544
282584	1	stim004_animate_aquatic_crab_4.png	4	animate	aquatic	crab	4	0	5	stars	4	correct	0.618517299415544
282784	1	stim093_animate_mammal_monkey_1.png	93	animate	mammal	monkey	1	0	5	stars	4	correct	0.618517299415544
282984	1	stim170_inanimate_plants_sunflower_2.png	170	inanimate	plants	sunflower	2	0	5	stars	4	correct	0.618517299415544
283184	1	stim165_inanimate_plants_cactus_1.png	165	inanimate	plants	cactus	1	0	5	stars	4	correct	0.618517299415544
283384	1	stim045_animate_human_child_1.png	45	animate	human	child	1	0	5	stars	4	correct	0.618517299415544
283584	1	stim024_animate_bird_chicken_4.png	24	animate	bird	chicken	4	0	5	stars	4	correct	0.618517299415544
283784	1	stim114_inanimate_clothing_shirt_2.png	114	inanimate	clothing	shirt	2	0	5	stars	4	correct	0.618517299415544
283984	1	stim140_inanimate_fruits_strawberry_4.png	140	inanimate	fruits	strawberry	4	0	5	stars	4	correct	0.618517299415544
284184	1	stim096_animate_mammal_monkey_4.png	96	animate	mammal	monkey	4	0	5	stars	4	correct	0.618517299415544
284384	1	stim073_animate_insect_dragonfly_1.png	73	animate	insect	dragonfly	1	0	5	stars	4	correct	0.618517299415544
284584	1	stim057_animate_human_sports_1.png	57	animate	human	sports	1	0	5	stars	4	correct	0.618517299415544
284784	1	stim028_animate_bird_duck_4.png	28	animate	bird	duck	4	0	5	stars	4	correct	0.618517299415544
284984	1	stim037_animate_bird_penguin_1.png	37	animate	bird	penguin	1	0	5	stars	4	correct	0.618517299415544
285184	1	stim042_animate_human_baby_2.png	42	animate	human	baby	2	0	5	stars	4	correct	0.618517299415544
285384	1	stim039_animate_bird_penguin_3.png	39	animate	bird	penguin	3	0	5	stars	4	correct	0.618517299415544
285584	1	stim145_inanimate_furniture_chair_1.png	145	inanimate	furniture	chair	1	0	5	stars	4	correct	0.618517299415544
285784	1	stim068_animate_insect_bug_4.png	68	animate	insect	bug	4	0	5	stars	4	correct	0.618517299415544
285984	1	stim002_animate_aquatic_crab_2.png	2	animate	aquatic	crab	2	0	5	stars	4	correct	0.618517299415544
286184	1	stim200_inanimate_tools_wrench_4.png	200	inanimate	tools	wrench	4	0	5	stars	4	correct	0.618517299415544
286384	1	stim009_animate_aquatic_seahorse_1.png	9	animate	aquatic	seahorse	1	0	5	stars	4	correct	0.618517299415544
286584	1	stim213_targets_shapes_star_1.png	213	targets	shapes	star	1	1	5	stars	4	correct	0.618517299415544
286784	1	stim107_inanimate_clothing_hat_3.png	107	inanimate	clothing	hat	3	0	5	stars	4	correct	0.618517299415544
286984	1	stim030_animate_bird_parrot_2.png	30	animate	bird	parrot	2	0	5	stars	4	correct	0.618517299415544
287184	1	stim010_animate_aquatic_seahorse_2.png	10	animate	aquatic	seahorse	2	0	5	stars	4	correct	0.618517299415544
287384	1	stim193_inanimate_tools_scissors_1.png	193	inanimate	tools	scissors	1	0	5	stars	4	correct	0.618517299415544
287584	1	stim081_animate_mammal_cow_1.png	81	animate	mammal	cow	1	0	5	stars	4	correct	0.618517299415544
287784	1	stim047_animate_human_child_3.png	47	animate	human	child	3	0	5	stars	4	correct	0.618517299415544
287984	1	stim189_inanimate_tools_pan_1.png	189	inanimate	tools	pan	1	0	5	stars	4	correct	0.618517299415544
288184	1	stim022_animate_bird_chicken_2.png	22	animate	bird	chicken	2	0	5	stars	4	correct	0.618517299415544
288384	1	stim185_inanimate_tools_hammer_1.png	185	inanimate	tools	hammer	1	0	5	stars	4	correct	0.618517299415544
288584	1	stim159_inanimate_furniture_table_3.png	159	inanimate	furniture	table	3	0	5	stars	4	correct	0.618517299415544
288784	1	stim056_animate_human_faces_4.png	56	animate	human	faces	4	0	5	stars	4	correct	0.618517299415544
288984	1	stim099_animate_mammal_rhino_3.png	99	animate	mammal	rhino	3	0	5	stars	4	correct	0.618517299415544
289184	1	stim070_animate_insect_butterfly_2.png	70	animate	insect	butterfly	2	0	5	stars	4	correct	0.618517299415544
289384	1	stim104_inanimate_clothing_gloves_4.png	104	inanimate	clothing	gloves	4	0	5	stars	4	correct	0.618517299415544
289584	1	stim062_animate_insect_ant_2.png	62	animate	insect	ant	2	0	5	stars	4	correct	0.618517299415544
289784	1	stim043_animate_human_baby_3.png	43	animate	human	baby	3	0	5	stars	4	correct	0.618517299415544
289984	1	stim051_animate_human_clown_3.png	51	animate	human	clown	3	0	5	stars	4	correct	0.618517299415544
290184	1	stim105_inanimate_clothing_hat_1.png	105	inanimate	clothing	hat	1	0	5	stars	4	correct	0.618517299415544
290384	1	stim071_animate_insect_butterfly_3.png	71	animate	insect	butterfly	3	0	5	stars	4	correct	0.618517299415544
