onset	duration	stimulusname	stimulusnumber	levelA	levelB	levelC	withinexemplarnumber	istarget	trialnumber	condition	response	correct	rt
68523	1	stim073_animate_insect_dragonfly_1.png	73	animate	insect	dragonfly	1	0	1	boats	4	correct	0.53929739096202
68573	1	stim182_inanimate_tools_broom_2.png	182	inanimate	tools	broom	2	0	1	boats	4	correct	0.53929739096202
68623	1	stim008_animate_aquatic_fish_4.png	8	animate	aquatic	fish	4	0	1	boats	4	correct	0.53929739096202
68673	1	stim006_animate_aquatic_fish_2.png	6	animate	aquatic	fish	2	0	1	boats	4	correct	0.53929739096202
68723	1	stim193_inanimate_tools_scissors_1.png	193	inanimate	tools	scissors	1	0	1	boats	4	correct	0.53929739096202
68773	1	stim065_animate_insect_bug_1.png	65	animate	insect	bug	1	0	1	boats	4	correct	0.53929739096202
68823	1	stim152_inanimate_furniture_closet_4.png	152	inanimate	furniture	closet	4	0	1	boats	4	correct	0.53929739096202
68873	1	stim188_inanimate_tools_hammer_4.png	188	inanimate	tools	hammer	4	0	1	boats	4	correct	0.53929739096202
68923	1	stim098_animate_mammal_rhino_2.png	98	animate	mammal	rhino	2	0	1	boats	4	correct	0.53929739096202
68973	1	stim104_inanimate_clothing_gloves_4.png	104	inanimate	clothing	gloves	4	0	1	boats	4	correct	0.53929739096202
69023	1	stim151_inanimate_furniture_closet_3.png	151	inanimate	furniture	closet	3	0	1	boats	4	correct	0.53929739096202
69073	1	stim115_inanimate_clothing_shirt_3.png	115	inanimate	clothing	shirt	3	0	1	boats	4	correct	0.53929739096202
69123	1	stim056_animate_human_faces_4.png	56	animate	human	faces	4	0	1	boats	4	correct	0.53929739096202
69173	1	stim077_animate_insect_grasshopper_1.png	77	animate	insect	grasshopper	1	0	1	boats	4	correct	0.53929739096202
69223	1	stim058_animate_human_sports_2.png	58	animate	human	sports	2	0	1	boats	4	correct	0.53929739096202
69273	1	stim180_inanimate_plants_tulip_4.png	180	inanimate	plants	tulip	4	0	1	boats	4	correct	0.53929739096202
69323	1	stim200_inanimate_tools_wrench_4.png	200	inanimate	tools	wrench	4	0	1	boats	4	correct	0.53929739096202
69373	1	stim069_animate_insect_butterfly_1.png	69	animate	insect	butterfly	1	0	1	boats	4	correct	0.53929739096202
69423	1	stim145_inanimate_furniture_chair_1.png	145	inanimate	furniture	chair	1	0	1	boats	4	correct	0.53929739096202
69473	1	stim012_animate_aquatic_seahorse_4.png	12	animate	aquatic	seahorse	4	0	1	boats	4	correct	0.53929739096202
69523	1	stim067_animate_insect_bug_3.png	67	animate	insect	bug	3	0	1	boats	4	correct	0.53929739096202
69573	1	stim135_inanimate_fruits_pineapple_3.png	135	inanimate	fruits	pineapple	3	0	1	boats	4	correct	0.53929739096202
69623	1	stim163_inanimate_plants_bush_3.png	163	inanimate	plants	bush	3	0	1	boats	4	correct	0.53929739096202
69673	1	stim013_animate_aquatic_shark_1.png	13	animate	aquatic	shark	1	0	1	boats	4	correct	0.53929739096202
69723	1	stim186_inanimate_tools_hammer_2.png	186	inanimate	tools	hammer	2	0	1	boats	4	correct	0.53929739096202
69773	1	stim114_inanimate_clothing_shirt_2.png	114	inanimate	clothing	shirt	2	0	1	boats	4	correct	0.53929739096202
69823	1	stim197_inanimate_tools_wrench_1.png	197	inanimate	tools	wrench	1	0	1	boats	4	correct	0.53929739096202
69873	1	stim057_animate_human_sports_1.png	57	animate	human	sports	1	0	1	boats	4	correct	0.53929739096202
69923	1	stim176_inanimate_plants_tree_4.png	176	inanimate	plants	tree	4	0	1	boats	4	correct	0.53929739096202
69973	1	stim164_inanimate_plants_bush_4.png	164	inanimate	plants	bush	4	0	1	boats	4	correct	0.53929739096202
70023	1	stim178_inanimate_plants_tulip_2.png	178	inanimate	plants	tulip	2	0	1	boats	4	correct	0.53929739096202
70073	1	stim144_inanimate_furniture_bed_4.png	144	inanimate	furniture	bed	4	0	1	boats	4	correct	0.53929739096202
70123	1	stim132_inanimate_fruits_grape_4.png	132	inanimate	fruits	grape	4	0	1	boats	4	correct	0.53929739096202
70173	1	stim175_inanimate_plants_tree_3.png	175	inanimate	plants	tree	3	0	1	boats	4	correct	0.53929739096202
70223	1	stim149_inanimate_furniture_closet_1.png	149	inanimate	furniture	closet	1	0	1	boats	4	correct	0.53929739096202
70273	1	stim174_inanimate_plants_tree_2.png	174	inanimate	plants	tree	2	0	1	boats	4	correct	0.53929739096202
70323	1	stim090_animate_mammal_kangaroo_2.png	90	animate	mammal	kangaroo	2	0	1	boats	4	correct	0.53929739096202
70373	1	stim040_animate_bird_penguin_4.png	40	animate	bird	penguin	4	0	1	boats	4	correct	0.53929739096202
70423	1	stim105_inanimate_clothing_hat_1.png	105	inanimate	clothing	hat	1	0	1	boats	4	correct	0.53929739096202
70473	1	stim195_inanimate_tools_scissors_3.png	195	inanimate	tools	scissors	3	0	1	boats	4	correct	0.53929739096202
70523	1	stim026_animate_bird_duck_2.png	26	animate	bird	duck	2	0	1	boats	4	correct	0.53929739096202
70573	1	stim196_inanimate_tools_scissors_4.png	196	inanimate	tools	scissors	4	0	1	boats	4	correct	0.53929739096202
70623	1	stim207_targets_object_boats_3.png	207	targets	object	boats	3	1	1	boats	4	correct	0.53929739096202
70673	1	stim017_animate_aquatic_shrimp_1.png	17	animate	aquatic	shrimp	1	0	1	boats	4	correct	0.53929739096202
70723	1	stim110_inanimate_clothing_jeans_2.png	110	inanimate	clothing	jeans	2	0	1	boats	4	correct	0.53929739096202
70773	1	stim032_animate_bird_parrot_4.png	32	animate	bird	parrot	4	0	1	boats	4	correct	0.53929739096202
70823	1	stim161_inanimate_plants_bush_1.png	161	inanimate	plants	bush	1	0	1	boats	4	correct	0.53929739096202
70873	1	stim033_animate_bird_peacock_1.png	33	animate	bird	peacock	1	0	1	boats	4	correct	0.53929739096202
70923	1	stim129_inanimate_fruits_grape_1.png	129	inanimate	fruits	grape	1	0	1	boats	4	correct	0.53929739096202
70973	1	stim004_animate_aquatic_crab_4.png	4	animate	aquatic	crab	4	0	1	boats	4	correct	0.53929739096202
71023	1	stim035_animate_bird_peacock_3.png	35	animate	bird	peacock	3	0	1	boats	4	correct	0.53929739096202
71073	1	stim101_inanimate_clothing_gloves_1.png	101	inanimate	clothing	gloves	1	0	1	boats	4	correct	0.53929739096202
71123	1	stim102_inanimate_clothing_gloves_2.png	102	inanimate	clothing	gloves	2	0	1	boats	4	correct	0.53929739096202
71173	1	stim071_animate_insect_butterfly_3.png	71	animate	insect	butterfly	3	0	1	boats	4	correct	0.53929739096202
71223	1	stim124_inanimate_fruits_apple_4.png	124	inanimate	fruits	apple	4	0	1	boats	4	correct	0.53929739096202
71273	1	stim092_animate_mammal_kangaroo_4.png	92	animate	mammal	kangaroo	4	0	1	boats	4	correct	0.53929739096202
71323	1	stim050_animate_human_clown_2.png	50	animate	human	clown	2	0	1	boats	4	correct	0.53929739096202
71373	1	stim088_animate_mammal_giraffe_4.png	88	animate	mammal	giraffe	4	0	1	boats	4	correct	0.53929739096202
71423	1	stim027_animate_bird_duck_3.png	27	animate	bird	duck	3	0	1	boats	4	correct	0.53929739096202
71473	1	stim122_inanimate_fruits_apple_2.png	122	inanimate	fruits	apple	2	0	1	boats	4	correct	0.53929739096202
71523	1	stim155_inanimate_furniture_sofa_3.png	155	inanimate	furniture	sofa	3	0	1	boats	4	correct	0.53929739096202
71573	1	stim003_animate_aquatic_crab_3.png	3	animate	aquatic	crab	3	0	1	boats	4	correct	0.53929739096202
71623	1	stim137_inanimate_fruits_strawberry_1.png	137	inanimate	fruits	strawberry	1	0	1	boats	4	correct	0.53929739096202
71673	1	stim150_inanimate_furniture_closet_2.png	150	inanimate	furniture	closet	2	0	1	boats	4	correct	0.53929739096202
71723	1	stim148_inanimate_furniture_chair_4.png	148	inanimate	furniture	chair	4	0	1	boats	4	correct	0.53929739096202
71773	1	stim043_animate_human_baby_3.png	43	animate	human	baby	3	0	1	boats	4	correct	0.53929739096202
71823	1	stim187_inanimate_tools_hammer_3.png	187	inanimate	tools	hammer	3	0	1	boats	4	correct	0.53929739096202
71873	1	stim091_animate_mammal_kangaroo_3.png	91	animate	mammal	kangaroo	3	0	1	boats	4	correct	0.53929739096202
71923	1	stim054_animate_human_faces_2.png	54	animate	human	faces	2	0	1	boats	4	correct	0.53929739096202
71973	1	stim111_inanimate_clothing_jeans_3.png	111	inanimate	clothing	jeans	3	0	1	boats	4	correct	0.53929739096202
72023	1	stim108_inanimate_clothing_hat_4.png	108	inanimate	clothing	hat	4	0	1	boats	4	correct	0.53929739096202
72073	1	stim094_animate_mammal_monkey_2.png	94	animate	mammal	monkey	2	0	1	boats	4	correct	0.53929739096202
72123	1	stim165_inanimate_plants_cactus_1.png	165	inanimate	plants	cactus	1	0	1	boats	4	correct	0.53929739096202
72173	1	stim074_animate_insect_dragonfly_2.png	74	animate	insect	dragonfly	2	0	1	boats	4	correct	0.53929739096202
72223	1	stim009_animate_aquatic_seahorse_1.png	9	animate	aquatic	seahorse	1	0	1	boats	4	correct	0.53929739096202
72273	1	stim141_inanimate_furniture_bed_1.png	141	inanimate	furniture	bed	1	0	1	boats	4	correct	0.53929739096202
72323	1	stim172_inanimate_plants_sunflower_4.png	172	inanimate	plants	sunflower	4	0	1	boats	4	correct	0.53929739096202
72373	1	stim112_inanimate_clothing_jeans_4.png	112	inanimate	clothing	jeans	4	0	1	boats	4	correct	0.53929739096202
72423	1	stim206_targets_object_boats_2.png	206	targets	object	boats	2	1	1	boats	4	correct	0.53929739096202
72473	1	stim109_inanimate_clothing_jeans_1.png	109	inanimate	clothing	jeans	1	0	1	boats	4	correct	0.53929739096202
72523	1	stim024_animate_bird_chicken_4.png	24	animate	bird	chicken	4	0	1	boats	4	correct	0.53929739096202
72573	1	stim177_inanimate_plants_tulip_1.png	177	inanimate	plants	tulip	1	0	1	boats	4	correct	0.53929739096202
72623	1	stim087_animate_mammal_giraffe_3.png	87	animate	mammal	giraffe	3	0	1	boats	4	correct	0.53929739096202
72673	1	stim173_inanimate_plants_tree_1.png	173	inanimate	plants	tree	1	0	1	boats	4	correct	0.53929739096202
72723	1	stim142_inanimate_furniture_bed_2.png	142	inanimate	furniture	bed	2	0	1	boats	4	correct	0.53929739096202
72773	1	stim168_inanimate_plants_cactus_4.png	168	inanimate	plants	cactus	4	0	1	boats	4	correct	0.53929739096202
72823	1	stim018_animate_aquatic_shrimp_2.png	18	animate	aquatic	shrimp	2	0	1	boats	4	correct	0.53929739096202
72873	1	stim010_animate_aquatic_seahorse_2.png	10	animate	aquatic	seahorse	2	0	1	boats	4	correct	0.53929739096202
72923	1	stim045_animate_human_child_1.png	45	animate	human	child	1	0	1	boats	4	correct	0.53929739096202
72973	1	stim085_animate_mammal_giraffe_1.png	85	animate	mammal	giraffe	1	0	1	boats	4	correct	0.53929739096202
73023	1	stim059_animate_human_sports_3.png	59	animate	human	sports	3	0	1	boats	4	correct	0.53929739096202
73073	1	stim097_animate_mammal_rhino_1.png	97	animate	mammal	rhino	1	0	1	boats	4	correct	0.53929739096202
73123	1	stim189_inanimate_tools_pan_1.png	189	inanimate	tools	pan	1	0	1	boats	4	correct	0.53929739096202
73173	1	stim062_animate_insect_ant_2.png	62	animate	insect	ant	2	0	1	boats	4	correct	0.53929739096202
73223	1	stim158_inanimate_furniture_table_2.png	158	inanimate	furniture	table	2	0	1	boats	4	correct	0.53929739096202
73273	1	stim049_animate_human_clown_1.png	49	animate	human	clown	1	0	1	boats	4	correct	0.53929739096202
73323	1	stim068_animate_insect_bug_4.png	68	animate	insect	bug	4	0	1	boats	4	correct	0.53929739096202
73373	1	stim143_inanimate_furniture_bed_3.png	143	inanimate	furniture	bed	3	0	1	boats	4	correct	0.53929739096202
73423	1	stim190_inanimate_tools_pan_2.png	190	inanimate	tools	pan	2	0	1	boats	4	correct	0.53929739096202
73473	1	stim136_inanimate_fruits_pineapple_4.png	136	inanimate	fruits	pineapple	4	0	1	boats	4	correct	0.53929739096202
73523	1	stim179_inanimate_plants_tulip_3.png	179	inanimate	plants	tulip	3	0	1	boats	4	correct	0.53929739096202
73573	1	stim075_animate_insect_dragonfly_3.png	75	animate	insect	dragonfly	3	0	1	boats	4	correct	0.53929739096202
73623	1	stim153_inanimate_furniture_sofa_1.png	153	inanimate	furniture	sofa	1	0	1	boats	4	correct	0.53929739096202
73673	1	stim031_animate_bird_parrot_3.png	31	animate	bird	parrot	3	0	1	boats	4	correct	0.53929739096202
73723	1	stim082_animate_mammal_cow_2.png	82	animate	mammal	cow	2	0	1	boats	4	correct	0.53929739096202
73773	1	stim020_animate_aquatic_shrimp_4.png	20	animate	aquatic	shrimp	4	0	1	boats	4	correct	0.53929739096202
73823	1	stim042_animate_human_baby_2.png	42	animate	human	baby	2	0	1	boats	4	correct	0.53929739096202
73873	1	stim037_animate_bird_penguin_1.png	37	animate	bird	penguin	1	0	1	boats	4	correct	0.53929739096202
73923	1	stim005_animate_aquatic_fish_1.png	5	animate	aquatic	fish	1	0	1	boats	4	correct	0.53929739096202
73973	1	stim156_inanimate_furniture_sofa_4.png	156	inanimate	furniture	sofa	4	0	1	boats	4	correct	0.53929739096202
74023	1	stim001_animate_aquatic_crab_1.png	1	animate	aquatic	crab	1	0	1	boats	4	correct	0.53929739096202
74073	1	stim093_animate_mammal_monkey_1.png	93	animate	mammal	monkey	1	0	1	boats	4	correct	0.53929739096202
74123	1	stim072_animate_insect_butterfly_4.png	72	animate	insect	butterfly	4	0	1	boats	4	correct	0.53929739096202
74173	1	stim029_animate_bird_parrot_1.png	29	animate	bird	parrot	1	0	1	boats	4	correct	0.53929739096202
74223	1	stim162_inanimate_plants_bush_2.png	162	inanimate	plants	bush	2	0	1	boats	4	correct	0.53929739096202
74273	1	stim192_inanimate_tools_pan_4.png	192	inanimate	tools	pan	4	0	1	boats	4	correct	0.53929739096202
74323	1	stim113_inanimate_clothing_shirt_1.png	113	inanimate	clothing	shirt	1	0	1	boats	4	correct	0.53929739096202
74373	1	stim078_animate_insect_grasshopper_2.png	78	animate	insect	grasshopper	2	0	1	boats	4	correct	0.53929739096202
74423	1	stim181_inanimate_tools_broom_1.png	181	inanimate	tools	broom	1	0	1	boats	4	correct	0.53929739096202
74473	1	stim208_targets_object_boats_4.png	208	targets	object	boats	4	1	1	boats	4	correct	0.53929739096202
74523	1	stim066_animate_insect_bug_2.png	66	animate	insect	bug	2	0	1	boats	4	correct	0.53929739096202
74573	1	stim053_animate_human_faces_1.png	53	animate	human	faces	1	0	1	boats	4	correct	0.53929739096202
74623	1	stim039_animate_bird_penguin_3.png	39	animate	bird	penguin	3	0	1	boats	4	correct	0.53929739096202
74673	1	stim171_inanimate_plants_sunflower_3.png	171	inanimate	plants	sunflower	3	0	1	boats	4	correct	0.53929739096202
74723	1	stim139_inanimate_fruits_strawberry_3.png	139	inanimate	fruits	strawberry	3	0	1	boats	4	correct	0.53929739096202
74773	1	stim015_animate_aquatic_shark_3.png	15	animate	aquatic	shark	3	0	1	boats	4	correct	0.53929739096202
74823	1	stim107_inanimate_clothing_hat_3.png	107	inanimate	clothing	hat	3	0	1	boats	4	correct	0.53929739096202
74873	1	stim095_animate_mammal_monkey_3.png	95	animate	mammal	monkey	3	0	1	boats	4	correct	0.53929739096202
74923	1	stim084_animate_mammal_cow_4.png	84	animate	mammal	cow	4	0	1	boats	4	correct	0.53929739096202
74973	1	stim100_animate_mammal_rhino_4.png	100	animate	mammal	rhino	4	0	1	boats	4	correct	0.53929739096202
75023	1	stim133_inanimate_fruits_pineapple_1.png	133	inanimate	fruits	pineapple	1	0	1	boats	4	correct	0.53929739096202
75073	1	stim120_inanimate_clothing_socks_4.png	120	inanimate	clothing	socks	4	0	1	boats	4	correct	0.53929739096202
75123	1	stim089_animate_mammal_kangaroo_1.png	89	animate	mammal	kangaroo	1	0	1	boats	4	correct	0.53929739096202
75173	1	stim036_animate_bird_peacock_4.png	36	animate	bird	peacock	4	0	1	boats	4	correct	0.53929739096202
75223	1	stim160_inanimate_furniture_table_4.png	160	inanimate	furniture	table	4	0	1	boats	4	correct	0.53929739096202
75273	1	stim023_animate_bird_chicken_3.png	23	animate	bird	chicken	3	0	1	boats	4	correct	0.53929739096202
75323	1	stim014_animate_aquatic_shark_2.png	14	animate	aquatic	shark	2	0	1	boats	4	correct	0.53929739096202
75373	1	stim051_animate_human_clown_3.png	51	animate	human	clown	3	0	1	boats	4	correct	0.53929739096202
75423	1	stim079_animate_insect_grasshopper_3.png	79	animate	insect	grasshopper	3	0	1	boats	4	correct	0.53929739096202
75473	1	stim007_animate_aquatic_fish_3.png	7	animate	aquatic	fish	3	0	1	boats	4	correct	0.53929739096202
75523	1	stim041_animate_human_baby_1.png	41	animate	human	baby	1	0	1	boats	4	correct	0.53929739096202
75573	1	stim201_targets_object_boats_1.png	201	targets	object	boats	1	1	1	boats	4	correct	0.53929739096202
75623	1	stim128_inanimate_fruits_banana_4.png	128	inanimate	fruits	banana	4	0	1	boats	4	correct	0.53929739096202
75673	1	stim096_animate_mammal_monkey_4.png	96	animate	mammal	monkey	4	0	1	boats	4	correct	0.53929739096202
75723	1	stim131_inanimate_fruits_grape_3.png	131	inanimate	fruits	grape	3	0	1	boats	4	correct	0.53929739096202
75773	1	stim147_inanimate_furniture_chair_3.png	147	inanimate	furniture	chair	3	0	1	boats	4	correct	0.53929739096202
75823	1	stim055_animate_human_faces_3.png	55	animate	human	faces	3	0	1	boats	4	correct	0.53929739096202
75873	1	stim185_inanimate_tools_hammer_1.png	185	inanimate	tools	hammer	1	0	1	boats	4	correct	0.53929739096202
75923	1	stim117_inanimate_clothing_socks_1.png	117	inanimate	clothing	socks	1	0	1	boats	4	correct	0.53929739096202
75973	1	stim081_animate_mammal_cow_1.png	81	animate	mammal	cow	1	0	1	boats	4	correct	0.53929739096202
76023	1	stim119_inanimate_clothing_socks_3.png	119	inanimate	clothing	socks	3	0	1	boats	4	correct	0.53929739096202
76073	1	stim021_animate_bird_chicken_1.png	21	animate	bird	chicken	1	0	1	boats	4	correct	0.53929739096202
76123	1	stim199_inanimate_tools_wrench_3.png	199	inanimate	tools	wrench	3	0	1	boats	4	correct	0.53929739096202
76173	1	stim125_inanimate_fruits_banana_1.png	125	inanimate	fruits	banana	1	0	1	boats	4	correct	0.53929739096202
76223	1	stim191_inanimate_tools_pan_3.png	191	inanimate	tools	pan	3	0	1	boats	4	correct	0.53929739096202
76273	1	stim070_animate_insect_butterfly_2.png	70	animate	insect	butterfly	2	0	1	boats	4	correct	0.53929739096202
76323	1	stim011_animate_aquatic_seahorse_3.png	11	animate	aquatic	seahorse	3	0	1	boats	4	correct	0.53929739096202
76373	1	stim127_inanimate_fruits_banana_3.png	127	inanimate	fruits	banana	3	0	1	boats	4	correct	0.53929739096202
76423	1	stim184_inanimate_tools_broom_4.png	184	inanimate	tools	broom	4	0	1	boats	4	correct	0.53929739096202
76473	1	stim166_inanimate_plants_cactus_2.png	166	inanimate	plants	cactus	2	0	1	boats	4	correct	0.53929739096202
76523	1	stim022_animate_bird_chicken_2.png	22	animate	bird	chicken	2	0	1	boats	4	correct	0.53929739096202
76573	1	stim121_inanimate_fruits_apple_1.png	121	inanimate	fruits	apple	1	0	1	boats	4	correct	0.53929739096202
76623	1	stim019_animate_aquatic_shrimp_3.png	19	animate	aquatic	shrimp	3	0	1	boats	4	correct	0.53929739096202
76673	1	stim099_animate_mammal_rhino_3.png	99	animate	mammal	rhino	3	0	1	boats	4	correct	0.53929739096202
76723	1	stim138_inanimate_fruits_strawberry_2.png	138	inanimate	fruits	strawberry	2	0	1	boats	4	correct	0.53929739096202
76773	1	stim047_animate_human_child_3.png	47	animate	human	child	3	0	1	boats	4	correct	0.53929739096202
76823	1	stim076_animate_insect_dragonfly_4.png	76	animate	insect	dragonfly	4	0	1	boats	4	correct	0.53929739096202
76873	1	stim002_animate_aquatic_crab_2.png	2	animate	aquatic	crab	2	0	1	boats	4	correct	0.53929739096202
76923	1	stim038_animate_bird_penguin_2.png	38	animate	bird	penguin	2	0	1	boats	4	correct	0.53929739096202
76973	1	stim103_inanimate_clothing_gloves_3.png	103	inanimate	clothing	gloves	3	0	1	boats	4	correct	0.53929739096202
77023	1	stim080_animate_insect_grasshopper_4.png	80	animate	insect	grasshopper	4	0	1	boats	4	correct	0.53929739096202
77073	1	stim169_inanimate_plants_sunflower_1.png	169	inanimate	plants	sunflower	1	0	1	boats	4	correct	0.53929739096202
77123	1	stim025_animate_bird_duck_1.png	25	animate	bird	duck	1	0	1	boats	4	correct	0.53929739096202
77173	1	stim044_animate_human_baby_4.png	44	animate	human	baby	4	0	1	boats	4	correct	0.53929739096202
77223	1	stim194_inanimate_tools_scissors_2.png	194	inanimate	tools	scissors	2	0	1	boats	4	correct	0.53929739096202
77273	1	stim123_inanimate_fruits_apple_3.png	123	inanimate	fruits	apple	3	0	1	boats	4	correct	0.53929739096202
77323	1	stim030_animate_bird_parrot_2.png	30	animate	bird	parrot	2	0	1	boats	4	correct	0.53929739096202
77373	1	stim083_animate_mammal_cow_3.png	83	animate	mammal	cow	3	0	1	boats	4	correct	0.53929739096202
77423	1	stim046_animate_human_child_2.png	46	animate	human	child	2	0	1	boats	4	correct	0.53929739096202
77473	1	stim134_inanimate_fruits_pineapple_2.png	134	inanimate	fruits	pineapple	2	0	1	boats	4	correct	0.53929739096202
77523	1	stim170_inanimate_plants_sunflower_2.png	170	inanimate	plants	sunflower	2	0	1	boats	4	correct	0.53929739096202
77573	1	stim064_animate_insect_ant_4.png	64	animate	insect	ant	4	0	1	boats	4	correct	0.53929739096202
77623	1	stim130_inanimate_fruits_grape_2.png	130	inanimate	fruits	grape	2	0	1	boats	4	correct	0.53929739096202
77673	1	stim060_animate_human_sports_4.png	60	animate	human	sports	4	0	1	boats	4	correct	0.53929739096202
77723	1	stim154_inanimate_furniture_sofa_2.png	154	inanimate	furniture	sofa	2	0	1	boats	4	correct	0.53929739096202
77773	1	stim167_inanimate_plants_cactus_3.png	167	inanimate	plants	cactus	3	0	1	boats	4	correct	0.53929739096202
77823	1	stim106_inanimate_clothing_hat_2.png	106	inanimate	clothing	hat	2	0	1	boats	4	correct	0.53929739096202
77873	1	stim118_inanimate_clothing_socks_2.png	118	inanimate	clothing	socks	2	0	1	boats	4	correct	0.53929739096202
77923	1	stim028_animate_bird_duck_4.png	28	animate	bird	duck	4	0	1	boats	4	correct	0.53929739096202
77973	1	stim157_inanimate_furniture_table_1.png	157	inanimate	furniture	table	1	0	1	boats	4	correct	0.53929739096202
78023	1	stim016_animate_aquatic_shark_4.png	16	animate	aquatic	shark	4	0	1	boats	4	correct	0.53929739096202
78073	1	stim052_animate_human_clown_4.png	52	animate	human	clown	4	0	1	boats	4	correct	0.53929739096202
78123	1	stim061_animate_insect_ant_1.png	61	animate	insect	ant	1	0	1	boats	4	correct	0.53929739096202
78173	1	stim086_animate_mammal_giraffe_2.png	86	animate	mammal	giraffe	2	0	1	boats	4	correct	0.53929739096202
78223	1	stim183_inanimate_tools_broom_3.png	183	inanimate	tools	broom	3	0	1	boats	4	correct	0.53929739096202
78273	1	stim126_inanimate_fruits_banana_2.png	126	inanimate	fruits	banana	2	0	1	boats	4	correct	0.53929739096202
78323	1	stim063_animate_insect_ant_3.png	63	animate	insect	ant	3	0	1	boats	4	correct	0.53929739096202
78373	1	stim116_inanimate_clothing_shirt_4.png	116	inanimate	clothing	shirt	4	0	1	boats	4	correct	0.53929739096202
78423	1	stim146_inanimate_furniture_chair_2.png	146	inanimate	furniture	chair	2	0	1	boats	4	correct	0.53929739096202
78473	1	stim198_inanimate_tools_wrench_2.png	198	inanimate	tools	wrench	2	0	1	boats	4	correct	0.53929739096202
78523	1	stim140_inanimate_fruits_strawberry_4.png	140	inanimate	fruits	strawberry	4	0	1	boats	4	correct	0.53929739096202
78573	1	stim159_inanimate_furniture_table_3.png	159	inanimate	furniture	table	3	0	1	boats	4	correct	0.53929739096202
78623	1	stim048_animate_human_child_4.png	48	animate	human	child	4	0	1	boats	4	correct	0.53929739096202
78673	1	stim034_animate_bird_peacock_2.png	34	animate	bird	peacock	2	0	1	boats	4	correct	0.53929739096202
89024	1	stim169_inanimate_plants_sunflower_1.png	169	inanimate	plants	sunflower	1	0	2	stars	1	incorrect	0.833720502210781
89074	1	stim057_animate_human_sports_1.png	57	animate	human	sports	1	0	2	stars	1	incorrect	0.833720502210781
89124	1	stim152_inanimate_furniture_closet_4.png	152	inanimate	furniture	closet	4	0	2	stars	1	incorrect	0.833720502210781
89174	1	stim044_animate_human_baby_4.png	44	animate	human	baby	4	0	2	stars	1	incorrect	0.833720502210781
89224	1	stim026_animate_bird_duck_2.png	26	animate	bird	duck	2	0	2	stars	1	incorrect	0.833720502210781
89274	1	stim156_inanimate_furniture_sofa_4.png	156	inanimate	furniture	sofa	4	0	2	stars	1	incorrect	0.833720502210781
89324	1	stim121_inanimate_fruits_apple_1.png	121	inanimate	fruits	apple	1	0	2	stars	1	incorrect	0.833720502210781
89374	1	stim154_inanimate_furniture_sofa_2.png	154	inanimate	furniture	sofa	2	0	2	stars	1	incorrect	0.833720502210781
89424	1	stim200_inanimate_tools_wrench_4.png	200	inanimate	tools	wrench	4	0	2	stars	1	incorrect	0.833720502210781
89474	1	stim078_animate_insect_grasshopper_2.png	78	animate	insect	grasshopper	2	0	2	stars	1	incorrect	0.833720502210781
89524	1	stim103_inanimate_clothing_gloves_3.png	103	inanimate	clothing	gloves	3	0	2	stars	1	incorrect	0.833720502210781
89574	1	stim140_inanimate_fruits_strawberry_4.png	140	inanimate	fruits	strawberry	4	0	2	stars	1	incorrect	0.833720502210781
89624	1	stim194_inanimate_tools_scissors_2.png	194	inanimate	tools	scissors	2	0	2	stars	1	incorrect	0.833720502210781
89674	1	stim102_inanimate_clothing_gloves_2.png	102	inanimate	clothing	gloves	2	0	2	stars	1	incorrect	0.833720502210781
89724	1	stim046_animate_human_child_2.png	46	animate	human	child	2	0	2	stars	1	incorrect	0.833720502210781
89774	1	stim020_animate_aquatic_shrimp_4.png	20	animate	aquatic	shrimp	4	0	2	stars	1	incorrect	0.833720502210781
89824	1	stim110_inanimate_clothing_jeans_2.png	110	inanimate	clothing	jeans	2	0	2	stars	1	incorrect	0.833720502210781
89874	1	stim059_animate_human_sports_3.png	59	animate	human	sports	3	0	2	stars	1	incorrect	0.833720502210781
89924	1	stim075_animate_insect_dragonfly_3.png	75	animate	insect	dragonfly	3	0	2	stars	1	incorrect	0.833720502210781
89974	1	stim033_animate_bird_peacock_1.png	33	animate	bird	peacock	1	0	2	stars	1	incorrect	0.833720502210781
90024	1	stim021_animate_bird_chicken_1.png	21	animate	bird	chicken	1	0	2	stars	1	incorrect	0.833720502210781
90074	1	stim191_inanimate_tools_pan_3.png	191	inanimate	tools	pan	3	0	2	stars	1	incorrect	0.833720502210781
90124	1	stim186_inanimate_tools_hammer_2.png	186	inanimate	tools	hammer	2	0	2	stars	1	incorrect	0.833720502210781
90174	1	stim173_inanimate_plants_tree_1.png	173	inanimate	plants	tree	1	0	2	stars	1	incorrect	0.833720502210781
90224	1	stim024_animate_bird_chicken_4.png	24	animate	bird	chicken	4	0	2	stars	1	incorrect	0.833720502210781
90274	1	stim089_animate_mammal_kangaroo_1.png	89	animate	mammal	kangaroo	1	0	2	stars	1	incorrect	0.833720502210781
90324	1	stim074_animate_insect_dragonfly_2.png	74	animate	insect	dragonfly	2	0	2	stars	1	incorrect	0.833720502210781
90374	1	stim143_inanimate_furniture_bed_3.png	143	inanimate	furniture	bed	3	0	2	stars	1	incorrect	0.833720502210781
90424	1	stim115_inanimate_clothing_shirt_3.png	115	inanimate	clothing	shirt	3	0	2	stars	1	incorrect	0.833720502210781
90474	1	stim034_animate_bird_peacock_2.png	34	animate	bird	peacock	2	0	2	stars	1	incorrect	0.833720502210781
90524	1	stim179_inanimate_plants_tulip_3.png	179	inanimate	plants	tulip	3	0	2	stars	1	incorrect	0.833720502210781
90574	1	stim081_animate_mammal_cow_1.png	81	animate	mammal	cow	1	0	2	stars	1	incorrect	0.833720502210781
90624	1	stim058_animate_human_sports_2.png	58	animate	human	sports	2	0	2	stars	1	incorrect	0.833720502210781
90674	1	stim171_inanimate_plants_sunflower_3.png	171	inanimate	plants	sunflower	3	0	2	stars	1	incorrect	0.833720502210781
90724	1	stim003_animate_aquatic_crab_3.png	3	animate	aquatic	crab	3	0	2	stars	1	incorrect	0.833720502210781
90774	1	stim185_inanimate_tools_hammer_1.png	185	inanimate	tools	hammer	1	0	2	stars	1	incorrect	0.833720502210781
90824	1	stim028_animate_bird_duck_4.png	28	animate	bird	duck	4	0	2	stars	1	incorrect	0.833720502210781
90874	1	stim018_animate_aquatic_shrimp_2.png	18	animate	aquatic	shrimp	2	0	2	stars	1	incorrect	0.833720502210781
90924	1	stim006_animate_aquatic_fish_2.png	6	animate	aquatic	fish	2	0	2	stars	1	incorrect	0.833720502210781
90974	1	stim170_inanimate_plants_sunflower_2.png	170	inanimate	plants	sunflower	2	0	2	stars	1	incorrect	0.833720502210781
91024	1	stim131_inanimate_fruits_grape_3.png	131	inanimate	fruits	grape	3	0	2	stars	1	incorrect	0.833720502210781
91074	1	stim180_inanimate_plants_tulip_4.png	180	inanimate	plants	tulip	4	0	2	stars	1	incorrect	0.833720502210781
91124	1	stim098_animate_mammal_rhino_2.png	98	animate	mammal	rhino	2	0	2	stars	1	incorrect	0.833720502210781
91174	1	stim112_inanimate_clothing_jeans_4.png	112	inanimate	clothing	jeans	4	0	2	stars	1	incorrect	0.833720502210781
91224	1	stim092_animate_mammal_kangaroo_4.png	92	animate	mammal	kangaroo	4	0	2	stars	1	incorrect	0.833720502210781
91274	1	stim056_animate_human_faces_4.png	56	animate	human	faces	4	0	2	stars	1	incorrect	0.833720502210781
91324	1	stim085_animate_mammal_giraffe_1.png	85	animate	mammal	giraffe	1	0	2	stars	1	incorrect	0.833720502210781
91374	1	stim128_inanimate_fruits_banana_4.png	128	inanimate	fruits	banana	4	0	2	stars	1	incorrect	0.833720502210781
91424	1	stim108_inanimate_clothing_hat_4.png	108	inanimate	clothing	hat	4	0	2	stars	1	incorrect	0.833720502210781
91474	1	stim109_inanimate_clothing_jeans_1.png	109	inanimate	clothing	jeans	1	0	2	stars	1	incorrect	0.833720502210781
91524	1	stim111_inanimate_clothing_jeans_3.png	111	inanimate	clothing	jeans	3	0	2	stars	1	incorrect	0.833720502210781
91574	1	stim053_animate_human_faces_1.png	53	animate	human	faces	1	0	2	stars	1	incorrect	0.833720502210781
91624	1	stim039_animate_bird_penguin_3.png	39	animate	bird	penguin	3	0	2	stars	1	incorrect	0.833720502210781
91674	1	stim064_animate_insect_ant_4.png	64	animate	insect	ant	4	0	2	stars	1	incorrect	0.833720502210781
91724	1	stim095_animate_mammal_monkey_3.png	95	animate	mammal	monkey	3	0	2	stars	1	incorrect	0.833720502210781
91774	1	stim182_inanimate_tools_broom_2.png	182	inanimate	tools	broom	2	0	2	stars	1	incorrect	0.833720502210781
91824	1	stim197_inanimate_tools_wrench_1.png	197	inanimate	tools	wrench	1	0	2	stars	1	incorrect	0.833720502210781
91874	1	stim076_animate_insect_dragonfly_4.png	76	animate	insect	dragonfly	4	0	2	stars	1	incorrect	0.833720502210781
91924	1	stim002_animate_aquatic_crab_2.png	2	animate	aquatic	crab	2	0	2	stars	1	incorrect	0.833720502210781
91974	1	stim135_inanimate_fruits_pineapple_3.png	135	inanimate	fruits	pineapple	3	0	2	stars	1	incorrect	0.833720502210781
92024	1	stim151_inanimate_furniture_closet_3.png	151	inanimate	furniture	closet	3	0	2	stars	1	incorrect	0.833720502210781
92074	1	stim005_animate_aquatic_fish_1.png	5	animate	aquatic	fish	1	0	2	stars	1	incorrect	0.833720502210781
92124	1	stim084_animate_mammal_cow_4.png	84	animate	mammal	cow	4	0	2	stars	1	incorrect	0.833720502210781
92174	1	stim090_animate_mammal_kangaroo_2.png	90	animate	mammal	kangaroo	2	0	2	stars	1	incorrect	0.833720502210781
92224	1	stim149_inanimate_furniture_closet_1.png	149	inanimate	furniture	closet	1	0	2	stars	1	incorrect	0.833720502210781
92274	1	stim069_animate_insect_butterfly_1.png	69	animate	insect	butterfly	1	0	2	stars	1	incorrect	0.833720502210781
92324	1	stim123_inanimate_fruits_apple_3.png	123	inanimate	fruits	apple	3	0	2	stars	1	incorrect	0.833720502210781
92374	1	stim125_inanimate_fruits_banana_1.png	125	inanimate	fruits	banana	1	0	2	stars	1	incorrect	0.833720502210781
92424	1	stim166_inanimate_plants_cactus_2.png	166	inanimate	plants	cactus	2	0	2	stars	1	incorrect	0.833720502210781
92474	1	stim032_animate_bird_parrot_4.png	32	animate	bird	parrot	4	0	2	stars	1	incorrect	0.833720502210781
92524	1	stim189_inanimate_tools_pan_1.png	189	inanimate	tools	pan	1	0	2	stars	1	incorrect	0.833720502210781
92574	1	stim113_inanimate_clothing_shirt_1.png	113	inanimate	clothing	shirt	1	0	2	stars	1	incorrect	0.833720502210781
92624	1	stim083_animate_mammal_cow_3.png	83	animate	mammal	cow	3	0	2	stars	1	incorrect	0.833720502210781
92674	1	stim188_inanimate_tools_hammer_4.png	188	inanimate	tools	hammer	4	0	2	stars	1	incorrect	0.833720502210781
92724	1	stim036_animate_bird_peacock_4.png	36	animate	bird	peacock	4	0	2	stars	1	incorrect	0.833720502210781
92774	1	stim133_inanimate_fruits_pineapple_1.png	133	inanimate	fruits	pineapple	1	0	2	stars	1	incorrect	0.833720502210781
92824	1	stim022_animate_bird_chicken_2.png	22	animate	bird	chicken	2	0	2	stars	1	incorrect	0.833720502210781
92874	1	stim192_inanimate_tools_pan_4.png	192	inanimate	tools	pan	4	0	2	stars	1	incorrect	0.833720502210781
92924	1	stim190_inanimate_tools_pan_2.png	190	inanimate	tools	pan	2	0	2	stars	1	incorrect	0.833720502210781
92974	1	stim216_targets_shapes_star_4.png	216	targets	shapes	star	4	1	2	stars	1	incorrect	0.833720502210781
93024	1	stim100_animate_mammal_rhino_4.png	100	animate	mammal	rhino	4	0	2	stars	1	incorrect	0.833720502210781
93074	1	stim050_animate_human_clown_2.png	50	animate	human	clown	2	0	2	stars	1	incorrect	0.833720502210781
93124	1	stim105_inanimate_clothing_hat_1.png	105	inanimate	clothing	hat	1	0	2	stars	1	incorrect	0.833720502210781
93174	1	stim158_inanimate_furniture_table_2.png	158	inanimate	furniture	table	2	0	2	stars	1	incorrect	0.833720502210781
93224	1	stim091_animate_mammal_kangaroo_3.png	91	animate	mammal	kangaroo	3	0	2	stars	1	incorrect	0.833720502210781
93274	1	stim029_animate_bird_parrot_1.png	29	animate	bird	parrot	1	0	2	stars	1	incorrect	0.833720502210781
93324	1	stim067_animate_insect_bug_3.png	67	animate	insect	bug	3	0	2	stars	1	incorrect	0.833720502210781
93374	1	stim196_inanimate_tools_scissors_4.png	196	inanimate	tools	scissors	4	0	2	stars	1	incorrect	0.833720502210781
93424	1	stim071_animate_insect_butterfly_3.png	71	animate	insect	butterfly	3	0	2	stars	1	incorrect	0.833720502210781
93474	1	stim187_inanimate_tools_hammer_3.png	187	inanimate	tools	hammer	3	0	2	stars	1	incorrect	0.833720502210781
93524	1	stim184_inanimate_tools_broom_4.png	184	inanimate	tools	broom	4	0	2	stars	1	incorrect	0.833720502210781
93574	1	stim080_animate_insect_grasshopper_4.png	80	animate	insect	grasshopper	4	0	2	stars	1	incorrect	0.833720502210781
93624	1	stim144_inanimate_furniture_bed_4.png	144	inanimate	furniture	bed	4	0	2	stars	1	incorrect	0.833720502210781
93674	1	stim097_animate_mammal_rhino_1.png	97	animate	mammal	rhino	1	0	2	stars	1	incorrect	0.833720502210781
93724	1	stim017_animate_aquatic_shrimp_1.png	17	animate	aquatic	shrimp	1	0	2	stars	1	incorrect	0.833720502210781
93774	1	stim066_animate_insect_bug_2.png	66	animate	insect	bug	2	0	2	stars	1	incorrect	0.833720502210781
93824	1	stim138_inanimate_fruits_strawberry_2.png	138	inanimate	fruits	strawberry	2	0	2	stars	1	incorrect	0.833720502210781
93874	1	stim062_animate_insect_ant_2.png	62	animate	insect	ant	2	0	2	stars	1	incorrect	0.833720502210781
93924	1	stim043_animate_human_baby_3.png	43	animate	human	baby	3	0	2	stars	1	incorrect	0.833720502210781
93974	1	stim045_animate_human_child_1.png	45	animate	human	child	1	0	2	stars	1	incorrect	0.833720502210781
94024	1	stim198_inanimate_tools_wrench_2.png	198	inanimate	tools	wrench	2	0	2	stars	1	incorrect	0.833720502210781
94074	1	stim096_animate_mammal_monkey_4.png	96	animate	mammal	monkey	4	0	2	stars	1	incorrect	0.833720502210781
94124	1	stim016_animate_aquatic_shark_4.png	16	animate	aquatic	shark	4	0	2	stars	1	incorrect	0.833720502210781
94174	1	stim172_inanimate_plants_sunflower_4.png	172	inanimate	plants	sunflower	4	0	2	stars	1	incorrect	0.833720502210781
94224	1	stim139_inanimate_fruits_strawberry_3.png	139	inanimate	fruits	strawberry	3	0	2	stars	1	incorrect	0.833720502210781
94274	1	stim038_animate_bird_penguin_2.png	38	animate	bird	penguin	2	0	2	stars	1	incorrect	0.833720502210781
94324	1	stim132_inanimate_fruits_grape_4.png	132	inanimate	fruits	grape	4	0	2	stars	1	incorrect	0.833720502210781
94374	1	stim027_animate_bird_duck_3.png	27	animate	bird	duck	3	0	2	stars	1	incorrect	0.833720502210781
94424	1	stim147_inanimate_furniture_chair_3.png	147	inanimate	furniture	chair	3	0	2	stars	1	incorrect	0.833720502210781
94474	1	stim142_inanimate_furniture_bed_2.png	142	inanimate	furniture	bed	2	0	2	stars	1	incorrect	0.833720502210781
94524	1	stim012_animate_aquatic_seahorse_4.png	12	animate	aquatic	seahorse	4	0	2	stars	1	incorrect	0.833720502210781
94574	1	stim054_animate_human_faces_2.png	54	animate	human	faces	2	0	2	stars	1	incorrect	0.833720502210781
94624	1	stim136_inanimate_fruits_pineapple_4.png	136	inanimate	fruits	pineapple	4	0	2	stars	1	incorrect	0.833720502210781
94674	1	stim150_inanimate_furniture_closet_2.png	150	inanimate	furniture	closet	2	0	2	stars	1	incorrect	0.833720502210781
94724	1	stim087_animate_mammal_giraffe_3.png	87	animate	mammal	giraffe	3	0	2	stars	1	incorrect	0.833720502210781
94774	1	stim116_inanimate_clothing_shirt_4.png	116	inanimate	clothing	shirt	4	0	2	stars	1	incorrect	0.833720502210781
94824	1	stim047_animate_human_child_3.png	47	animate	human	child	3	0	2	stars	1	incorrect	0.833720502210781
94874	1	stim122_inanimate_fruits_apple_2.png	122	inanimate	fruits	apple	2	0	2	stars	1	incorrect	0.833720502210781
94924	1	stim153_inanimate_furniture_sofa_1.png	153	inanimate	furniture	sofa	1	0	2	stars	1	incorrect	0.833720502210781
94974	1	stim107_inanimate_clothing_hat_3.png	107	inanimate	clothing	hat	3	0	2	stars	1	incorrect	0.833720502210781
95024	1	stim160_inanimate_furniture_table_4.png	160	inanimate	furniture	table	4	0	2	stars	1	incorrect	0.833720502210781
95074	1	stim007_animate_aquatic_fish_3.png	7	animate	aquatic	fish	3	0	2	stars	1	incorrect	0.833720502210781
95124	1	stim195_inanimate_tools_scissors_3.png	195	inanimate	tools	scissors	3	0	2	stars	1	incorrect	0.833720502210781
95174	1	stim209_targets_shapes_star_1.png	209	targets	shapes	star	1	1	2	stars	1	incorrect	0.833720502210781
95224	1	stim101_inanimate_clothing_gloves_1.png	101	inanimate	clothing	gloves	1	0	2	stars	1	incorrect	0.833720502210781
95274	1	stim178_inanimate_plants_tulip_2.png	178	inanimate	plants	tulip	2	0	2	stars	1	incorrect	0.833720502210781
95324	1	stim176_inanimate_plants_tree_4.png	176	inanimate	plants	tree	4	0	2	stars	1	incorrect	0.833720502210781
95374	1	stim009_animate_aquatic_seahorse_1.png	9	animate	aquatic	seahorse	1	0	2	stars	1	incorrect	0.833720502210781
95424	1	stim117_inanimate_clothing_socks_1.png	117	inanimate	clothing	socks	1	0	2	stars	1	incorrect	0.833720502210781
95474	1	stim061_animate_insect_ant_1.png	61	animate	insect	ant	1	0	2	stars	1	incorrect	0.833720502210781
95524	1	stim137_inanimate_fruits_strawberry_1.png	137	inanimate	fruits	strawberry	1	0	2	stars	1	incorrect	0.833720502210781
95574	1	stim041_animate_human_baby_1.png	41	animate	human	baby	1	0	2	stars	1	incorrect	0.833720502210781
95624	1	stim165_inanimate_plants_cactus_1.png	165	inanimate	plants	cactus	1	0	2	stars	1	incorrect	0.833720502210781
95674	1	stim093_animate_mammal_monkey_1.png	93	animate	mammal	monkey	1	0	2	stars	1	incorrect	0.833720502210781
95724	1	stim031_animate_bird_parrot_3.png	31	animate	bird	parrot	3	0	2	stars	1	incorrect	0.833720502210781
95774	1	stim159_inanimate_furniture_table_3.png	159	inanimate	furniture	table	3	0	2	stars	1	incorrect	0.833720502210781
95824	1	stim130_inanimate_fruits_grape_2.png	130	inanimate	fruits	grape	2	0	2	stars	1	incorrect	0.833720502210781
95874	1	stim127_inanimate_fruits_banana_3.png	127	inanimate	fruits	banana	3	0	2	stars	1	incorrect	0.833720502210781
95924	1	stim065_animate_insect_bug_1.png	65	animate	insect	bug	1	0	2	stars	1	incorrect	0.833720502210781
95974	1	stim141_inanimate_furniture_bed_1.png	141	inanimate	furniture	bed	1	0	2	stars	1	incorrect	0.833720502210781
96024	1	stim162_inanimate_plants_bush_2.png	162	inanimate	plants	bush	2	0	2	stars	1	incorrect	0.833720502210781
96074	1	stim063_animate_insect_ant_3.png	63	animate	insect	ant	3	0	2	stars	1	incorrect	0.833720502210781
96124	1	stim072_animate_insect_butterfly_4.png	72	animate	insect	butterfly	4	0	2	stars	1	incorrect	0.833720502210781
96174	1	stim019_animate_aquatic_shrimp_3.png	19	animate	aquatic	shrimp	3	0	2	stars	1	incorrect	0.833720502210781
96224	1	stim014_animate_aquatic_shark_2.png	14	animate	aquatic	shark	2	0	2	stars	1	incorrect	0.833720502210781
96274	1	stim025_animate_bird_duck_1.png	25	animate	bird	duck	1	0	2	stars	1	incorrect	0.833720502210781
96324	1	stim124_inanimate_fruits_apple_4.png	124	inanimate	fruits	apple	4	0	2	stars	1	incorrect	0.833720502210781
96374	1	stim114_inanimate_clothing_shirt_2.png	114	inanimate	clothing	shirt	2	0	2	stars	1	incorrect	0.833720502210781
96424	1	stim052_animate_human_clown_4.png	52	animate	human	clown	4	0	2	stars	1	incorrect	0.833720502210781
96474	1	stim023_animate_bird_chicken_3.png	23	animate	bird	chicken	3	0	2	stars	1	incorrect	0.833720502210781
96524	1	stim164_inanimate_plants_bush_4.png	164	inanimate	plants	bush	4	0	2	stars	1	incorrect	0.833720502210781
96574	1	stim001_animate_aquatic_crab_1.png	1	animate	aquatic	crab	1	0	2	stars	1	incorrect	0.833720502210781
96624	1	stim040_animate_bird_penguin_4.png	40	animate	bird	penguin	4	0	2	stars	1	incorrect	0.833720502210781
96674	1	stim048_animate_human_child_4.png	48	animate	human	child	4	0	2	stars	1	incorrect	0.833720502210781
96724	1	stim183_inanimate_tools_broom_3.png	183	inanimate	tools	broom	3	0	2	stars	1	incorrect	0.833720502210781
96774	1	stim082_animate_mammal_cow_2.png	82	animate	mammal	cow	2	0	2	stars	1	incorrect	0.833720502210781
96824	1	stim155_inanimate_furniture_sofa_3.png	155	inanimate	furniture	sofa	3	0	2	stars	1	incorrect	0.833720502210781
96874	1	stim035_animate_bird_peacock_3.png	35	animate	bird	peacock	3	0	2	stars	1	incorrect	0.833720502210781
96924	1	stim042_animate_human_baby_2.png	42	animate	human	baby	2	0	2	stars	1	incorrect	0.833720502210781
96974	1	stim015_animate_aquatic_shark_3.png	15	animate	aquatic	shark	3	0	2	stars	1	incorrect	0.833720502210781
97024	1	stim148_inanimate_furniture_chair_4.png	148	inanimate	furniture	chair	4	0	2	stars	1	incorrect	0.833720502210781
97074	1	stim088_animate_mammal_giraffe_4.png	88	animate	mammal	giraffe	4	0	2	stars	1	incorrect	0.833720502210781
97124	1	stim037_animate_bird_penguin_1.png	37	animate	bird	penguin	1	0	2	stars	1	incorrect	0.833720502210781
97174	1	stim199_inanimate_tools_wrench_3.png	199	inanimate	tools	wrench	3	0	2	stars	1	incorrect	0.833720502210781
97224	1	stim079_animate_insect_grasshopper_3.png	79	animate	insect	grasshopper	3	0	2	stars	1	incorrect	0.833720502210781
97274	1	stim163_inanimate_plants_bush_3.png	163	inanimate	plants	bush	3	0	2	stars	1	incorrect	0.833720502210781
97324	1	stim099_animate_mammal_rhino_3.png	99	animate	mammal	rhino	3	0	2	stars	1	incorrect	0.833720502210781
97374	1	stim177_inanimate_plants_tulip_1.png	177	inanimate	plants	tulip	1	0	2	stars	1	incorrect	0.833720502210781
97424	1	stim120_inanimate_clothing_socks_4.png	120	inanimate	clothing	socks	4	0	2	stars	1	incorrect	0.833720502210781
97474	1	stim055_animate_human_faces_3.png	55	animate	human	faces	3	0	2	stars	1	incorrect	0.833720502210781
97524	1	stim051_animate_human_clown_3.png	51	animate	human	clown	3	0	2	stars	1	incorrect	0.833720502210781
97574	1	stim106_inanimate_clothing_hat_2.png	106	inanimate	clothing	hat	2	0	2	stars	1	incorrect	0.833720502210781
97624	1	stim134_inanimate_fruits_pineapple_2.png	134	inanimate	fruits	pineapple	2	0	2	stars	1	incorrect	0.833720502210781
97674	1	stim030_animate_bird_parrot_2.png	30	animate	bird	parrot	2	0	2	stars	1	incorrect	0.833720502210781
97724	1	stim060_animate_human_sports_4.png	60	animate	human	sports	4	0	2	stars	1	incorrect	0.833720502210781
97774	1	stim068_animate_insect_bug_4.png	68	animate	insect	bug	4	0	2	stars	1	incorrect	0.833720502210781
97824	1	stim104_inanimate_clothing_gloves_4.png	104	inanimate	clothing	gloves	4	0	2	stars	1	incorrect	0.833720502210781
97874	1	stim004_animate_aquatic_crab_4.png	4	animate	aquatic	crab	4	0	2	stars	1	incorrect	0.833720502210781
97924	1	stim070_animate_insect_butterfly_2.png	70	animate	insect	butterfly	2	0	2	stars	1	incorrect	0.833720502210781
97974	1	stim167_inanimate_plants_cactus_3.png	167	inanimate	plants	cactus	3	0	2	stars	1	incorrect	0.833720502210781
98024	1	stim011_animate_aquatic_seahorse_3.png	11	animate	aquatic	seahorse	3	0	2	stars	1	incorrect	0.833720502210781
98074	1	stim049_animate_human_clown_1.png	49	animate	human	clown	1	0	2	stars	1	incorrect	0.833720502210781
98124	1	stim086_animate_mammal_giraffe_2.png	86	animate	mammal	giraffe	2	0	2	stars	1	incorrect	0.833720502210781
98174	1	stim118_inanimate_clothing_socks_2.png	118	inanimate	clothing	socks	2	0	2	stars	1	incorrect	0.833720502210781
98224	1	stim077_animate_insect_grasshopper_1.png	77	animate	insect	grasshopper	1	0	2	stars	1	incorrect	0.833720502210781
98274	1	stim008_animate_aquatic_fish_4.png	8	animate	aquatic	fish	4	0	2	stars	1	incorrect	0.833720502210781
98324	1	stim013_animate_aquatic_shark_1.png	13	animate	aquatic	shark	1	0	2	stars	1	incorrect	0.833720502210781
98374	1	stim119_inanimate_clothing_socks_3.png	119	inanimate	clothing	socks	3	0	2	stars	1	incorrect	0.833720502210781
98424	1	stim181_inanimate_tools_broom_1.png	181	inanimate	tools	broom	1	0	2	stars	1	incorrect	0.833720502210781
98474	1	stim145_inanimate_furniture_chair_1.png	145	inanimate	furniture	chair	1	0	2	stars	1	incorrect	0.833720502210781
98524	1	stim193_inanimate_tools_scissors_1.png	193	inanimate	tools	scissors	1	0	2	stars	1	incorrect	0.833720502210781
98574	1	stim073_animate_insect_dragonfly_1.png	73	animate	insect	dragonfly	1	0	2	stars	1	incorrect	0.833720502210781
98624	1	stim094_animate_mammal_monkey_2.png	94	animate	mammal	monkey	2	0	2	stars	1	incorrect	0.833720502210781
98674	1	stim168_inanimate_plants_cactus_4.png	168	inanimate	plants	cactus	4	0	2	stars	1	incorrect	0.833720502210781
98724	1	stim157_inanimate_furniture_table_1.png	157	inanimate	furniture	table	1	0	2	stars	1	incorrect	0.833720502210781
98774	1	stim126_inanimate_fruits_banana_2.png	126	inanimate	fruits	banana	2	0	2	stars	1	incorrect	0.833720502210781
98824	1	stim010_animate_aquatic_seahorse_2.png	10	animate	aquatic	seahorse	2	0	2	stars	1	incorrect	0.833720502210781
98874	1	stim175_inanimate_plants_tree_3.png	175	inanimate	plants	tree	3	0	2	stars	1	incorrect	0.833720502210781
98924	1	stim174_inanimate_plants_tree_2.png	174	inanimate	plants	tree	2	0	2	stars	1	incorrect	0.833720502210781
98974	1	stim161_inanimate_plants_bush_1.png	161	inanimate	plants	bush	1	0	2	stars	1	incorrect	0.833720502210781
99024	1	stim146_inanimate_furniture_chair_2.png	146	inanimate	furniture	chair	2	0	2	stars	1	incorrect	0.833720502210781
99074	1	stim129_inanimate_fruits_grape_1.png	129	inanimate	fruits	grape	1	0	2	stars	1	incorrect	0.833720502210781
106841	1	stim186_inanimate_tools_hammer_2.png	186	inanimate	tools	hammer	2	0	3	boats	2	incorrect	1.45533539599273
106891	1	stim188_inanimate_tools_hammer_4.png	188	inanimate	tools	hammer	4	0	3	boats	2	incorrect	1.45533539599273
106941	1	stim044_animate_human_baby_4.png	44	animate	human	baby	4	0	3	boats	2	incorrect	1.45533539599273
106991	1	stim107_inanimate_clothing_hat_3.png	107	inanimate	clothing	hat	3	0	3	boats	2	incorrect	1.45533539599273
107041	1	stim148_inanimate_furniture_chair_4.png	148	inanimate	furniture	chair	4	0	3	boats	2	incorrect	1.45533539599273
107091	1	stim086_animate_mammal_giraffe_2.png	86	animate	mammal	giraffe	2	0	3	boats	2	incorrect	1.45533539599273
107141	1	stim135_inanimate_fruits_pineapple_3.png	135	inanimate	fruits	pineapple	3	0	3	boats	2	incorrect	1.45533539599273
107191	1	stim142_inanimate_furniture_bed_2.png	142	inanimate	furniture	bed	2	0	3	boats	2	incorrect	1.45533539599273
107241	1	stim146_inanimate_furniture_chair_2.png	146	inanimate	furniture	chair	2	0	3	boats	2	incorrect	1.45533539599273
107291	1	stim138_inanimate_fruits_strawberry_2.png	138	inanimate	fruits	strawberry	2	0	3	boats	2	incorrect	1.45533539599273
107341	1	stim143_inanimate_furniture_bed_3.png	143	inanimate	furniture	bed	3	0	3	boats	2	incorrect	1.45533539599273
107391	1	stim117_inanimate_clothing_socks_1.png	117	inanimate	clothing	socks	1	0	3	boats	2	incorrect	1.45533539599273
107441	1	stim001_animate_aquatic_crab_1.png	1	animate	aquatic	crab	1	0	3	boats	2	incorrect	1.45533539599273
107491	1	stim170_inanimate_plants_sunflower_2.png	170	inanimate	plants	sunflower	2	0	3	boats	2	incorrect	1.45533539599273
107541	1	stim154_inanimate_furniture_sofa_2.png	154	inanimate	furniture	sofa	2	0	3	boats	2	incorrect	1.45533539599273
107591	1	stim038_animate_bird_penguin_2.png	38	animate	bird	penguin	2	0	3	boats	2	incorrect	1.45533539599273
107641	1	stim155_inanimate_furniture_sofa_3.png	155	inanimate	furniture	sofa	3	0	3	boats	2	incorrect	1.45533539599273
107691	1	stim034_animate_bird_peacock_2.png	34	animate	bird	peacock	2	0	3	boats	2	incorrect	1.45533539599273
107741	1	stim181_inanimate_tools_broom_1.png	181	inanimate	tools	broom	1	0	3	boats	2	incorrect	1.45533539599273
107791	1	stim189_inanimate_tools_pan_1.png	189	inanimate	tools	pan	1	0	3	boats	2	incorrect	1.45533539599273
107841	1	stim132_inanimate_fruits_grape_4.png	132	inanimate	fruits	grape	4	0	3	boats	2	incorrect	1.45533539599273
107891	1	stim179_inanimate_plants_tulip_3.png	179	inanimate	plants	tulip	3	0	3	boats	2	incorrect	1.45533539599273
107941	1	stim102_inanimate_clothing_gloves_2.png	102	inanimate	clothing	gloves	2	0	3	boats	2	incorrect	1.45533539599273
107991	1	stim051_animate_human_clown_3.png	51	animate	human	clown	3	0	3	boats	2	incorrect	1.45533539599273
108041	1	stim144_inanimate_furniture_bed_4.png	144	inanimate	furniture	bed	4	0	3	boats	2	incorrect	1.45533539599273
108091	1	stim049_animate_human_clown_1.png	49	animate	human	clown	1	0	3	boats	2	incorrect	1.45533539599273
108141	1	stim174_inanimate_plants_tree_2.png	174	inanimate	plants	tree	2	0	3	boats	2	incorrect	1.45533539599273
108191	1	stim176_inanimate_plants_tree_4.png	176	inanimate	plants	tree	4	0	3	boats	2	incorrect	1.45533539599273
108241	1	stim139_inanimate_fruits_strawberry_3.png	139	inanimate	fruits	strawberry	3	0	3	boats	2	incorrect	1.45533539599273
108291	1	stim059_animate_human_sports_3.png	59	animate	human	sports	3	0	3	boats	2	incorrect	1.45533539599273
108341	1	stim047_animate_human_child_3.png	47	animate	human	child	3	0	3	boats	2	incorrect	1.45533539599273
108391	1	stim185_inanimate_tools_hammer_1.png	185	inanimate	tools	hammer	1	0	3	boats	2	incorrect	1.45533539599273
108441	1	stim200_inanimate_tools_wrench_4.png	200	inanimate	tools	wrench	4	0	3	boats	2	incorrect	1.45533539599273
108491	1	stim165_inanimate_plants_cactus_1.png	165	inanimate	plants	cactus	1	0	3	boats	2	incorrect	1.45533539599273
108541	1	stim009_animate_aquatic_seahorse_1.png	9	animate	aquatic	seahorse	1	0	3	boats	2	incorrect	1.45533539599273
108591	1	stim067_animate_insect_bug_3.png	67	animate	insect	bug	3	0	3	boats	2	incorrect	1.45533539599273
108641	1	stim106_inanimate_clothing_hat_2.png	106	inanimate	clothing	hat	2	0	3	boats	2	incorrect	1.45533539599273
108691	1	stim126_inanimate_fruits_banana_2.png	126	inanimate	fruits	banana	2	0	3	boats	2	incorrect	1.45533539599273
108741	1	stim046_animate_human_child_2.png	46	animate	human	child	2	0	3	boats	2	incorrect	1.45533539599273
108791	1	stim193_inanimate_tools_scissors_1.png	193	inanimate	tools	scissors	1	0	3	boats	2	incorrect	1.45533539599273
108841	1	stim056_animate_human_faces_4.png	56	animate	human	faces	4	0	3	boats	2	incorrect	1.45533539599273
108891	1	stim145_inanimate_furniture_chair_1.png	145	inanimate	furniture	chair	1	0	3	boats	2	incorrect	1.45533539599273
108941	1	stim172_inanimate_plants_sunflower_4.png	172	inanimate	plants	sunflower	4	0	3	boats	2	incorrect	1.45533539599273
108991	1	stim119_inanimate_clothing_socks_3.png	119	inanimate	clothing	socks	3	0	3	boats	2	incorrect	1.45533539599273
109041	1	stim134_inanimate_fruits_pineapple_2.png	134	inanimate	fruits	pineapple	2	0	3	boats	2	incorrect	1.45533539599273
109091	1	stim128_inanimate_fruits_banana_4.png	128	inanimate	fruits	banana	4	0	3	boats	2	incorrect	1.45533539599273
109141	1	stim191_inanimate_tools_pan_3.png	191	inanimate	tools	pan	3	0	3	boats	2	incorrect	1.45533539599273
109191	1	stim116_inanimate_clothing_shirt_4.png	116	inanimate	clothing	shirt	4	0	3	boats	2	incorrect	1.45533539599273
109241	1	stim113_inanimate_clothing_shirt_1.png	113	inanimate	clothing	shirt	1	0	3	boats	2	incorrect	1.45533539599273
109291	1	stim114_inanimate_clothing_shirt_2.png	114	inanimate	clothing	shirt	2	0	3	boats	2	incorrect	1.45533539599273
109341	1	stim098_animate_mammal_rhino_2.png	98	animate	mammal	rhino	2	0	3	boats	2	incorrect	1.45533539599273
109391	1	stim036_animate_bird_peacock_4.png	36	animate	bird	peacock	4	0	3	boats	2	incorrect	1.45533539599273
109441	1	stim035_animate_bird_peacock_3.png	35	animate	bird	peacock	3	0	3	boats	2	incorrect	1.45533539599273
109491	1	stim032_animate_bird_parrot_4.png	32	animate	bird	parrot	4	0	3	boats	2	incorrect	1.45533539599273
109541	1	stim194_inanimate_tools_scissors_2.png	194	inanimate	tools	scissors	2	0	3	boats	2	incorrect	1.45533539599273
109591	1	stim050_animate_human_clown_2.png	50	animate	human	clown	2	0	3	boats	2	incorrect	1.45533539599273
109641	1	stim171_inanimate_plants_sunflower_3.png	171	inanimate	plants	sunflower	3	0	3	boats	2	incorrect	1.45533539599273
109691	1	stim029_animate_bird_parrot_1.png	29	animate	bird	parrot	1	0	3	boats	2	incorrect	1.45533539599273
109741	1	stim078_animate_insect_grasshopper_2.png	78	animate	insect	grasshopper	2	0	3	boats	2	incorrect	1.45533539599273
109791	1	stim096_animate_mammal_monkey_4.png	96	animate	mammal	monkey	4	0	3	boats	2	incorrect	1.45533539599273
109841	1	stim177_inanimate_plants_tulip_1.png	177	inanimate	plants	tulip	1	0	3	boats	2	incorrect	1.45533539599273
109891	1	stim017_animate_aquatic_shrimp_1.png	17	animate	aquatic	shrimp	1	0	3	boats	2	incorrect	1.45533539599273
109941	1	stim161_inanimate_plants_bush_1.png	161	inanimate	plants	bush	1	0	3	boats	2	incorrect	1.45533539599273
109991	1	stim065_animate_insect_bug_1.png	65	animate	insect	bug	1	0	3	boats	2	incorrect	1.45533539599273
110041	1	stim042_animate_human_baby_2.png	42	animate	human	baby	2	0	3	boats	2	incorrect	1.45533539599273
110091	1	stim122_inanimate_fruits_apple_2.png	122	inanimate	fruits	apple	2	0	3	boats	2	incorrect	1.45533539599273
110141	1	stim080_animate_insect_grasshopper_4.png	80	animate	insect	grasshopper	4	0	3	boats	2	incorrect	1.45533539599273
110191	1	stim043_animate_human_baby_3.png	43	animate	human	baby	3	0	3	boats	2	incorrect	1.45533539599273
110241	1	stim011_animate_aquatic_seahorse_3.png	11	animate	aquatic	seahorse	3	0	3	boats	2	incorrect	1.45533539599273
110291	1	stim020_animate_aquatic_shrimp_4.png	20	animate	aquatic	shrimp	4	0	3	boats	2	incorrect	1.45533539599273
110341	1	stim058_animate_human_sports_2.png	58	animate	human	sports	2	0	3	boats	2	incorrect	1.45533539599273
110391	1	stim069_animate_insect_butterfly_1.png	69	animate	insect	butterfly	1	0	3	boats	2	incorrect	1.45533539599273
110441	1	stim013_animate_aquatic_shark_1.png	13	animate	aquatic	shark	1	0	3	boats	2	incorrect	1.45533539599273
110491	1	stim028_animate_bird_duck_4.png	28	animate	bird	duck	4	0	3	boats	2	incorrect	1.45533539599273
110541	1	stim048_animate_human_child_4.png	48	animate	human	child	4	0	3	boats	2	incorrect	1.45533539599273
110591	1	stim006_animate_aquatic_fish_2.png	6	animate	aquatic	fish	2	0	3	boats	2	incorrect	1.45533539599273
110641	1	stim005_animate_aquatic_fish_1.png	5	animate	aquatic	fish	1	0	3	boats	2	incorrect	1.45533539599273
110691	1	stim040_animate_bird_penguin_4.png	40	animate	bird	penguin	4	0	3	boats	2	incorrect	1.45533539599273
110741	1	stim041_animate_human_baby_1.png	41	animate	human	baby	1	0	3	boats	2	incorrect	1.45533539599273
110791	1	stim095_animate_mammal_monkey_3.png	95	animate	mammal	monkey	3	0	3	boats	2	incorrect	1.45533539599273
110841	1	stim022_animate_bird_chicken_2.png	22	animate	bird	chicken	2	0	3	boats	2	incorrect	1.45533539599273
110891	1	stim076_animate_insect_dragonfly_4.png	76	animate	insect	dragonfly	4	0	3	boats	2	incorrect	1.45533539599273
110941	1	stim141_inanimate_furniture_bed_1.png	141	inanimate	furniture	bed	1	0	3	boats	2	incorrect	1.45533539599273
110991	1	stim166_inanimate_plants_cactus_2.png	166	inanimate	plants	cactus	2	0	3	boats	2	incorrect	1.45533539599273
111041	1	stim152_inanimate_furniture_closet_4.png	152	inanimate	furniture	closet	4	0	3	boats	2	incorrect	1.45533539599273
111091	1	stim027_animate_bird_duck_3.png	27	animate	bird	duck	3	0	3	boats	2	incorrect	1.45533539599273
111141	1	stim066_animate_insect_bug_2.png	66	animate	insect	bug	2	0	3	boats	2	incorrect	1.45533539599273
111191	1	stim123_inanimate_fruits_apple_3.png	123	inanimate	fruits	apple	3	0	3	boats	2	incorrect	1.45533539599273
111241	1	stim033_animate_bird_peacock_1.png	33	animate	bird	peacock	1	0	3	boats	2	incorrect	1.45533539599273
111291	1	stim101_inanimate_clothing_gloves_1.png	101	inanimate	clothing	gloves	1	0	3	boats	2	incorrect	1.45533539599273
111341	1	stim198_inanimate_tools_wrench_2.png	198	inanimate	tools	wrench	2	0	3	boats	2	incorrect	1.45533539599273
111391	1	stim024_animate_bird_chicken_4.png	24	animate	bird	chicken	4	0	3	boats	2	incorrect	1.45533539599273
111441	1	stim110_inanimate_clothing_jeans_2.png	110	inanimate	clothing	jeans	2	0	3	boats	2	incorrect	1.45533539599273
111491	1	stim054_animate_human_faces_2.png	54	animate	human	faces	2	0	3	boats	2	incorrect	1.45533539599273
111541	1	stim201_targets_object_boats_1.png	201	targets	object	boats	1	1	3	boats	2	incorrect	1.45533539599273
111591	1	stim004_animate_aquatic_crab_4.png	4	animate	aquatic	crab	4	0	3	boats	2	incorrect	1.45533539599273
111641	1	stim100_animate_mammal_rhino_4.png	100	animate	mammal	rhino	4	0	3	boats	2	incorrect	1.45533539599273
111691	1	stim097_animate_mammal_rhino_1.png	97	animate	mammal	rhino	1	0	3	boats	2	incorrect	1.45533539599273
111741	1	stim075_animate_insect_dragonfly_3.png	75	animate	insect	dragonfly	3	0	3	boats	2	incorrect	1.45533539599273
111791	1	stim091_animate_mammal_kangaroo_3.png	91	animate	mammal	kangaroo	3	0	3	boats	2	incorrect	1.45533539599273
111841	1	stim018_animate_aquatic_shrimp_2.png	18	animate	aquatic	shrimp	2	0	3	boats	2	incorrect	1.45533539599273
111891	1	stim090_animate_mammal_kangaroo_2.png	90	animate	mammal	kangaroo	2	0	3	boats	2	incorrect	1.45533539599273
111941	1	stim112_inanimate_clothing_jeans_4.png	112	inanimate	clothing	jeans	4	0	3	boats	2	incorrect	1.45533539599273
111991	1	stim180_inanimate_plants_tulip_4.png	180	inanimate	plants	tulip	4	0	3	boats	2	incorrect	1.45533539599273
112041	1	stim195_inanimate_tools_scissors_3.png	195	inanimate	tools	scissors	3	0	3	boats	2	incorrect	1.45533539599273
112091	1	stim124_inanimate_fruits_apple_4.png	124	inanimate	fruits	apple	4	0	3	boats	2	incorrect	1.45533539599273
112141	1	stim015_animate_aquatic_shark_3.png	15	animate	aquatic	shark	3	0	3	boats	2	incorrect	1.45533539599273
112191	1	stim087_animate_mammal_giraffe_3.png	87	animate	mammal	giraffe	3	0	3	boats	2	incorrect	1.45533539599273
112241	1	stim023_animate_bird_chicken_3.png	23	animate	bird	chicken	3	0	3	boats	2	incorrect	1.45533539599273
112291	1	stim073_animate_insect_dragonfly_1.png	73	animate	insect	dragonfly	1	0	3	boats	2	incorrect	1.45533539599273
112341	1	stim071_animate_insect_butterfly_3.png	71	animate	insect	butterfly	3	0	3	boats	2	incorrect	1.45533539599273
112391	1	stim140_inanimate_fruits_strawberry_4.png	140	inanimate	fruits	strawberry	4	0	3	boats	2	incorrect	1.45533539599273
112441	1	stim010_animate_aquatic_seahorse_2.png	10	animate	aquatic	seahorse	2	0	3	boats	2	incorrect	1.45533539599273
112491	1	stim109_inanimate_clothing_jeans_1.png	109	inanimate	clothing	jeans	1	0	3	boats	2	incorrect	1.45533539599273
112541	1	stim037_animate_bird_penguin_1.png	37	animate	bird	penguin	1	0	3	boats	2	incorrect	1.45533539599273
112591	1	stim055_animate_human_faces_3.png	55	animate	human	faces	3	0	3	boats	2	incorrect	1.45533539599273
112641	1	stim115_inanimate_clothing_shirt_3.png	115	inanimate	clothing	shirt	3	0	3	boats	2	incorrect	1.45533539599273
112691	1	stim127_inanimate_fruits_banana_3.png	127	inanimate	fruits	banana	3	0	3	boats	2	incorrect	1.45533539599273
112741	1	stim173_inanimate_plants_tree_1.png	173	inanimate	plants	tree	1	0	3	boats	2	incorrect	1.45533539599273
112791	1	stim083_animate_mammal_cow_3.png	83	animate	mammal	cow	3	0	3	boats	2	incorrect	1.45533539599273
112841	1	stim030_animate_bird_parrot_2.png	30	animate	bird	parrot	2	0	3	boats	2	incorrect	1.45533539599273
112891	1	stim014_animate_aquatic_shark_2.png	14	animate	aquatic	shark	2	0	3	boats	2	incorrect	1.45533539599273
112941	1	stim012_animate_aquatic_seahorse_4.png	12	animate	aquatic	seahorse	4	0	3	boats	2	incorrect	1.45533539599273
112991	1	stim052_animate_human_clown_4.png	52	animate	human	clown	4	0	3	boats	2	incorrect	1.45533539599273
113041	1	stim162_inanimate_plants_bush_2.png	162	inanimate	plants	bush	2	0	3	boats	2	incorrect	1.45533539599273
113091	1	stim063_animate_insect_ant_3.png	63	animate	insect	ant	3	0	3	boats	2	incorrect	1.45533539599273
113141	1	stim085_animate_mammal_giraffe_1.png	85	animate	mammal	giraffe	1	0	3	boats	2	incorrect	1.45533539599273
113191	1	stim060_animate_human_sports_4.png	60	animate	human	sports	4	0	3	boats	2	incorrect	1.45533539599273
113241	1	stim092_animate_mammal_kangaroo_4.png	92	animate	mammal	kangaroo	4	0	3	boats	2	incorrect	1.45533539599273
113291	1	stim182_inanimate_tools_broom_2.png	182	inanimate	tools	broom	2	0	3	boats	2	incorrect	1.45533539599273
113341	1	stim002_animate_aquatic_crab_2.png	2	animate	aquatic	crab	2	0	3	boats	2	incorrect	1.45533539599273
113391	1	stim108_inanimate_clothing_hat_4.png	108	inanimate	clothing	hat	4	0	3	boats	2	incorrect	1.45533539599273
113441	1	stim133_inanimate_fruits_pineapple_1.png	133	inanimate	fruits	pineapple	1	0	3	boats	2	incorrect	1.45533539599273
113491	1	stim120_inanimate_clothing_socks_4.png	120	inanimate	clothing	socks	4	0	3	boats	2	incorrect	1.45533539599273
113541	1	stim094_animate_mammal_monkey_2.png	94	animate	mammal	monkey	2	0	3	boats	2	incorrect	1.45533539599273
113591	1	stim156_inanimate_furniture_sofa_4.png	156	inanimate	furniture	sofa	4	0	3	boats	2	incorrect	1.45533539599273
113641	1	stim062_animate_insect_ant_2.png	62	animate	insect	ant	2	0	3	boats	2	incorrect	1.45533539599273
113691	1	stim007_animate_aquatic_fish_3.png	7	animate	aquatic	fish	3	0	3	boats	2	incorrect	1.45533539599273
113741	1	stim168_inanimate_plants_cactus_4.png	168	inanimate	plants	cactus	4	0	3	boats	2	incorrect	1.45533539599273
113791	1	stim053_animate_human_faces_1.png	53	animate	human	faces	1	0	3	boats	2	incorrect	1.45533539599273
113841	1	stim157_inanimate_furniture_table_1.png	157	inanimate	furniture	table	1	0	3	boats	2	incorrect	1.45533539599273
113891	1	stim158_inanimate_furniture_table_2.png	158	inanimate	furniture	table	2	0	3	boats	2	incorrect	1.45533539599273
113941	1	stim070_animate_insect_butterfly_2.png	70	animate	insect	butterfly	2	0	3	boats	2	incorrect	1.45533539599273
113991	1	stim129_inanimate_fruits_grape_1.png	129	inanimate	fruits	grape	1	0	3	boats	2	incorrect	1.45533539599273
114041	1	stim163_inanimate_plants_bush_3.png	163	inanimate	plants	bush	3	0	3	boats	2	incorrect	1.45533539599273
114091	1	stim175_inanimate_plants_tree_3.png	175	inanimate	plants	tree	3	0	3	boats	2	incorrect	1.45533539599273
114141	1	stim149_inanimate_furniture_closet_1.png	149	inanimate	furniture	closet	1	0	3	boats	2	incorrect	1.45533539599273
114191	1	stim159_inanimate_furniture_table_3.png	159	inanimate	furniture	table	3	0	3	boats	2	incorrect	1.45533539599273
114241	1	stim160_inanimate_furniture_table_4.png	160	inanimate	furniture	table	4	0	3	boats	2	incorrect	1.45533539599273
114291	1	stim118_inanimate_clothing_socks_2.png	118	inanimate	clothing	socks	2	0	3	boats	2	incorrect	1.45533539599273
114341	1	stim061_animate_insect_ant_1.png	61	animate	insect	ant	1	0	3	boats	2	incorrect	1.45533539599273
114391	1	stim104_inanimate_clothing_gloves_4.png	104	inanimate	clothing	gloves	4	0	3	boats	2	incorrect	1.45533539599273
114441	1	stim190_inanimate_tools_pan_2.png	190	inanimate	tools	pan	2	0	3	boats	2	incorrect	1.45533539599273
114491	1	stim197_inanimate_tools_wrench_1.png	197	inanimate	tools	wrench	1	0	3	boats	2	incorrect	1.45533539599273
114541	1	stim081_animate_mammal_cow_1.png	81	animate	mammal	cow	1	0	3	boats	2	incorrect	1.45533539599273
114591	1	stim031_animate_bird_parrot_3.png	31	animate	bird	parrot	3	0	3	boats	2	incorrect	1.45533539599273
114641	1	stim131_inanimate_fruits_grape_3.png	131	inanimate	fruits	grape	3	0	3	boats	2	incorrect	1.45533539599273
114691	1	stim167_inanimate_plants_cactus_3.png	167	inanimate	plants	cactus	3	0	3	boats	2	incorrect	1.45533539599273
114741	1	stim169_inanimate_plants_sunflower_1.png	169	inanimate	plants	sunflower	1	0	3	boats	2	incorrect	1.45533539599273
114791	1	stim099_animate_mammal_rhino_3.png	99	animate	mammal	rhino	3	0	3	boats	2	incorrect	1.45533539599273
114841	1	stim150_inanimate_furniture_closet_2.png	150	inanimate	furniture	closet	2	0	3	boats	2	incorrect	1.45533539599273
114891	1	stim178_inanimate_plants_tulip_2.png	178	inanimate	plants	tulip	2	0	3	boats	2	incorrect	1.45533539599273
114941	1	stim084_animate_mammal_cow_4.png	84	animate	mammal	cow	4	0	3	boats	2	incorrect	1.45533539599273
114991	1	stim184_inanimate_tools_broom_4.png	184	inanimate	tools	broom	4	0	3	boats	2	incorrect	1.45533539599273
115041	1	stim153_inanimate_furniture_sofa_1.png	153	inanimate	furniture	sofa	1	0	3	boats	2	incorrect	1.45533539599273
115091	1	stim196_inanimate_tools_scissors_4.png	196	inanimate	tools	scissors	4	0	3	boats	2	incorrect	1.45533539599273
115141	1	stim039_animate_bird_penguin_3.png	39	animate	bird	penguin	3	0	3	boats	2	incorrect	1.45533539599273
115191	1	stim199_inanimate_tools_wrench_3.png	199	inanimate	tools	wrench	3	0	3	boats	2	incorrect	1.45533539599273
115241	1	stim147_inanimate_furniture_chair_3.png	147	inanimate	furniture	chair	3	0	3	boats	2	incorrect	1.45533539599273
115291	1	stim089_animate_mammal_kangaroo_1.png	89	animate	mammal	kangaroo	1	0	3	boats	2	incorrect	1.45533539599273
115341	1	stim088_animate_mammal_giraffe_4.png	88	animate	mammal	giraffe	4	0	3	boats	2	incorrect	1.45533539599273
115391	1	stim164_inanimate_plants_bush_4.png	164	inanimate	plants	bush	4	0	3	boats	2	incorrect	1.45533539599273
115441	1	stim057_animate_human_sports_1.png	57	animate	human	sports	1	0	3	boats	2	incorrect	1.45533539599273
115491	1	stim082_animate_mammal_cow_2.png	82	animate	mammal	cow	2	0	3	boats	2	incorrect	1.45533539599273
115541	1	stim045_animate_human_child_1.png	45	animate	human	child	1	0	3	boats	2	incorrect	1.45533539599273
115591	1	stim136_inanimate_fruits_pineapple_4.png	136	inanimate	fruits	pineapple	4	0	3	boats	2	incorrect	1.45533539599273
115641	1	stim068_animate_insect_bug_4.png	68	animate	insect	bug	4	0	3	boats	2	incorrect	1.45533539599273
115691	1	stim072_animate_insect_butterfly_4.png	72	animate	insect	butterfly	4	0	3	boats	2	incorrect	1.45533539599273
115741	1	stim008_animate_aquatic_fish_4.png	8	animate	aquatic	fish	4	0	3	boats	2	incorrect	1.45533539599273
115791	1	stim125_inanimate_fruits_banana_1.png	125	inanimate	fruits	banana	1	0	3	boats	2	incorrect	1.45533539599273
115841	1	stim137_inanimate_fruits_strawberry_1.png	137	inanimate	fruits	strawberry	1	0	3	boats	2	incorrect	1.45533539599273
115891	1	stim111_inanimate_clothing_jeans_3.png	111	inanimate	clothing	jeans	3	0	3	boats	2	incorrect	1.45533539599273
115941	1	stim121_inanimate_fruits_apple_1.png	121	inanimate	fruits	apple	1	0	3	boats	2	incorrect	1.45533539599273
115991	1	stim003_animate_aquatic_crab_3.png	3	animate	aquatic	crab	3	0	3	boats	2	incorrect	1.45533539599273
116041	1	stim064_animate_insect_ant_4.png	64	animate	insect	ant	4	0	3	boats	2	incorrect	1.45533539599273
116091	1	stim077_animate_insect_grasshopper_1.png	77	animate	insect	grasshopper	1	0	3	boats	2	incorrect	1.45533539599273
116141	1	stim074_animate_insect_dragonfly_2.png	74	animate	insect	dragonfly	2	0	3	boats	2	incorrect	1.45533539599273
116191	1	stim192_inanimate_tools_pan_4.png	192	inanimate	tools	pan	4	0	3	boats	2	incorrect	1.45533539599273
116241	1	stim021_animate_bird_chicken_1.png	21	animate	bird	chicken	1	0	3	boats	2	incorrect	1.45533539599273
116291	1	stim130_inanimate_fruits_grape_2.png	130	inanimate	fruits	grape	2	0	3	boats	2	incorrect	1.45533539599273
116341	1	stim187_inanimate_tools_hammer_3.png	187	inanimate	tools	hammer	3	0	3	boats	2	incorrect	1.45533539599273
116391	1	stim019_animate_aquatic_shrimp_3.png	19	animate	aquatic	shrimp	3	0	3	boats	2	incorrect	1.45533539599273
116441	1	stim103_inanimate_clothing_gloves_3.png	103	inanimate	clothing	gloves	3	0	3	boats	2	incorrect	1.45533539599273
116491	1	stim025_animate_bird_duck_1.png	25	animate	bird	duck	1	0	3	boats	2	incorrect	1.45533539599273
116541	1	stim151_inanimate_furniture_closet_3.png	151	inanimate	furniture	closet	3	0	3	boats	2	incorrect	1.45533539599273
116591	1	stim183_inanimate_tools_broom_3.png	183	inanimate	tools	broom	3	0	3	boats	2	incorrect	1.45533539599273
116641	1	stim026_animate_bird_duck_2.png	26	animate	bird	duck	2	0	3	boats	2	incorrect	1.45533539599273
116691	1	stim093_animate_mammal_monkey_1.png	93	animate	mammal	monkey	1	0	3	boats	2	incorrect	1.45533539599273
116741	1	stim105_inanimate_clothing_hat_1.png	105	inanimate	clothing	hat	1	0	3	boats	2	incorrect	1.45533539599273
116791	1	stim079_animate_insect_grasshopper_3.png	79	animate	insect	grasshopper	3	0	3	boats	2	incorrect	1.45533539599273
116841	1	stim016_animate_aquatic_shark_4.png	16	animate	aquatic	shark	4	0	3	boats	2	incorrect	1.45533539599273
120974	1	stim005_animate_aquatic_fish_1.png	5	animate	aquatic	fish	1	0	4	stars	2	correct	0.647106595803052
121024	1	stim012_animate_aquatic_seahorse_4.png	12	animate	aquatic	seahorse	4	0	4	stars	2	correct	0.647106595803052
121074	1	stim070_animate_insect_butterfly_2.png	70	animate	insect	butterfly	2	0	4	stars	2	correct	0.647106595803052
121124	1	stim108_inanimate_clothing_hat_4.png	108	inanimate	clothing	hat	4	0	4	stars	2	correct	0.647106595803052
121174	1	stim195_inanimate_tools_scissors_3.png	195	inanimate	tools	scissors	3	0	4	stars	2	correct	0.647106595803052
121224	1	stim174_inanimate_plants_tree_2.png	174	inanimate	plants	tree	2	0	4	stars	2	correct	0.647106595803052
121274	1	stim188_inanimate_tools_hammer_4.png	188	inanimate	tools	hammer	4	0	4	stars	2	correct	0.647106595803052
121324	1	stim046_animate_human_child_2.png	46	animate	human	child	2	0	4	stars	2	correct	0.647106595803052
121374	1	stim006_animate_aquatic_fish_2.png	6	animate	aquatic	fish	2	0	4	stars	2	correct	0.647106595803052
121424	1	stim181_inanimate_tools_broom_1.png	181	inanimate	tools	broom	1	0	4	stars	2	correct	0.647106595803052
121474	1	stim184_inanimate_tools_broom_4.png	184	inanimate	tools	broom	4	0	4	stars	2	correct	0.647106595803052
121524	1	stim015_animate_aquatic_shark_3.png	15	animate	aquatic	shark	3	0	4	stars	2	correct	0.647106595803052
121574	1	stim182_inanimate_tools_broom_2.png	182	inanimate	tools	broom	2	0	4	stars	2	correct	0.647106595803052
121624	1	stim115_inanimate_clothing_shirt_3.png	115	inanimate	clothing	shirt	3	0	4	stars	2	correct	0.647106595803052
121674	1	stim114_inanimate_clothing_shirt_2.png	114	inanimate	clothing	shirt	2	0	4	stars	2	correct	0.647106595803052
121724	1	stim097_animate_mammal_rhino_1.png	97	animate	mammal	rhino	1	0	4	stars	2	correct	0.647106595803052
121774	1	stim142_inanimate_furniture_bed_2.png	142	inanimate	furniture	bed	2	0	4	stars	2	correct	0.647106595803052
121824	1	stim087_animate_mammal_giraffe_3.png	87	animate	mammal	giraffe	3	0	4	stars	2	correct	0.647106595803052
121874	1	stim134_inanimate_fruits_pineapple_2.png	134	inanimate	fruits	pineapple	2	0	4	stars	2	correct	0.647106595803052
121924	1	stim160_inanimate_furniture_table_4.png	160	inanimate	furniture	table	4	0	4	stars	2	correct	0.647106595803052
121974	1	stim052_animate_human_clown_4.png	52	animate	human	clown	4	0	4	stars	2	correct	0.647106595803052
122024	1	stim086_animate_mammal_giraffe_2.png	86	animate	mammal	giraffe	2	0	4	stars	2	correct	0.647106595803052
122074	1	stim008_animate_aquatic_fish_4.png	8	animate	aquatic	fish	4	0	4	stars	2	correct	0.647106595803052
122124	1	stim154_inanimate_furniture_sofa_2.png	154	inanimate	furniture	sofa	2	0	4	stars	2	correct	0.647106595803052
122174	1	stim113_inanimate_clothing_shirt_1.png	113	inanimate	clothing	shirt	1	0	4	stars	2	correct	0.647106595803052
122224	1	stim155_inanimate_furniture_sofa_3.png	155	inanimate	furniture	sofa	3	0	4	stars	2	correct	0.647106595803052
122274	1	stim107_inanimate_clothing_hat_3.png	107	inanimate	clothing	hat	3	0	4	stars	2	correct	0.647106595803052
122324	1	stim133_inanimate_fruits_pineapple_1.png	133	inanimate	fruits	pineapple	1	0	4	stars	2	correct	0.647106595803052
122374	1	stim092_animate_mammal_kangaroo_4.png	92	animate	mammal	kangaroo	4	0	4	stars	2	correct	0.647106595803052
122424	1	stim036_animate_bird_peacock_4.png	36	animate	bird	peacock	4	0	4	stars	2	correct	0.647106595803052
122474	1	stim079_animate_insect_grasshopper_3.png	79	animate	insect	grasshopper	3	0	4	stars	2	correct	0.647106595803052
122524	1	stim118_inanimate_clothing_socks_2.png	118	inanimate	clothing	socks	2	0	4	stars	2	correct	0.647106595803052
122574	1	stim099_animate_mammal_rhino_3.png	99	animate	mammal	rhino	3	0	4	stars	2	correct	0.647106595803052
122624	1	stim122_inanimate_fruits_apple_2.png	122	inanimate	fruits	apple	2	0	4	stars	2	correct	0.647106595803052
122674	1	stim136_inanimate_fruits_pineapple_4.png	136	inanimate	fruits	pineapple	4	0	4	stars	2	correct	0.647106595803052
122724	1	stim156_inanimate_furniture_sofa_4.png	156	inanimate	furniture	sofa	4	0	4	stars	2	correct	0.647106595803052
122774	1	stim068_animate_insect_bug_4.png	68	animate	insect	bug	4	0	4	stars	2	correct	0.647106595803052
122824	1	stim194_inanimate_tools_scissors_2.png	194	inanimate	tools	scissors	2	0	4	stars	2	correct	0.647106595803052
122874	1	stim014_animate_aquatic_shark_2.png	14	animate	aquatic	shark	2	0	4	stars	2	correct	0.647106595803052
122924	1	stim137_inanimate_fruits_strawberry_1.png	137	inanimate	fruits	strawberry	1	0	4	stars	2	correct	0.647106595803052
122974	1	stim199_inanimate_tools_wrench_3.png	199	inanimate	tools	wrench	3	0	4	stars	2	correct	0.647106595803052
123024	1	stim003_animate_aquatic_crab_3.png	3	animate	aquatic	crab	3	0	4	stars	2	correct	0.647106595803052
123074	1	stim016_animate_aquatic_shark_4.png	16	animate	aquatic	shark	4	0	4	stars	2	correct	0.647106595803052
123124	1	stim018_animate_aquatic_shrimp_2.png	18	animate	aquatic	shrimp	2	0	4	stars	2	correct	0.647106595803052
123174	1	stim132_inanimate_fruits_grape_4.png	132	inanimate	fruits	grape	4	0	4	stars	2	correct	0.647106595803052
123224	1	stim191_inanimate_tools_pan_3.png	191	inanimate	tools	pan	3	0	4	stars	2	correct	0.647106595803052
123274	1	stim024_animate_bird_chicken_4.png	24	animate	bird	chicken	4	0	4	stars	2	correct	0.647106595803052
123324	1	stim169_inanimate_plants_sunflower_1.png	169	inanimate	plants	sunflower	1	0	4	stars	2	correct	0.647106595803052
123374	1	stim131_inanimate_fruits_grape_3.png	131	inanimate	fruits	grape	3	0	4	stars	2	correct	0.647106595803052
123424	1	stim178_inanimate_plants_tulip_2.png	178	inanimate	plants	tulip	2	0	4	stars	2	correct	0.647106595803052
123474	1	stim019_animate_aquatic_shrimp_3.png	19	animate	aquatic	shrimp	3	0	4	stars	2	correct	0.647106595803052
123524	1	stim017_animate_aquatic_shrimp_1.png	17	animate	aquatic	shrimp	1	0	4	stars	2	correct	0.647106595803052
123574	1	stim010_animate_aquatic_seahorse_2.png	10	animate	aquatic	seahorse	2	0	4	stars	2	correct	0.647106595803052
123624	1	stim072_animate_insect_butterfly_4.png	72	animate	insect	butterfly	4	0	4	stars	2	correct	0.647106595803052
123674	1	stim032_animate_bird_parrot_4.png	32	animate	bird	parrot	4	0	4	stars	2	correct	0.647106595803052
123724	1	stim033_animate_bird_peacock_1.png	33	animate	bird	peacock	1	0	4	stars	2	correct	0.647106595803052
123774	1	stim007_animate_aquatic_fish_3.png	7	animate	aquatic	fish	3	0	4	stars	2	correct	0.647106595803052
123824	1	stim100_animate_mammal_rhino_4.png	100	animate	mammal	rhino	4	0	4	stars	2	correct	0.647106595803052
123874	1	stim039_animate_bird_penguin_3.png	39	animate	bird	penguin	3	0	4	stars	2	correct	0.647106595803052
123924	1	stim065_animate_insect_bug_1.png	65	animate	insect	bug	1	0	4	stars	2	correct	0.647106595803052
123974	1	stim175_inanimate_plants_tree_3.png	175	inanimate	plants	tree	3	0	4	stars	2	correct	0.647106595803052
124024	1	stim059_animate_human_sports_3.png	59	animate	human	sports	3	0	4	stars	2	correct	0.647106595803052
124074	1	stim105_inanimate_clothing_hat_1.png	105	inanimate	clothing	hat	1	0	4	stars	2	correct	0.647106595803052
124124	1	stim047_animate_human_child_3.png	47	animate	human	child	3	0	4	stars	2	correct	0.647106595803052
124174	1	stim179_inanimate_plants_tulip_3.png	179	inanimate	plants	tulip	3	0	4	stars	2	correct	0.647106595803052
124224	1	stim213_targets_shapes_star_1.png	213	targets	shapes	star	1	1	4	stars	2	correct	0.647106595803052
124274	1	stim177_inanimate_plants_tulip_1.png	177	inanimate	plants	tulip	1	0	4	stars	2	correct	0.647106595803052
124324	1	stim183_inanimate_tools_broom_3.png	183	inanimate	tools	broom	3	0	4	stars	2	correct	0.647106595803052
124374	1	stim096_animate_mammal_monkey_4.png	96	animate	mammal	monkey	4	0	4	stars	2	correct	0.647106595803052
124424	1	stim049_animate_human_clown_1.png	49	animate	human	clown	1	0	4	stars	2	correct	0.647106595803052
124474	1	stim062_animate_insect_ant_2.png	62	animate	insect	ant	2	0	4	stars	2	correct	0.647106595803052
124524	1	stim060_animate_human_sports_4.png	60	animate	human	sports	4	0	4	stars	2	correct	0.647106595803052
124574	1	stim167_inanimate_plants_cactus_3.png	167	inanimate	plants	cactus	3	0	4	stars	2	correct	0.647106595803052
124624	1	stim081_animate_mammal_cow_1.png	81	animate	mammal	cow	1	0	4	stars	2	correct	0.647106595803052
124674	1	stim149_inanimate_furniture_closet_1.png	149	inanimate	furniture	closet	1	0	4	stars	2	correct	0.647106595803052
124724	1	stim170_inanimate_plants_sunflower_2.png	170	inanimate	plants	sunflower	2	0	4	stars	2	correct	0.647106595803052
124774	1	stim121_inanimate_fruits_apple_1.png	121	inanimate	fruits	apple	1	0	4	stars	2	correct	0.647106595803052
124824	1	stim198_inanimate_tools_wrench_2.png	198	inanimate	tools	wrench	2	0	4	stars	2	correct	0.647106595803052
124874	1	stim035_animate_bird_peacock_3.png	35	animate	bird	peacock	3	0	4	stars	2	correct	0.647106595803052
124924	1	stim111_inanimate_clothing_jeans_3.png	111	inanimate	clothing	jeans	3	0	4	stars	2	correct	0.647106595803052
124974	1	stim135_inanimate_fruits_pineapple_3.png	135	inanimate	fruits	pineapple	3	0	4	stars	2	correct	0.647106595803052
125024	1	stim200_inanimate_tools_wrench_4.png	200	inanimate	tools	wrench	4	0	4	stars	2	correct	0.647106595803052
125074	1	stim147_inanimate_furniture_chair_3.png	147	inanimate	furniture	chair	3	0	4	stars	2	correct	0.647106595803052
125124	1	stim190_inanimate_tools_pan_2.png	190	inanimate	tools	pan	2	0	4	stars	2	correct	0.647106595803052
125174	1	stim042_animate_human_baby_2.png	42	animate	human	baby	2	0	4	stars	2	correct	0.647106595803052
125224	1	stim029_animate_bird_parrot_1.png	29	animate	bird	parrot	1	0	4	stars	2	correct	0.647106595803052
125274	1	stim041_animate_human_baby_1.png	41	animate	human	baby	1	0	4	stars	2	correct	0.647106595803052
125324	1	stim050_animate_human_clown_2.png	50	animate	human	clown	2	0	4	stars	2	correct	0.647106595803052
125374	1	stim102_inanimate_clothing_gloves_2.png	102	inanimate	clothing	gloves	2	0	4	stars	2	correct	0.647106595803052
125424	1	stim066_animate_insect_bug_2.png	66	animate	insect	bug	2	0	4	stars	2	correct	0.647106595803052
125474	1	stim130_inanimate_fruits_grape_2.png	130	inanimate	fruits	grape	2	0	4	stars	2	correct	0.647106595803052
125524	1	stim143_inanimate_furniture_bed_3.png	143	inanimate	furniture	bed	3	0	4	stars	2	correct	0.647106595803052
125574	1	stim110_inanimate_clothing_jeans_2.png	110	inanimate	clothing	jeans	2	0	4	stars	2	correct	0.647106595803052
125624	1	stim148_inanimate_furniture_chair_4.png	148	inanimate	furniture	chair	4	0	4	stars	2	correct	0.647106595803052
125674	1	stim150_inanimate_furniture_closet_2.png	150	inanimate	furniture	closet	2	0	4	stars	2	correct	0.647106595803052
125724	1	stim139_inanimate_fruits_strawberry_3.png	139	inanimate	fruits	strawberry	3	0	4	stars	2	correct	0.647106595803052
125774	1	stim048_animate_human_child_4.png	48	animate	human	child	4	0	4	stars	2	correct	0.647106595803052
125824	1	stim109_inanimate_clothing_jeans_1.png	109	inanimate	clothing	jeans	1	0	4	stars	2	correct	0.647106595803052
125874	1	stim112_inanimate_clothing_jeans_4.png	112	inanimate	clothing	jeans	4	0	4	stars	2	correct	0.647106595803052
125924	1	stim098_animate_mammal_rhino_2.png	98	animate	mammal	rhino	2	0	4	stars	2	correct	0.647106595803052
125974	1	stim085_animate_mammal_giraffe_1.png	85	animate	mammal	giraffe	1	0	4	stars	2	correct	0.647106595803052
126024	1	stim163_inanimate_plants_bush_3.png	163	inanimate	plants	bush	3	0	4	stars	2	correct	0.647106595803052
126074	1	stim168_inanimate_plants_cactus_4.png	168	inanimate	plants	cactus	4	0	4	stars	2	correct	0.647106595803052
126124	1	stim119_inanimate_clothing_socks_3.png	119	inanimate	clothing	socks	3	0	4	stars	2	correct	0.647106595803052
126174	1	stim159_inanimate_furniture_table_3.png	159	inanimate	furniture	table	3	0	4	stars	2	correct	0.647106595803052
126224	1	stim030_animate_bird_parrot_2.png	30	animate	bird	parrot	2	0	4	stars	2	correct	0.647106595803052
126274	1	stim123_inanimate_fruits_apple_3.png	123	inanimate	fruits	apple	3	0	4	stars	2	correct	0.647106595803052
126324	1	stim078_animate_insect_grasshopper_2.png	78	animate	insect	grasshopper	2	0	4	stars	2	correct	0.647106595803052
126374	1	stim128_inanimate_fruits_banana_4.png	128	inanimate	fruits	banana	4	0	4	stars	2	correct	0.647106595803052
126424	1	stim002_animate_aquatic_crab_2.png	2	animate	aquatic	crab	2	0	4	stars	2	correct	0.647106595803052
126474	1	stim025_animate_bird_duck_1.png	25	animate	bird	duck	1	0	4	stars	2	correct	0.647106595803052
126524	1	stim185_inanimate_tools_hammer_1.png	185	inanimate	tools	hammer	1	0	4	stars	2	correct	0.647106595803052
126574	1	stim071_animate_insect_butterfly_3.png	71	animate	insect	butterfly	3	0	4	stars	2	correct	0.647106595803052
126624	1	stim116_inanimate_clothing_shirt_4.png	116	inanimate	clothing	shirt	4	0	4	stars	2	correct	0.647106595803052
126674	1	stim171_inanimate_plants_sunflower_3.png	171	inanimate	plants	sunflower	3	0	4	stars	2	correct	0.647106595803052
126724	1	stim192_inanimate_tools_pan_4.png	192	inanimate	tools	pan	4	0	4	stars	2	correct	0.647106595803052
126774	1	stim009_animate_aquatic_seahorse_1.png	9	animate	aquatic	seahorse	1	0	4	stars	2	correct	0.647106595803052
126824	1	stim187_inanimate_tools_hammer_3.png	187	inanimate	tools	hammer	3	0	4	stars	2	correct	0.647106595803052
126874	1	stim058_animate_human_sports_2.png	58	animate	human	sports	2	0	4	stars	2	correct	0.647106595803052
126924	1	stim214_targets_shapes_star_2.png	214	targets	shapes	star	2	1	4	stars	2	correct	0.647106595803052
126974	1	stim173_inanimate_plants_tree_1.png	173	inanimate	plants	tree	1	0	4	stars	2	correct	0.647106595803052
127024	1	stim090_animate_mammal_kangaroo_2.png	90	animate	mammal	kangaroo	2	0	4	stars	2	correct	0.647106595803052
127074	1	stim124_inanimate_fruits_apple_4.png	124	inanimate	fruits	apple	4	0	4	stars	2	correct	0.647106595803052
127124	1	stim074_animate_insect_dragonfly_2.png	74	animate	insect	dragonfly	2	0	4	stars	2	correct	0.647106595803052
127174	1	stim101_inanimate_clothing_gloves_1.png	101	inanimate	clothing	gloves	1	0	4	stars	2	correct	0.647106595803052
127224	1	stim172_inanimate_plants_sunflower_4.png	172	inanimate	plants	sunflower	4	0	4	stars	2	correct	0.647106595803052
127274	1	stim083_animate_mammal_cow_3.png	83	animate	mammal	cow	3	0	4	stars	2	correct	0.647106595803052
127324	1	stim021_animate_bird_chicken_1.png	21	animate	bird	chicken	1	0	4	stars	2	correct	0.647106595803052
127374	1	stim043_animate_human_baby_3.png	43	animate	human	baby	3	0	4	stars	2	correct	0.647106595803052
127424	1	stim127_inanimate_fruits_banana_3.png	127	inanimate	fruits	banana	3	0	4	stars	2	correct	0.647106595803052
127474	1	stim126_inanimate_fruits_banana_2.png	126	inanimate	fruits	banana	2	0	4	stars	2	correct	0.647106595803052
127524	1	stim076_animate_insect_dragonfly_4.png	76	animate	insect	dragonfly	4	0	4	stars	2	correct	0.647106595803052
127574	1	stim031_animate_bird_parrot_3.png	31	animate	bird	parrot	3	0	4	stars	2	correct	0.647106595803052
127624	1	stim089_animate_mammal_kangaroo_1.png	89	animate	mammal	kangaroo	1	0	4	stars	2	correct	0.647106595803052
127674	1	stim106_inanimate_clothing_hat_2.png	106	inanimate	clothing	hat	2	0	4	stars	2	correct	0.647106595803052
127724	1	stim075_animate_insect_dragonfly_3.png	75	animate	insect	dragonfly	3	0	4	stars	2	correct	0.647106595803052
127774	1	stim161_inanimate_plants_bush_1.png	161	inanimate	plants	bush	1	0	4	stars	2	correct	0.647106595803052
127824	1	stim162_inanimate_plants_bush_2.png	162	inanimate	plants	bush	2	0	4	stars	2	correct	0.647106595803052
127874	1	stim055_animate_human_faces_3.png	55	animate	human	faces	3	0	4	stars	2	correct	0.647106595803052
127924	1	stim026_animate_bird_duck_2.png	26	animate	bird	duck	2	0	4	stars	2	correct	0.647106595803052
127974	1	stim125_inanimate_fruits_banana_1.png	125	inanimate	fruits	banana	1	0	4	stars	2	correct	0.647106595803052
128024	1	stim056_animate_human_faces_4.png	56	animate	human	faces	4	0	4	stars	2	correct	0.647106595803052
128074	1	stim082_animate_mammal_cow_2.png	82	animate	mammal	cow	2	0	4	stars	2	correct	0.647106595803052
128124	1	stim040_animate_bird_penguin_4.png	40	animate	bird	penguin	4	0	4	stars	2	correct	0.647106595803052
128174	1	stim054_animate_human_faces_2.png	54	animate	human	faces	2	0	4	stars	2	correct	0.647106595803052
128224	1	stim120_inanimate_clothing_socks_4.png	120	inanimate	clothing	socks	4	0	4	stars	2	correct	0.647106595803052
128274	1	stim104_inanimate_clothing_gloves_4.png	104	inanimate	clothing	gloves	4	0	4	stars	2	correct	0.647106595803052
128324	1	stim053_animate_human_faces_1.png	53	animate	human	faces	1	0	4	stars	2	correct	0.647106595803052
128374	1	stim166_inanimate_plants_cactus_2.png	166	inanimate	plants	cactus	2	0	4	stars	2	correct	0.647106595803052
128424	1	stim020_animate_aquatic_shrimp_4.png	20	animate	aquatic	shrimp	4	0	4	stars	2	correct	0.647106595803052
128474	1	stim064_animate_insect_ant_4.png	64	animate	insect	ant	4	0	4	stars	2	correct	0.647106595803052
128524	1	stim157_inanimate_furniture_table_1.png	157	inanimate	furniture	table	1	0	4	stars	2	correct	0.647106595803052
128574	1	stim180_inanimate_plants_tulip_4.png	180	inanimate	plants	tulip	4	0	4	stars	2	correct	0.647106595803052
128624	1	stim063_animate_insect_ant_3.png	63	animate	insect	ant	3	0	4	stars	2	correct	0.647106595803052
128674	1	stim061_animate_insect_ant_1.png	61	animate	insect	ant	1	0	4	stars	2	correct	0.647106595803052
128724	1	stim145_inanimate_furniture_chair_1.png	145	inanimate	furniture	chair	1	0	4	stars	2	correct	0.647106595803052
128775	1	stim140_inanimate_fruits_strawberry_4.png	140	inanimate	fruits	strawberry	4	0	4	stars	2	correct	0.647106595803052
128824	1	stim095_animate_mammal_monkey_3.png	95	animate	mammal	monkey	3	0	4	stars	2	correct	0.647106595803052
128874	1	stim186_inanimate_tools_hammer_2.png	186	inanimate	tools	hammer	2	0	4	stars	2	correct	0.647106595803052
128924	1	stim091_animate_mammal_kangaroo_3.png	91	animate	mammal	kangaroo	3	0	4	stars	2	correct	0.647106595803052
128974	1	stim094_animate_mammal_monkey_2.png	94	animate	mammal	monkey	2	0	4	stars	2	correct	0.647106595803052
129025	1	stim164_inanimate_plants_bush_4.png	164	inanimate	plants	bush	4	0	4	stars	2	correct	0.647106595803052
129074	1	stim051_animate_human_clown_3.png	51	animate	human	clown	3	0	4	stars	2	correct	0.647106595803052
129124	1	stim165_inanimate_plants_cactus_1.png	165	inanimate	plants	cactus	1	0	4	stars	2	correct	0.647106595803052
129175	1	stim144_inanimate_furniture_bed_4.png	144	inanimate	furniture	bed	4	0	4	stars	2	correct	0.647106595803052
129224	1	stim045_animate_human_child_1.png	45	animate	human	child	1	0	4	stars	2	correct	0.647106595803052
129274	1	stim138_inanimate_fruits_strawberry_2.png	138	inanimate	fruits	strawberry	2	0	4	stars	2	correct	0.647106595803052
129325	1	stim038_animate_bird_penguin_2.png	38	animate	bird	penguin	2	0	4	stars	2	correct	0.647106595803052
129375	1	stim153_inanimate_furniture_sofa_1.png	153	inanimate	furniture	sofa	1	0	4	stars	2	correct	0.647106595803052
129425	1	stim037_animate_bird_penguin_1.png	37	animate	bird	penguin	1	0	4	stars	2	correct	0.647106595803052
129474	1	stim189_inanimate_tools_pan_1.png	189	inanimate	tools	pan	1	0	4	stars	2	correct	0.647106595803052
129525	1	stim196_inanimate_tools_scissors_4.png	196	inanimate	tools	scissors	4	0	4	stars	2	correct	0.647106595803052
129575	1	stim001_animate_aquatic_crab_1.png	1	animate	aquatic	crab	1	0	4	stars	2	correct	0.647106595803052
129625	1	stim088_animate_mammal_giraffe_4.png	88	animate	mammal	giraffe	4	0	4	stars	2	correct	0.647106595803052
129674	1	stim193_inanimate_tools_scissors_1.png	193	inanimate	tools	scissors	1	0	4	stars	2	correct	0.647106595803052
129724	1	stim034_animate_bird_peacock_2.png	34	animate	bird	peacock	2	0	4	stars	2	correct	0.647106595803052
129774	1	stim011_animate_aquatic_seahorse_3.png	11	animate	aquatic	seahorse	3	0	4	stars	2	correct	0.647106595803052
129825	1	stim077_animate_insect_grasshopper_1.png	77	animate	insect	grasshopper	1	0	4	stars	2	correct	0.647106595803052
129875	1	stim103_inanimate_clothing_gloves_3.png	103	inanimate	clothing	gloves	3	0	4	stars	2	correct	0.647106595803052
129925	1	stim023_animate_bird_chicken_3.png	23	animate	bird	chicken	3	0	4	stars	2	correct	0.647106595803052
129975	1	stim151_inanimate_furniture_closet_3.png	151	inanimate	furniture	closet	3	0	4	stars	2	correct	0.647106595803052
130025	1	stim117_inanimate_clothing_socks_1.png	117	inanimate	clothing	socks	1	0	4	stars	2	correct	0.647106595803052
130075	1	stim027_animate_bird_duck_3.png	27	animate	bird	duck	3	0	4	stars	2	correct	0.647106595803052
130124	1	stim129_inanimate_fruits_grape_1.png	129	inanimate	fruits	grape	1	0	4	stars	2	correct	0.647106595803052
130174	1	stim152_inanimate_furniture_closet_4.png	152	inanimate	furniture	closet	4	0	4	stars	2	correct	0.647106595803052
130225	1	stim158_inanimate_furniture_table_2.png	158	inanimate	furniture	table	2	0	4	stars	2	correct	0.647106595803052
130275	1	stim069_animate_insect_butterfly_1.png	69	animate	insect	butterfly	1	0	4	stars	2	correct	0.647106595803052
130324	1	stim022_animate_bird_chicken_2.png	22	animate	bird	chicken	2	0	4	stars	2	correct	0.647106595803052
130375	1	stim044_animate_human_baby_4.png	44	animate	human	baby	4	0	4	stars	2	correct	0.647106595803052
130424	1	stim084_animate_mammal_cow_4.png	84	animate	mammal	cow	4	0	4	stars	2	correct	0.647106595803052
130475	1	stim146_inanimate_furniture_chair_2.png	146	inanimate	furniture	chair	2	0	4	stars	2	correct	0.647106595803052
130525	1	stim028_animate_bird_duck_4.png	28	animate	bird	duck	4	0	4	stars	2	correct	0.647106595803052
130575	1	stim013_animate_aquatic_shark_1.png	13	animate	aquatic	shark	1	0	4	stars	2	correct	0.647106595803052
130625	1	stim004_animate_aquatic_crab_4.png	4	animate	aquatic	crab	4	0	4	stars	2	correct	0.647106595803052
130675	1	stim197_inanimate_tools_wrench_1.png	197	inanimate	tools	wrench	1	0	4	stars	2	correct	0.647106595803052
130725	1	stim073_animate_insect_dragonfly_1.png	73	animate	insect	dragonfly	1	0	4	stars	2	correct	0.647106595803052
130775	1	stim067_animate_insect_bug_3.png	67	animate	insect	bug	3	0	4	stars	2	correct	0.647106595803052
130825	1	stim093_animate_mammal_monkey_1.png	93	animate	mammal	monkey	1	0	4	stars	2	correct	0.647106595803052
130875	1	stim057_animate_human_sports_1.png	57	animate	human	sports	1	0	4	stars	2	correct	0.647106595803052
130925	1	stim141_inanimate_furniture_bed_1.png	141	inanimate	furniture	bed	1	0	4	stars	2	correct	0.647106595803052
130975	1	stim176_inanimate_plants_tree_4.png	176	inanimate	plants	tree	4	0	4	stars	2	correct	0.647106595803052
131025	1	stim080_animate_insect_grasshopper_4.png	80	animate	insect	grasshopper	4	0	4	stars	2	correct	0.647106595803052
135541	1	stim119_inanimate_clothing_socks_3.png	119	inanimate	clothing	socks	3	0	5	stars	2	correct	0.686364977271296
135591	1	stim140_inanimate_fruits_strawberry_4.png	140	inanimate	fruits	strawberry	4	0	5	stars	2	correct	0.686364977271296
135641	1	stim024_animate_bird_chicken_4.png	24	animate	bird	chicken	4	0	5	stars	2	correct	0.686364977271296
135691	1	stim112_inanimate_clothing_jeans_4.png	112	inanimate	clothing	jeans	4	0	5	stars	2	correct	0.686364977271296
135741	1	stim111_inanimate_clothing_jeans_3.png	111	inanimate	clothing	jeans	3	0	5	stars	2	correct	0.686364977271296
135791	1	stim093_animate_mammal_monkey_1.png	93	animate	mammal	monkey	1	0	5	stars	2	correct	0.686364977271296
135841	1	stim129_inanimate_fruits_grape_1.png	129	inanimate	fruits	grape	1	0	5	stars	2	correct	0.686364977271296
135891	1	stim097_animate_mammal_rhino_1.png	97	animate	mammal	rhino	1	0	5	stars	2	correct	0.686364977271296
135941	1	stim120_inanimate_clothing_socks_4.png	120	inanimate	clothing	socks	4	0	5	stars	2	correct	0.686364977271296
135991	1	stim195_inanimate_tools_scissors_3.png	195	inanimate	tools	scissors	3	0	5	stars	2	correct	0.686364977271296
136041	1	stim163_inanimate_plants_bush_3.png	163	inanimate	plants	bush	3	0	5	stars	2	correct	0.686364977271296
136091	1	stim060_animate_human_sports_4.png	60	animate	human	sports	4	0	5	stars	2	correct	0.686364977271296
136141	1	stim174_inanimate_plants_tree_2.png	174	inanimate	plants	tree	2	0	5	stars	2	correct	0.686364977271296
136191	1	stim055_animate_human_faces_3.png	55	animate	human	faces	3	0	5	stars	2	correct	0.686364977271296
136241	1	stim034_animate_bird_peacock_2.png	34	animate	bird	peacock	2	0	5	stars	2	correct	0.686364977271296
136291	1	stim113_inanimate_clothing_shirt_1.png	113	inanimate	clothing	shirt	1	0	5	stars	2	correct	0.686364977271296
136341	1	stim094_animate_mammal_monkey_2.png	94	animate	mammal	monkey	2	0	5	stars	2	correct	0.686364977271296
136391	1	stim074_animate_insect_dragonfly_2.png	74	animate	insect	dragonfly	2	0	5	stars	2	correct	0.686364977271296
136441	1	stim185_inanimate_tools_hammer_1.png	185	inanimate	tools	hammer	1	0	5	stars	2	correct	0.686364977271296
136491	1	stim006_animate_aquatic_fish_2.png	6	animate	aquatic	fish	2	0	5	stars	2	correct	0.686364977271296
136541	1	stim041_animate_human_baby_1.png	41	animate	human	baby	1	0	5	stars	2	correct	0.686364977271296
136591	1	stim128_inanimate_fruits_banana_4.png	128	inanimate	fruits	banana	4	0	5	stars	2	correct	0.686364977271296
136641	1	stim193_inanimate_tools_scissors_1.png	193	inanimate	tools	scissors	1	0	5	stars	2	correct	0.686364977271296
136691	1	stim085_animate_mammal_giraffe_1.png	85	animate	mammal	giraffe	1	0	5	stars	2	correct	0.686364977271296
136741	1	stim165_inanimate_plants_cactus_1.png	165	inanimate	plants	cactus	1	0	5	stars	2	correct	0.686364977271296
136791	1	stim106_inanimate_clothing_hat_2.png	106	inanimate	clothing	hat	2	0	5	stars	2	correct	0.686364977271296
136841	1	stim115_inanimate_clothing_shirt_3.png	115	inanimate	clothing	shirt	3	0	5	stars	2	correct	0.686364977271296
136891	1	stim180_inanimate_plants_tulip_4.png	180	inanimate	plants	tulip	4	0	5	stars	2	correct	0.686364977271296
136941	1	stim183_inanimate_tools_broom_3.png	183	inanimate	tools	broom	3	0	5	stars	2	correct	0.686364977271296
136991	1	stim052_animate_human_clown_4.png	52	animate	human	clown	4	0	5	stars	2	correct	0.686364977271296
137041	1	stim186_inanimate_tools_hammer_2.png	186	inanimate	tools	hammer	2	0	5	stars	2	correct	0.686364977271296
137091	1	stim137_inanimate_fruits_strawberry_1.png	137	inanimate	fruits	strawberry	1	0	5	stars	2	correct	0.686364977271296
137141	1	stim010_animate_aquatic_seahorse_2.png	10	animate	aquatic	seahorse	2	0	5	stars	2	correct	0.686364977271296
137191	1	stim054_animate_human_faces_2.png	54	animate	human	faces	2	0	5	stars	2	correct	0.686364977271296
137241	1	stim076_animate_insect_dragonfly_4.png	76	animate	insect	dragonfly	4	0	5	stars	2	correct	0.686364977271296
137291	1	stim178_inanimate_plants_tulip_2.png	178	inanimate	plants	tulip	2	0	5	stars	2	correct	0.686364977271296
137341	1	stim044_animate_human_baby_4.png	44	animate	human	baby	4	0	5	stars	2	correct	0.686364977271296
137391	1	stim154_inanimate_furniture_sofa_2.png	154	inanimate	furniture	sofa	2	0	5	stars	2	correct	0.686364977271296
137441	1	stim108_inanimate_clothing_hat_4.png	108	inanimate	clothing	hat	4	0	5	stars	2	correct	0.686364977271296
137491	1	stim061_animate_insect_ant_1.png	61	animate	insect	ant	1	0	5	stars	2	correct	0.686364977271296
137541	1	stim049_animate_human_clown_1.png	49	animate	human	clown	1	0	5	stars	2	correct	0.686364977271296
137591	1	stim164_inanimate_plants_bush_4.png	164	inanimate	plants	bush	4	0	5	stars	2	correct	0.686364977271296
137641	1	stim152_inanimate_furniture_closet_4.png	152	inanimate	furniture	closet	4	0	5	stars	2	correct	0.686364977271296
137691	1	stim078_animate_insect_grasshopper_2.png	78	animate	insect	grasshopper	2	0	5	stars	2	correct	0.686364977271296
137741	1	stim083_animate_mammal_cow_3.png	83	animate	mammal	cow	3	0	5	stars	2	correct	0.686364977271296
137791	1	stim026_animate_bird_duck_2.png	26	animate	bird	duck	2	0	5	stars	2	correct	0.686364977271296
137841	1	stim065_animate_insect_bug_1.png	65	animate	insect	bug	1	0	5	stars	2	correct	0.686364977271296
137891	1	stim089_animate_mammal_kangaroo_1.png	89	animate	mammal	kangaroo	1	0	5	stars	2	correct	0.686364977271296
137941	1	stim051_animate_human_clown_3.png	51	animate	human	clown	3	0	5	stars	2	correct	0.686364977271296
137991	1	stim138_inanimate_fruits_strawberry_2.png	138	inanimate	fruits	strawberry	2	0	5	stars	2	correct	0.686364977271296
138041	1	stim127_inanimate_fruits_banana_3.png	127	inanimate	fruits	banana	3	0	5	stars	2	correct	0.686364977271296
138091	1	stim168_inanimate_plants_cactus_4.png	168	inanimate	plants	cactus	4	0	5	stars	2	correct	0.686364977271296
138141	1	stim090_animate_mammal_kangaroo_2.png	90	animate	mammal	kangaroo	2	0	5	stars	2	correct	0.686364977271296
138191	1	stim019_animate_aquatic_shrimp_3.png	19	animate	aquatic	shrimp	3	0	5	stars	2	correct	0.686364977271296
138241	1	stim056_animate_human_faces_4.png	56	animate	human	faces	4	0	5	stars	2	correct	0.686364977271296
138291	1	stim087_animate_mammal_giraffe_3.png	87	animate	mammal	giraffe	3	0	5	stars	2	correct	0.686364977271296
138341	1	stim192_inanimate_tools_pan_4.png	192	inanimate	tools	pan	4	0	5	stars	2	correct	0.686364977271296
138391	1	stim105_inanimate_clothing_hat_1.png	105	inanimate	clothing	hat	1	0	5	stars	2	correct	0.686364977271296
138441	1	stim059_animate_human_sports_3.png	59	animate	human	sports	3	0	5	stars	2	correct	0.686364977271296
138491	1	stim161_inanimate_plants_bush_1.png	161	inanimate	plants	bush	1	0	5	stars	2	correct	0.686364977271296
138541	1	stim022_animate_bird_chicken_2.png	22	animate	bird	chicken	2	0	5	stars	2	correct	0.686364977271296
138591	1	stim150_inanimate_furniture_closet_2.png	150	inanimate	furniture	closet	2	0	5	stars	2	correct	0.686364977271296
138641	1	stim001_animate_aquatic_crab_1.png	1	animate	aquatic	crab	1	0	5	stars	2	correct	0.686364977271296
138691	1	stim210_targets_shapes_star_2.png	210	targets	shapes	star	2	1	5	stars	2	correct	0.686364977271296
138741	1	stim072_animate_insect_butterfly_4.png	72	animate	insect	butterfly	4	0	5	stars	2	correct	0.686364977271296
138791	1	stim005_animate_aquatic_fish_1.png	5	animate	aquatic	fish	1	0	5	stars	2	correct	0.686364977271296
138841	1	stim077_animate_insect_grasshopper_1.png	77	animate	insect	grasshopper	1	0	5	stars	2	correct	0.686364977271296
138891	1	stim032_animate_bird_parrot_4.png	32	animate	bird	parrot	4	0	5	stars	2	correct	0.686364977271296
138941	1	stim017_animate_aquatic_shrimp_1.png	17	animate	aquatic	shrimp	1	0	5	stars	2	correct	0.686364977271296
138991	1	stim080_animate_insect_grasshopper_4.png	80	animate	insect	grasshopper	4	0	5	stars	2	correct	0.686364977271296
139041	1	stim149_inanimate_furniture_closet_1.png	149	inanimate	furniture	closet	1	0	5	stars	2	correct	0.686364977271296
139091	1	stim057_animate_human_sports_1.png	57	animate	human	sports	1	0	5	stars	2	correct	0.686364977271296
139141	1	stim095_animate_mammal_monkey_3.png	95	animate	mammal	monkey	3	0	5	stars	2	correct	0.686364977271296
139191	1	stim171_inanimate_plants_sunflower_3.png	171	inanimate	plants	sunflower	3	0	5	stars	2	correct	0.686364977271296
139241	1	stim175_inanimate_plants_tree_3.png	175	inanimate	plants	tree	3	0	5	stars	2	correct	0.686364977271296
139291	1	stim071_animate_insect_butterfly_3.png	71	animate	insect	butterfly	3	0	5	stars	2	correct	0.686364977271296
139341	1	stim170_inanimate_plants_sunflower_2.png	170	inanimate	plants	sunflower	2	0	5	stars	2	correct	0.686364977271296
139391	1	stim133_inanimate_fruits_pineapple_1.png	133	inanimate	fruits	pineapple	1	0	5	stars	2	correct	0.686364977271296
139441	1	stim012_animate_aquatic_seahorse_4.png	12	animate	aquatic	seahorse	4	0	5	stars	2	correct	0.686364977271296
139491	1	stim160_inanimate_furniture_table_4.png	160	inanimate	furniture	table	4	0	5	stars	2	correct	0.686364977271296
