onset	duration	stimulusname	stimulusnumber	levelA	levelB	levelC	withinexemplarnumber	istarget	trialnumber	condition	response	correct	rt
35605	1	stim006_animate_aquatic_fish_2.png	6	animate	aquatic	fish	2	0	1	stars	3	correct	0.875802712282166
35655	1	stim078_animate_insect_grasshopper_2.png	78	animate	insect	grasshopper	2	0	1	stars	3	correct	0.875802712282166
35705	1	stim036_animate_bird_peacock_4.png	36	animate	bird	peacock	4	0	1	stars	3	correct	0.875802712282166
35755	1	stim145_inanimate_furniture_chair_1.png	145	inanimate	furniture	chair	1	0	1	stars	3	correct	0.875802712282166
35805	1	stim033_animate_bird_peacock_1.png	33	animate	bird	peacock	1	0	1	stars	3	correct	0.875802712282166
35855	1	stim060_animate_human_sports_4.png	60	animate	human	sports	4	0	1	stars	3	correct	0.875802712282166
35905	1	stim157_inanimate_furniture_table_1.png	157	inanimate	furniture	table	1	0	1	stars	3	correct	0.875802712282166
35955	1	stim004_animate_aquatic_crab_4.png	4	animate	aquatic	crab	4	0	1	stars	3	correct	0.875802712282166
36005	1	stim151_inanimate_furniture_closet_3.png	151	inanimate	furniture	closet	3	0	1	stars	3	correct	0.875802712282166
36055	1	stim003_animate_aquatic_crab_3.png	3	animate	aquatic	crab	3	0	1	stars	3	correct	0.875802712282166
36105	1	stim189_inanimate_tools_pan_1.png	189	inanimate	tools	pan	1	0	1	stars	3	correct	0.875802712282166
36155	1	stim090_animate_mammal_kangaroo_2.png	90	animate	mammal	kangaroo	2	0	1	stars	3	correct	0.875802712282166
36205	1	stim017_animate_aquatic_shrimp_1.png	17	animate	aquatic	shrimp	1	0	1	stars	3	correct	0.875802712282166
36255	1	stim198_inanimate_tools_wrench_2.png	198	inanimate	tools	wrench	2	0	1	stars	3	correct	0.875802712282166
36305	1	stim071_animate_insect_butterfly_3.png	71	animate	insect	butterfly	3	0	1	stars	3	correct	0.875802712282166
36355	1	stim171_inanimate_plants_sunflower_3.png	171	inanimate	plants	sunflower	3	0	1	stars	3	correct	0.875802712282166
36405	1	stim170_inanimate_plants_sunflower_2.png	170	inanimate	plants	sunflower	2	0	1	stars	3	correct	0.875802712282166
36455	1	stim009_animate_aquatic_seahorse_1.png	9	animate	aquatic	seahorse	1	0	1	stars	3	correct	0.875802712282166
36505	1	stim083_animate_mammal_cow_3.png	83	animate	mammal	cow	3	0	1	stars	3	correct	0.875802712282166
36555	1	stim163_inanimate_plants_bush_3.png	163	inanimate	plants	bush	3	0	1	stars	3	correct	0.875802712282166
36605	1	stim041_animate_human_baby_1.png	41	animate	human	baby	1	0	1	stars	3	correct	0.875802712282166
36655	1	stim018_animate_aquatic_shrimp_2.png	18	animate	aquatic	shrimp	2	0	1	stars	3	correct	0.875802712282166
36705	1	stim027_animate_bird_duck_3.png	27	animate	bird	duck	3	0	1	stars	3	correct	0.875802712282166
36755	1	stim131_inanimate_fruits_grape_3.png	131	inanimate	fruits	grape	3	0	1	stars	3	correct	0.875802712282166
36805	1	stim162_inanimate_plants_bush_2.png	162	inanimate	plants	bush	2	0	1	stars	3	correct	0.875802712282166
36855	1	stim116_inanimate_clothing_shirt_4.png	116	inanimate	clothing	shirt	4	0	1	stars	3	correct	0.875802712282166
36905	1	stim177_inanimate_plants_tulip_1.png	177	inanimate	plants	tulip	1	0	1	stars	3	correct	0.875802712282166
36955	1	stim051_animate_human_clown_3.png	51	animate	human	clown	3	0	1	stars	3	correct	0.875802712282166
37005	1	stim082_animate_mammal_cow_2.png	82	animate	mammal	cow	2	0	1	stars	3	correct	0.875802712282166
37055	1	stim184_inanimate_tools_broom_4.png	184	inanimate	tools	broom	4	0	1	stars	3	correct	0.875802712282166
37105	1	stim032_animate_bird_parrot_4.png	32	animate	bird	parrot	4	0	1	stars	3	correct	0.875802712282166
37155	1	stim099_animate_mammal_rhino_3.png	99	animate	mammal	rhino	3	0	1	stars	3	correct	0.875802712282166
37205	1	stim030_animate_bird_parrot_2.png	30	animate	bird	parrot	2	0	1	stars	3	correct	0.875802712282166
37255	1	stim111_inanimate_clothing_jeans_3.png	111	inanimate	clothing	jeans	3	0	1	stars	3	correct	0.875802712282166
37305	1	stim050_animate_human_clown_2.png	50	animate	human	clown	2	0	1	stars	3	correct	0.875802712282166
37355	1	stim022_animate_bird_chicken_2.png	22	animate	bird	chicken	2	0	1	stars	3	correct	0.875802712282166
37405	1	stim146_inanimate_furniture_chair_2.png	146	inanimate	furniture	chair	2	0	1	stars	3	correct	0.875802712282166
37455	1	stim156_inanimate_furniture_sofa_4.png	156	inanimate	furniture	sofa	4	0	1	stars	3	correct	0.875802712282166
37505	1	stim002_animate_aquatic_crab_2.png	2	animate	aquatic	crab	2	0	1	stars	3	correct	0.875802712282166
37555	1	stim058_animate_human_sports_2.png	58	animate	human	sports	2	0	1	stars	3	correct	0.875802712282166
37605	1	stim200_inanimate_tools_wrench_4.png	200	inanimate	tools	wrench	4	0	1	stars	3	correct	0.875802712282166
37655	1	stim062_animate_insect_ant_2.png	62	animate	insect	ant	2	0	1	stars	3	correct	0.875802712282166
37705	1	stim195_inanimate_tools_scissors_3.png	195	inanimate	tools	scissors	3	0	1	stars	3	correct	0.875802712282166
37755	1	stim066_animate_insect_bug_2.png	66	animate	insect	bug	2	0	1	stars	3	correct	0.875802712282166
37805	1	stim089_animate_mammal_kangaroo_1.png	89	animate	mammal	kangaroo	1	0	1	stars	3	correct	0.875802712282166
37855	1	stim174_inanimate_plants_tree_2.png	174	inanimate	plants	tree	2	0	1	stars	3	correct	0.875802712282166
37905	1	stim186_inanimate_tools_hammer_2.png	186	inanimate	tools	hammer	2	0	1	stars	3	correct	0.875802712282166
37955	1	stim042_animate_human_baby_2.png	42	animate	human	baby	2	0	1	stars	3	correct	0.875802712282166
38005	1	stim015_animate_aquatic_shark_3.png	15	animate	aquatic	shark	3	0	1	stars	3	correct	0.875802712282166
38055	1	stim153_inanimate_furniture_sofa_1.png	153	inanimate	furniture	sofa	1	0	1	stars	3	correct	0.875802712282166
38105	1	stim043_animate_human_baby_3.png	43	animate	human	baby	3	0	1	stars	3	correct	0.875802712282166
38155	1	stim132_inanimate_fruits_grape_4.png	132	inanimate	fruits	grape	4	0	1	stars	3	correct	0.875802712282166
38205	1	stim172_inanimate_plants_sunflower_4.png	172	inanimate	plants	sunflower	4	0	1	stars	3	correct	0.875802712282166
38255	1	stim183_inanimate_tools_broom_3.png	183	inanimate	tools	broom	3	0	1	stars	3	correct	0.875802712282166
38305	1	stim164_inanimate_plants_bush_4.png	164	inanimate	plants	bush	4	0	1	stars	3	correct	0.875802712282166
38355	1	stim020_animate_aquatic_shrimp_4.png	20	animate	aquatic	shrimp	4	0	1	stars	3	correct	0.875802712282166
38405	1	stim158_inanimate_furniture_table_2.png	158	inanimate	furniture	table	2	0	1	stars	3	correct	0.875802712282166
38455	1	stim031_animate_bird_parrot_3.png	31	animate	bird	parrot	3	0	1	stars	3	correct	0.875802712282166
38505	1	stim193_inanimate_tools_scissors_1.png	193	inanimate	tools	scissors	1	0	1	stars	3	correct	0.875802712282166
38555	1	stim121_inanimate_fruits_apple_1.png	121	inanimate	fruits	apple	1	0	1	stars	3	correct	0.875802712282166
38605	1	stim173_inanimate_plants_tree_1.png	173	inanimate	plants	tree	1	0	1	stars	3	correct	0.875802712282166
38655	1	stim143_inanimate_furniture_bed_3.png	143	inanimate	furniture	bed	3	0	1	stars	3	correct	0.875802712282166
38705	1	stim108_inanimate_clothing_hat_4.png	108	inanimate	clothing	hat	4	0	1	stars	3	correct	0.875802712282166
38755	1	stim159_inanimate_furniture_table_3.png	159	inanimate	furniture	table	3	0	1	stars	3	correct	0.875802712282166
38805	1	stim216_targets_shapes_star_4.png	216	targets	shapes	star	4	1	1	stars	3	correct	0.875802712282166
38855	1	stim074_animate_insect_dragonfly_2.png	74	animate	insect	dragonfly	2	0	1	stars	3	correct	0.875802712282166
38905	1	stim081_animate_mammal_cow_1.png	81	animate	mammal	cow	1	0	1	stars	3	correct	0.875802712282166
38955	1	stim120_inanimate_clothing_socks_4.png	120	inanimate	clothing	socks	4	0	1	stars	3	correct	0.875802712282166
39005	1	stim179_inanimate_plants_tulip_3.png	179	inanimate	plants	tulip	3	0	1	stars	3	correct	0.875802712282166
39055	1	stim045_animate_human_child_1.png	45	animate	human	child	1	0	1	stars	3	correct	0.875802712282166
39105	1	stim092_animate_mammal_kangaroo_4.png	92	animate	mammal	kangaroo	4	0	1	stars	3	correct	0.875802712282166
39155	1	stim107_inanimate_clothing_hat_3.png	107	inanimate	clothing	hat	3	0	1	stars	3	correct	0.875802712282166
39205	1	stim028_animate_bird_duck_4.png	28	animate	bird	duck	4	0	1	stars	3	correct	0.875802712282166
39255	1	stim160_inanimate_furniture_table_4.png	160	inanimate	furniture	table	4	0	1	stars	3	correct	0.875802712282166
39305	1	stim199_inanimate_tools_wrench_3.png	199	inanimate	tools	wrench	3	0	1	stars	3	correct	0.875802712282166
39355	1	stim044_animate_human_baby_4.png	44	animate	human	baby	4	0	1	stars	3	correct	0.875802712282166
39405	1	stim026_animate_bird_duck_2.png	26	animate	bird	duck	2	0	1	stars	3	correct	0.875802712282166
39455	1	stim137_inanimate_fruits_strawberry_1.png	137	inanimate	fruits	strawberry	1	0	1	stars	3	correct	0.875802712282166
39505	1	stim101_inanimate_clothing_gloves_1.png	101	inanimate	clothing	gloves	1	0	1	stars	3	correct	0.875802712282166
39555	1	stim181_inanimate_tools_broom_1.png	181	inanimate	tools	broom	1	0	1	stars	3	correct	0.875802712282166
39605	1	stim119_inanimate_clothing_socks_3.png	119	inanimate	clothing	socks	3	0	1	stars	3	correct	0.875802712282166
39655	1	stim152_inanimate_furniture_closet_4.png	152	inanimate	furniture	closet	4	0	1	stars	3	correct	0.875802712282166
39705	1	stim104_inanimate_clothing_gloves_4.png	104	inanimate	clothing	gloves	4	0	1	stars	3	correct	0.875802712282166
39755	1	stim136_inanimate_fruits_pineapple_4.png	136	inanimate	fruits	pineapple	4	0	1	stars	3	correct	0.875802712282166
39805	1	stim127_inanimate_fruits_banana_3.png	127	inanimate	fruits	banana	3	0	1	stars	3	correct	0.875802712282166
39855	1	stim067_animate_insect_bug_3.png	67	animate	insect	bug	3	0	1	stars	3	correct	0.875802712282166
39905	1	stim053_animate_human_faces_1.png	53	animate	human	faces	1	0	1	stars	3	correct	0.875802712282166
39955	1	stim139_inanimate_fruits_strawberry_3.png	139	inanimate	fruits	strawberry	3	0	1	stars	3	correct	0.875802712282166
40005	1	stim188_inanimate_tools_hammer_4.png	188	inanimate	tools	hammer	4	0	1	stars	3	correct	0.875802712282166
40055	1	stim128_inanimate_fruits_banana_4.png	128	inanimate	fruits	banana	4	0	1	stars	3	correct	0.875802712282166
40105	1	stim095_animate_mammal_monkey_3.png	95	animate	mammal	monkey	3	0	1	stars	3	correct	0.875802712282166
40155	1	stim005_animate_aquatic_fish_1.png	5	animate	aquatic	fish	1	0	1	stars	3	correct	0.875802712282166
40205	1	stim123_inanimate_fruits_apple_3.png	123	inanimate	fruits	apple	3	0	1	stars	3	correct	0.875802712282166
40255	1	stim010_animate_aquatic_seahorse_2.png	10	animate	aquatic	seahorse	2	0	1	stars	3	correct	0.875802712282166
40305	1	stim112_inanimate_clothing_jeans_4.png	112	inanimate	clothing	jeans	4	0	1	stars	3	correct	0.875802712282166
40355	1	stim125_inanimate_fruits_banana_1.png	125	inanimate	fruits	banana	1	0	1	stars	3	correct	0.875802712282166
40405	1	stim085_animate_mammal_giraffe_1.png	85	animate	mammal	giraffe	1	0	1	stars	3	correct	0.875802712282166
40455	1	stim194_inanimate_tools_scissors_2.png	194	inanimate	tools	scissors	2	0	1	stars	3	correct	0.875802712282166
40505	1	stim180_inanimate_plants_tulip_4.png	180	inanimate	plants	tulip	4	0	1	stars	3	correct	0.875802712282166
40555	1	stim047_animate_human_child_3.png	47	animate	human	child	3	0	1	stars	3	correct	0.875802712282166
40605	1	stim097_animate_mammal_rhino_1.png	97	animate	mammal	rhino	1	0	1	stars	3	correct	0.875802712282166
40655	1	stim155_inanimate_furniture_sofa_3.png	155	inanimate	furniture	sofa	3	0	1	stars	3	correct	0.875802712282166
40705	1	stim070_animate_insect_butterfly_2.png	70	animate	insect	butterfly	2	0	1	stars	3	correct	0.875802712282166
40755	1	stim133_inanimate_fruits_pineapple_1.png	133	inanimate	fruits	pineapple	1	0	1	stars	3	correct	0.875802712282166
40805	1	stim192_inanimate_tools_pan_4.png	192	inanimate	tools	pan	4	0	1	stars	3	correct	0.875802712282166
40855	1	stim069_animate_insect_butterfly_1.png	69	animate	insect	butterfly	1	0	1	stars	3	correct	0.875802712282166
40905	1	stim105_inanimate_clothing_hat_1.png	105	inanimate	clothing	hat	1	0	1	stars	3	correct	0.875802712282166
40955	1	stim011_animate_aquatic_seahorse_3.png	11	animate	aquatic	seahorse	3	0	1	stars	3	correct	0.875802712282166
41005	1	stim212_targets_shapes_star_4.png	212	targets	shapes	star	4	1	1	stars	3	correct	0.875802712282166
41055	1	stim091_animate_mammal_kangaroo_3.png	91	animate	mammal	kangaroo	3	0	1	stars	3	correct	0.875802712282166
41105	1	stim075_animate_insect_dragonfly_3.png	75	animate	insect	dragonfly	3	0	1	stars	3	correct	0.875802712282166
41155	1	stim019_animate_aquatic_shrimp_3.png	19	animate	aquatic	shrimp	3	0	1	stars	3	correct	0.875802712282166
41205	1	stim109_inanimate_clothing_jeans_1.png	109	inanimate	clothing	jeans	1	0	1	stars	3	correct	0.875802712282166
41255	1	stim110_inanimate_clothing_jeans_2.png	110	inanimate	clothing	jeans	2	0	1	stars	3	correct	0.875802712282166
41305	1	stim117_inanimate_clothing_socks_1.png	117	inanimate	clothing	socks	1	0	1	stars	3	correct	0.875802712282166
41355	1	stim142_inanimate_furniture_bed_2.png	142	inanimate	furniture	bed	2	0	1	stars	3	correct	0.875802712282166
41405	1	stim176_inanimate_plants_tree_4.png	176	inanimate	plants	tree	4	0	1	stars	3	correct	0.875802712282166
41455	1	stim134_inanimate_fruits_pineapple_2.png	134	inanimate	fruits	pineapple	2	0	1	stars	3	correct	0.875802712282166
41505	1	stim094_animate_mammal_monkey_2.png	94	animate	mammal	monkey	2	0	1	stars	3	correct	0.875802712282166
41555	1	stim118_inanimate_clothing_socks_2.png	118	inanimate	clothing	socks	2	0	1	stars	3	correct	0.875802712282166
41605	1	stim185_inanimate_tools_hammer_1.png	185	inanimate	tools	hammer	1	0	1	stars	3	correct	0.875802712282166
41655	1	stim061_animate_insect_ant_1.png	61	animate	insect	ant	1	0	1	stars	3	correct	0.875802712282166
41705	1	stim175_inanimate_plants_tree_3.png	175	inanimate	plants	tree	3	0	1	stars	3	correct	0.875802712282166
41755	1	stim012_animate_aquatic_seahorse_4.png	12	animate	aquatic	seahorse	4	0	1	stars	3	correct	0.875802712282166
41805	1	stim056_animate_human_faces_4.png	56	animate	human	faces	4	0	1	stars	3	correct	0.875802712282166
41855	1	stim063_animate_insect_ant_3.png	63	animate	insect	ant	3	0	1	stars	3	correct	0.875802712282166
41905	1	stim168_inanimate_plants_cactus_4.png	168	inanimate	plants	cactus	4	0	1	stars	3	correct	0.875802712282166
41955	1	stim135_inanimate_fruits_pineapple_3.png	135	inanimate	fruits	pineapple	3	0	1	stars	3	correct	0.875802712282166
42005	1	stim064_animate_insect_ant_4.png	64	animate	insect	ant	4	0	1	stars	3	correct	0.875802712282166
42055	1	stim008_animate_aquatic_fish_4.png	8	animate	aquatic	fish	4	0	1	stars	3	correct	0.875802712282166
42105	1	stim029_animate_bird_parrot_1.png	29	animate	bird	parrot	1	0	1	stars	3	correct	0.875802712282166
42155	1	stim150_inanimate_furniture_closet_2.png	150	inanimate	furniture	closet	2	0	1	stars	3	correct	0.875802712282166
42205	1	stim191_inanimate_tools_pan_3.png	191	inanimate	tools	pan	3	0	1	stars	3	correct	0.875802712282166
42255	1	stim213_targets_shapes_star_1.png	213	targets	shapes	star	1	1	1	stars	3	correct	0.875802712282166
42305	1	stim037_animate_bird_penguin_1.png	37	animate	bird	penguin	1	0	1	stars	3	correct	0.875802712282166
42355	1	stim113_inanimate_clothing_shirt_1.png	113	inanimate	clothing	shirt	1	0	1	stars	3	correct	0.875802712282166
42405	1	stim084_animate_mammal_cow_4.png	84	animate	mammal	cow	4	0	1	stars	3	correct	0.875802712282166
42455	1	stim048_animate_human_child_4.png	48	animate	human	child	4	0	1	stars	3	correct	0.875802712282166
42505	1	stim167_inanimate_plants_cactus_3.png	167	inanimate	plants	cactus	3	0	1	stars	3	correct	0.875802712282166
42555	1	stim038_animate_bird_penguin_2.png	38	animate	bird	penguin	2	0	1	stars	3	correct	0.875802712282166
42605	1	stim154_inanimate_furniture_sofa_2.png	154	inanimate	furniture	sofa	2	0	1	stars	3	correct	0.875802712282166
42655	1	stim124_inanimate_fruits_apple_4.png	124	inanimate	fruits	apple	4	0	1	stars	3	correct	0.875802712282166
42705	1	stim182_inanimate_tools_broom_2.png	182	inanimate	tools	broom	2	0	1	stars	3	correct	0.875802712282166
42755	1	stim147_inanimate_furniture_chair_3.png	147	inanimate	furniture	chair	3	0	1	stars	3	correct	0.875802712282166
42805	1	stim059_animate_human_sports_3.png	59	animate	human	sports	3	0	1	stars	3	correct	0.875802712282166
42855	1	stim007_animate_aquatic_fish_3.png	7	animate	aquatic	fish	3	0	1	stars	3	correct	0.875802712282166
42905	1	stim141_inanimate_furniture_bed_1.png	141	inanimate	furniture	bed	1	0	1	stars	3	correct	0.875802712282166
42955	1	stim098_animate_mammal_rhino_2.png	98	animate	mammal	rhino	2	0	1	stars	3	correct	0.875802712282166
43005	1	stim126_inanimate_fruits_banana_2.png	126	inanimate	fruits	banana	2	0	1	stars	3	correct	0.875802712282166
43055	1	stim100_animate_mammal_rhino_4.png	100	animate	mammal	rhino	4	0	1	stars	3	correct	0.875802712282166
43105	1	stim130_inanimate_fruits_grape_2.png	130	inanimate	fruits	grape	2	0	1	stars	3	correct	0.875802712282166
43155	1	stim103_inanimate_clothing_gloves_3.png	103	inanimate	clothing	gloves	3	0	1	stars	3	correct	0.875802712282166
43205	1	stim001_animate_aquatic_crab_1.png	1	animate	aquatic	crab	1	0	1	stars	3	correct	0.875802712282166
43255	1	stim013_animate_aquatic_shark_1.png	13	animate	aquatic	shark	1	0	1	stars	3	correct	0.875802712282166
43305	1	stim161_inanimate_plants_bush_1.png	161	inanimate	plants	bush	1	0	1	stars	3	correct	0.875802712282166
43355	1	stim144_inanimate_furniture_bed_4.png	144	inanimate	furniture	bed	4	0	1	stars	3	correct	0.875802712282166
43405	1	stim052_animate_human_clown_4.png	52	animate	human	clown	4	0	1	stars	3	correct	0.875802712282166
43455	1	stim077_animate_insect_grasshopper_1.png	77	animate	insect	grasshopper	1	0	1	stars	3	correct	0.875802712282166
43505	1	stim040_animate_bird_penguin_4.png	40	animate	bird	penguin	4	0	1	stars	3	correct	0.875802712282166
43555	1	stim068_animate_insect_bug_4.png	68	animate	insect	bug	4	0	1	stars	3	correct	0.875802712282166
43605	1	stim178_inanimate_plants_tulip_2.png	178	inanimate	plants	tulip	2	0	1	stars	3	correct	0.875802712282166
43655	1	stim072_animate_insect_butterfly_4.png	72	animate	insect	butterfly	4	0	1	stars	3	correct	0.875802712282166
43705	1	stim196_inanimate_tools_scissors_4.png	196	inanimate	tools	scissors	4	0	1	stars	3	correct	0.875802712282166
43755	1	stim023_animate_bird_chicken_3.png	23	animate	bird	chicken	3	0	1	stars	3	correct	0.875802712282166
43805	1	stim025_animate_bird_duck_1.png	25	animate	bird	duck	1	0	1	stars	3	correct	0.875802712282166
43855	1	stim054_animate_human_faces_2.png	54	animate	human	faces	2	0	1	stars	3	correct	0.875802712282166
43905	1	stim102_inanimate_clothing_gloves_2.png	102	inanimate	clothing	gloves	2	0	1	stars	3	correct	0.875802712282166
43955	1	stim076_animate_insect_dragonfly_4.png	76	animate	insect	dragonfly	4	0	1	stars	3	correct	0.875802712282166
44005	1	stim106_inanimate_clothing_hat_2.png	106	inanimate	clothing	hat	2	0	1	stars	3	correct	0.875802712282166
44055	1	stim096_animate_mammal_monkey_4.png	96	animate	mammal	monkey	4	0	1	stars	3	correct	0.875802712282166
44105	1	stim080_animate_insect_grasshopper_4.png	80	animate	insect	grasshopper	4	0	1	stars	3	correct	0.875802712282166
44155	1	stim024_animate_bird_chicken_4.png	24	animate	bird	chicken	4	0	1	stars	3	correct	0.875802712282166
44205	1	stim014_animate_aquatic_shark_2.png	14	animate	aquatic	shark	2	0	1	stars	3	correct	0.875802712282166
44255	1	stim115_inanimate_clothing_shirt_3.png	115	inanimate	clothing	shirt	3	0	1	stars	3	correct	0.875802712282166
44305	1	stim057_animate_human_sports_1.png	57	animate	human	sports	1	0	1	stars	3	correct	0.875802712282166
44355	1	stim049_animate_human_clown_1.png	49	animate	human	clown	1	0	1	stars	3	correct	0.875802712282166
44405	1	stim073_animate_insect_dragonfly_1.png	73	animate	insect	dragonfly	1	0	1	stars	3	correct	0.875802712282166
44455	1	stim093_animate_mammal_monkey_1.png	93	animate	mammal	monkey	1	0	1	stars	3	correct	0.875802712282166
44505	1	stim149_inanimate_furniture_closet_1.png	149	inanimate	furniture	closet	1	0	1	stars	3	correct	0.875802712282166
44555	1	stim055_animate_human_faces_3.png	55	animate	human	faces	3	0	1	stars	3	correct	0.875802712282166
44605	1	stim035_animate_bird_peacock_3.png	35	animate	bird	peacock	3	0	1	stars	3	correct	0.875802712282166
44655	1	stim021_animate_bird_chicken_1.png	21	animate	bird	chicken	1	0	1	stars	3	correct	0.875802712282166
44705	1	stim114_inanimate_clothing_shirt_2.png	114	inanimate	clothing	shirt	2	0	1	stars	3	correct	0.875802712282166
44755	1	stim140_inanimate_fruits_strawberry_4.png	140	inanimate	fruits	strawberry	4	0	1	stars	3	correct	0.875802712282166
44805	1	stim016_animate_aquatic_shark_4.png	16	animate	aquatic	shark	4	0	1	stars	3	correct	0.875802712282166
44855	1	stim129_inanimate_fruits_grape_1.png	129	inanimate	fruits	grape	1	0	1	stars	3	correct	0.875802712282166
44905	1	stim169_inanimate_plants_sunflower_1.png	169	inanimate	plants	sunflower	1	0	1	stars	3	correct	0.875802712282166
44955	1	stim088_animate_mammal_giraffe_4.png	88	animate	mammal	giraffe	4	0	1	stars	3	correct	0.875802712282166
45005	1	stim046_animate_human_child_2.png	46	animate	human	child	2	0	1	stars	3	correct	0.875802712282166
45055	1	stim034_animate_bird_peacock_2.png	34	animate	bird	peacock	2	0	1	stars	3	correct	0.875802712282166
45105	1	stim039_animate_bird_penguin_3.png	39	animate	bird	penguin	3	0	1	stars	3	correct	0.875802712282166
45155	1	stim148_inanimate_furniture_chair_4.png	148	inanimate	furniture	chair	4	0	1	stars	3	correct	0.875802712282166
45205	1	stim166_inanimate_plants_cactus_2.png	166	inanimate	plants	cactus	2	0	1	stars	3	correct	0.875802712282166
45255	1	stim122_inanimate_fruits_apple_2.png	122	inanimate	fruits	apple	2	0	1	stars	3	correct	0.875802712282166
45305	1	stim086_animate_mammal_giraffe_2.png	86	animate	mammal	giraffe	2	0	1	stars	3	correct	0.875802712282166
45355	1	stim197_inanimate_tools_wrench_1.png	197	inanimate	tools	wrench	1	0	1	stars	3	correct	0.875802712282166
45405	1	stim079_animate_insect_grasshopper_3.png	79	animate	insect	grasshopper	3	0	1	stars	3	correct	0.875802712282166
45455	1	stim190_inanimate_tools_pan_2.png	190	inanimate	tools	pan	2	0	1	stars	3	correct	0.875802712282166
45505	1	stim165_inanimate_plants_cactus_1.png	165	inanimate	plants	cactus	1	0	1	stars	3	correct	0.875802712282166
45555	1	stim187_inanimate_tools_hammer_3.png	187	inanimate	tools	hammer	3	0	1	stars	3	correct	0.875802712282166
45605	1	stim087_animate_mammal_giraffe_3.png	87	animate	mammal	giraffe	3	0	1	stars	3	correct	0.875802712282166
45655	1	stim138_inanimate_fruits_strawberry_2.png	138	inanimate	fruits	strawberry	2	0	1	stars	3	correct	0.875802712282166
45705	1	stim065_animate_insect_bug_1.png	65	animate	insect	bug	1	0	1	stars	3	correct	0.875802712282166
54472	1	stim190_inanimate_tools_pan_2.png	190	inanimate	tools	pan	2	0	2	stars	4	correct	0.858968885764625
54522	1	stim042_animate_human_baby_2.png	42	animate	human	baby	2	0	2	stars	4	correct	0.858968885764625
54572	1	stim121_inanimate_fruits_apple_1.png	121	inanimate	fruits	apple	1	0	2	stars	4	correct	0.858968885764625
54622	1	stim142_inanimate_furniture_bed_2.png	142	inanimate	furniture	bed	2	0	2	stars	4	correct	0.858968885764625
54672	1	stim149_inanimate_furniture_closet_1.png	149	inanimate	furniture	closet	1	0	2	stars	4	correct	0.858968885764625
54722	1	stim049_animate_human_clown_1.png	49	animate	human	clown	1	0	2	stars	4	correct	0.858968885764625
54772	1	stim057_animate_human_sports_1.png	57	animate	human	sports	1	0	2	stars	4	correct	0.858968885764625
54822	1	stim183_inanimate_tools_broom_3.png	183	inanimate	tools	broom	3	0	2	stars	4	correct	0.858968885764625
54872	1	stim116_inanimate_clothing_shirt_4.png	116	inanimate	clothing	shirt	4	0	2	stars	4	correct	0.858968885764625
54922	1	stim157_inanimate_furniture_table_1.png	157	inanimate	furniture	table	1	0	2	stars	4	correct	0.858968885764625
54972	1	stim093_animate_mammal_monkey_1.png	93	animate	mammal	monkey	1	0	2	stars	4	correct	0.858968885764625
55022	1	stim083_animate_mammal_cow_3.png	83	animate	mammal	cow	3	0	2	stars	4	correct	0.858968885764625
55072	1	stim052_animate_human_clown_4.png	52	animate	human	clown	4	0	2	stars	4	correct	0.858968885764625
55122	1	stim113_inanimate_clothing_shirt_1.png	113	inanimate	clothing	shirt	1	0	2	stars	4	correct	0.858968885764625
55172	1	stim088_animate_mammal_giraffe_4.png	88	animate	mammal	giraffe	4	0	2	stars	4	correct	0.858968885764625
55222	1	stim200_inanimate_tools_wrench_4.png	200	inanimate	tools	wrench	4	0	2	stars	4	correct	0.858968885764625
55272	1	stim114_inanimate_clothing_shirt_2.png	114	inanimate	clothing	shirt	2	0	2	stars	4	correct	0.858968885764625
55322	1	stim085_animate_mammal_giraffe_1.png	85	animate	mammal	giraffe	1	0	2	stars	4	correct	0.858968885764625
55372	1	stim139_inanimate_fruits_strawberry_3.png	139	inanimate	fruits	strawberry	3	0	2	stars	4	correct	0.858968885764625
55422	1	stim096_animate_mammal_monkey_4.png	96	animate	mammal	monkey	4	0	2	stars	4	correct	0.858968885764625
55472	1	stim033_animate_bird_peacock_1.png	33	animate	bird	peacock	1	0	2	stars	4	correct	0.858968885764625
55522	1	stim013_animate_aquatic_shark_1.png	13	animate	aquatic	shark	1	0	2	stars	4	correct	0.858968885764625
55572	1	stim044_animate_human_baby_4.png	44	animate	human	baby	4	0	2	stars	4	correct	0.858968885764625
55622	1	stim041_animate_human_baby_1.png	41	animate	human	baby	1	0	2	stars	4	correct	0.858968885764625
55672	1	stim032_animate_bird_parrot_4.png	32	animate	bird	parrot	4	0	2	stars	4	correct	0.858968885764625
55722	1	stim198_inanimate_tools_wrench_2.png	198	inanimate	tools	wrench	2	0	2	stars	4	correct	0.858968885764625
55772	1	stim090_animate_mammal_kangaroo_2.png	90	animate	mammal	kangaroo	2	0	2	stars	4	correct	0.858968885764625
55822	1	stim124_inanimate_fruits_apple_4.png	124	inanimate	fruits	apple	4	0	2	stars	4	correct	0.858968885764625
55872	1	stim046_animate_human_child_2.png	46	animate	human	child	2	0	2	stars	4	correct	0.858968885764625
55922	1	stim193_inanimate_tools_scissors_1.png	193	inanimate	tools	scissors	1	0	2	stars	4	correct	0.858968885764625
55972	1	stim077_animate_insect_grasshopper_1.png	77	animate	insect	grasshopper	1	0	2	stars	4	correct	0.858968885764625
56022	1	stim130_inanimate_fruits_grape_2.png	130	inanimate	fruits	grape	2	0	2	stars	4	correct	0.858968885764625
56072	1	stim009_animate_aquatic_seahorse_1.png	9	animate	aquatic	seahorse	1	0	2	stars	4	correct	0.858968885764625
56122	1	stim137_inanimate_fruits_strawberry_1.png	137	inanimate	fruits	strawberry	1	0	2	stars	4	correct	0.858968885764625
56172	1	stim199_inanimate_tools_wrench_3.png	199	inanimate	tools	wrench	3	0	2	stars	4	correct	0.858968885764625
56222	1	stim160_inanimate_furniture_table_4.png	160	inanimate	furniture	table	4	0	2	stars	4	correct	0.858968885764625
56272	1	stim027_animate_bird_duck_3.png	27	animate	bird	duck	3	0	2	stars	4	correct	0.858968885764625
56322	1	stim069_animate_insect_butterfly_1.png	69	animate	insect	butterfly	1	0	2	stars	4	correct	0.858968885764625
56372	1	stim092_animate_mammal_kangaroo_4.png	92	animate	mammal	kangaroo	4	0	2	stars	4	correct	0.858968885764625
56422	1	stim062_animate_insect_ant_2.png	62	animate	insect	ant	2	0	2	stars	4	correct	0.858968885764625
56472	1	stim101_inanimate_clothing_gloves_1.png	101	inanimate	clothing	gloves	1	0	2	stars	4	correct	0.858968885764625
56522	1	stim011_animate_aquatic_seahorse_3.png	11	animate	aquatic	seahorse	3	0	2	stars	4	correct	0.858968885764625
56572	1	stim195_inanimate_tools_scissors_3.png	195	inanimate	tools	scissors	3	0	2	stars	4	correct	0.858968885764625
56622	1	stim167_inanimate_plants_cactus_3.png	167	inanimate	plants	cactus	3	0	2	stars	4	correct	0.858968885764625
56672	1	stim191_inanimate_tools_pan_3.png	191	inanimate	tools	pan	3	0	2	stars	4	correct	0.858968885764625
56722	1	stim107_inanimate_clothing_hat_3.png	107	inanimate	clothing	hat	3	0	2	stars	4	correct	0.858968885764625
56772	1	stim115_inanimate_clothing_shirt_3.png	115	inanimate	clothing	shirt	3	0	2	stars	4	correct	0.858968885764625
56822	1	stim177_inanimate_plants_tulip_1.png	177	inanimate	plants	tulip	1	0	2	stars	4	correct	0.858968885764625
56872	1	stim171_inanimate_plants_sunflower_3.png	171	inanimate	plants	sunflower	3	0	2	stars	4	correct	0.858968885764625
56922	1	stim147_inanimate_furniture_chair_3.png	147	inanimate	furniture	chair	3	0	2	stars	4	correct	0.858968885764625
56972	1	stim187_inanimate_tools_hammer_3.png	187	inanimate	tools	hammer	3	0	2	stars	4	correct	0.858968885764625
57022	1	stim155_inanimate_furniture_sofa_3.png	155	inanimate	furniture	sofa	3	0	2	stars	4	correct	0.858968885764625
57072	1	stim215_targets_shapes_star_3.png	215	targets	shapes	star	3	1	2	stars	4	correct	0.858968885764625
57122	1	stim070_animate_insect_butterfly_2.png	70	animate	insect	butterfly	2	0	2	stars	4	correct	0.858968885764625
57172	1	stim104_inanimate_clothing_gloves_4.png	104	inanimate	clothing	gloves	4	0	2	stars	4	correct	0.858968885764625
57222	1	stim196_inanimate_tools_scissors_4.png	196	inanimate	tools	scissors	4	0	2	stars	4	correct	0.858968885764625
57272	1	stim081_animate_mammal_cow_1.png	81	animate	mammal	cow	1	0	2	stars	4	correct	0.858968885764625
57322	1	stim037_animate_bird_penguin_1.png	37	animate	bird	penguin	1	0	2	stars	4	correct	0.858968885764625
57372	1	stim047_animate_human_child_3.png	47	animate	human	child	3	0	2	stars	4	correct	0.858968885764625
57422	1	stim112_inanimate_clothing_jeans_4.png	112	inanimate	clothing	jeans	4	0	2	stars	4	correct	0.858968885764625
57472	1	stim153_inanimate_furniture_sofa_1.png	153	inanimate	furniture	sofa	1	0	2	stars	4	correct	0.858968885764625
57522	1	stim134_inanimate_fruits_pineapple_2.png	134	inanimate	fruits	pineapple	2	0	2	stars	4	correct	0.858968885764625
57572	1	stim097_animate_mammal_rhino_1.png	97	animate	mammal	rhino	1	0	2	stars	4	correct	0.858968885764625
57622	1	stim169_inanimate_plants_sunflower_1.png	169	inanimate	plants	sunflower	1	0	2	stars	4	correct	0.858968885764625
57672	1	stim095_animate_mammal_monkey_3.png	95	animate	mammal	monkey	3	0	2	stars	4	correct	0.858968885764625
57722	1	stim074_animate_insect_dragonfly_2.png	74	animate	insect	dragonfly	2	0	2	stars	4	correct	0.858968885764625
57772	1	stim036_animate_bird_peacock_4.png	36	animate	bird	peacock	4	0	2	stars	4	correct	0.858968885764625
57822	1	stim154_inanimate_furniture_sofa_2.png	154	inanimate	furniture	sofa	2	0	2	stars	4	correct	0.858968885764625
57872	1	stim106_inanimate_clothing_hat_2.png	106	inanimate	clothing	hat	2	0	2	stars	4	correct	0.858968885764625
57922	1	stim068_animate_insect_bug_4.png	68	animate	insect	bug	4	0	2	stars	4	correct	0.858968885764625
57972	1	stim021_animate_bird_chicken_1.png	21	animate	bird	chicken	1	0	2	stars	4	correct	0.858968885764625
58022	1	stim082_animate_mammal_cow_2.png	82	animate	mammal	cow	2	0	2	stars	4	correct	0.858968885764625
58072	1	stim126_inanimate_fruits_banana_2.png	126	inanimate	fruits	banana	2	0	2	stars	4	correct	0.858968885764625
58122	1	stim156_inanimate_furniture_sofa_4.png	156	inanimate	furniture	sofa	4	0	2	stars	4	correct	0.858968885764625
58172	1	stim103_inanimate_clothing_gloves_3.png	103	inanimate	clothing	gloves	3	0	2	stars	4	correct	0.858968885764625
58222	1	stim079_animate_insect_grasshopper_3.png	79	animate	insect	grasshopper	3	0	2	stars	4	correct	0.858968885764625
58272	1	stim051_animate_human_clown_3.png	51	animate	human	clown	3	0	2	stars	4	correct	0.858968885764625
58322	1	stim132_inanimate_fruits_grape_4.png	132	inanimate	fruits	grape	4	0	2	stars	4	correct	0.858968885764625
58372	1	stim078_animate_insect_grasshopper_2.png	78	animate	insect	grasshopper	2	0	2	stars	4	correct	0.858968885764625
58422	1	stim150_inanimate_furniture_closet_2.png	150	inanimate	furniture	closet	2	0	2	stars	4	correct	0.858968885764625
58472	1	stim058_animate_human_sports_2.png	58	animate	human	sports	2	0	2	stars	4	correct	0.858968885764625
58522	1	stim179_inanimate_plants_tulip_3.png	179	inanimate	plants	tulip	3	0	2	stars	4	correct	0.858968885764625
58572	1	stim210_targets_shapes_star_2.png	210	targets	shapes	star	2	1	2	stars	4	correct	0.858968885764625
58622	1	stim185_inanimate_tools_hammer_1.png	185	inanimate	tools	hammer	1	0	2	stars	4	correct	0.858968885764625
58672	1	stim064_animate_insect_ant_4.png	64	animate	insect	ant	4	0	2	stars	4	correct	0.858968885764625
58722	1	stim122_inanimate_fruits_apple_2.png	122	inanimate	fruits	apple	2	0	2	stars	4	correct	0.858968885764625
58772	1	stim119_inanimate_clothing_socks_3.png	119	inanimate	clothing	socks	3	0	2	stars	4	correct	0.858968885764625
58822	1	stim180_inanimate_plants_tulip_4.png	180	inanimate	plants	tulip	4	0	2	stars	4	correct	0.858968885764625
58872	1	stim100_animate_mammal_rhino_4.png	100	animate	mammal	rhino	4	0	2	stars	4	correct	0.858968885764625
58922	1	stim023_animate_bird_chicken_3.png	23	animate	bird	chicken	3	0	2	stars	4	correct	0.858968885764625
58972	1	stim056_animate_human_faces_4.png	56	animate	human	faces	4	0	2	stars	4	correct	0.858968885764625
59022	1	stim012_animate_aquatic_seahorse_4.png	12	animate	aquatic	seahorse	4	0	2	stars	4	correct	0.858968885764625
59072	1	stim174_inanimate_plants_tree_2.png	174	inanimate	plants	tree	2	0	2	stars	4	correct	0.858968885764625
59122	1	stim173_inanimate_plants_tree_1.png	173	inanimate	plants	tree	1	0	2	stars	4	correct	0.858968885764625
59172	1	stim178_inanimate_plants_tulip_2.png	178	inanimate	plants	tulip	2	0	2	stars	4	correct	0.858968885764625
59222	1	stim123_inanimate_fruits_apple_3.png	123	inanimate	fruits	apple	3	0	2	stars	4	correct	0.858968885764625
59272	1	stim080_animate_insect_grasshopper_4.png	80	animate	insect	grasshopper	4	0	2	stars	4	correct	0.858968885764625
59322	1	stim172_inanimate_plants_sunflower_4.png	172	inanimate	plants	sunflower	4	0	2	stars	4	correct	0.858968885764625
59372	1	stim182_inanimate_tools_broom_2.png	182	inanimate	tools	broom	2	0	2	stars	4	correct	0.858968885764625
59422	1	stim168_inanimate_plants_cactus_4.png	168	inanimate	plants	cactus	4	0	2	stars	4	correct	0.858968885764625
59472	1	stim117_inanimate_clothing_socks_1.png	117	inanimate	clothing	socks	1	0	2	stars	4	correct	0.858968885764625
59522	1	stim020_animate_aquatic_shrimp_4.png	20	animate	aquatic	shrimp	4	0	2	stars	4	correct	0.858968885764625
59572	1	stim039_animate_bird_penguin_3.png	39	animate	bird	penguin	3	0	2	stars	4	correct	0.858968885764625
59622	1	stim098_animate_mammal_rhino_2.png	98	animate	mammal	rhino	2	0	2	stars	4	correct	0.858968885764625
59672	1	stim035_animate_bird_peacock_3.png	35	animate	bird	peacock	3	0	2	stars	4	correct	0.858968885764625
59722	1	stim002_animate_aquatic_crab_2.png	2	animate	aquatic	crab	2	0	2	stars	4	correct	0.858968885764625
59772	1	stim066_animate_insect_bug_2.png	66	animate	insect	bug	2	0	2	stars	4	correct	0.858968885764625
59822	1	stim099_animate_mammal_rhino_3.png	99	animate	mammal	rhino	3	0	2	stars	4	correct	0.858968885764625
59872	1	stim127_inanimate_fruits_banana_3.png	127	inanimate	fruits	banana	3	0	2	stars	4	correct	0.858968885764625
59922	1	stim061_animate_insect_ant_1.png	61	animate	insect	ant	1	0	2	stars	4	correct	0.858968885764625
59972	1	stim091_animate_mammal_kangaroo_3.png	91	animate	mammal	kangaroo	3	0	2	stars	4	correct	0.858968885764625
60022	1	stim110_inanimate_clothing_jeans_2.png	110	inanimate	clothing	jeans	2	0	2	stars	4	correct	0.858968885764625
60072	1	stim048_animate_human_child_4.png	48	animate	human	child	4	0	2	stars	4	correct	0.858968885764625
60122	1	stim040_animate_bird_penguin_4.png	40	animate	bird	penguin	4	0	2	stars	4	correct	0.858968885764625
60172	1	stim164_inanimate_plants_bush_4.png	164	inanimate	plants	bush	4	0	2	stars	4	correct	0.858968885764625
60222	1	stim028_animate_bird_duck_4.png	28	animate	bird	duck	4	0	2	stars	4	correct	0.858968885764625
60272	1	stim135_inanimate_fruits_pineapple_3.png	135	inanimate	fruits	pineapple	3	0	2	stars	4	correct	0.858968885764625
60322	1	stim128_inanimate_fruits_banana_4.png	128	inanimate	fruits	banana	4	0	2	stars	4	correct	0.858968885764625
60372	1	stim140_inanimate_fruits_strawberry_4.png	140	inanimate	fruits	strawberry	4	0	2	stars	4	correct	0.858968885764625
60422	1	stim161_inanimate_plants_bush_1.png	161	inanimate	plants	bush	1	0	2	stars	4	correct	0.858968885764625
60472	1	stim159_inanimate_furniture_table_3.png	159	inanimate	furniture	table	3	0	2	stars	4	correct	0.858968885764625
60522	1	stim089_animate_mammal_kangaroo_1.png	89	animate	mammal	kangaroo	1	0	2	stars	4	correct	0.858968885764625
60572	1	stim214_targets_shapes_star_2.png	214	targets	shapes	star	2	1	2	stars	4	correct	0.858968885764625
60622	1	stim045_animate_human_child_1.png	45	animate	human	child	1	0	2	stars	4	correct	0.858968885764625
60672	1	stim063_animate_insect_ant_3.png	63	animate	insect	ant	3	0	2	stars	4	correct	0.858968885764625
60722	1	stim136_inanimate_fruits_pineapple_4.png	136	inanimate	fruits	pineapple	4	0	2	stars	4	correct	0.858968885764625
60772	1	stim120_inanimate_clothing_socks_4.png	120	inanimate	clothing	socks	4	0	2	stars	4	correct	0.858968885764625
60822	1	stim014_animate_aquatic_shark_2.png	14	animate	aquatic	shark	2	0	2	stars	4	correct	0.858968885764625
60872	1	stim108_inanimate_clothing_hat_4.png	108	inanimate	clothing	hat	4	0	2	stars	4	correct	0.858968885764625
60922	1	stim067_animate_insect_bug_3.png	67	animate	insect	bug	3	0	2	stars	4	correct	0.858968885764625
60972	1	stim025_animate_bird_duck_1.png	25	animate	bird	duck	1	0	2	stars	4	correct	0.858968885764625
61022	1	stim076_animate_insect_dragonfly_4.png	76	animate	insect	dragonfly	4	0	2	stars	4	correct	0.858968885764625
61072	1	stim144_inanimate_furniture_bed_4.png	144	inanimate	furniture	bed	4	0	2	stars	4	correct	0.858968885764625
61122	1	stim186_inanimate_tools_hammer_2.png	186	inanimate	tools	hammer	2	0	2	stars	4	correct	0.858968885764625
61172	1	stim075_animate_insect_dragonfly_3.png	75	animate	insect	dragonfly	3	0	2	stars	4	correct	0.858968885764625
61222	1	stim073_animate_insect_dragonfly_1.png	73	animate	insect	dragonfly	1	0	2	stars	4	correct	0.858968885764625
61272	1	stim038_animate_bird_penguin_2.png	38	animate	bird	penguin	2	0	2	stars	4	correct	0.858968885764625
61322	1	stim034_animate_bird_peacock_2.png	34	animate	bird	peacock	2	0	2	stars	4	correct	0.858968885764625
61372	1	stim001_animate_aquatic_crab_1.png	1	animate	aquatic	crab	1	0	2	stars	4	correct	0.858968885764625
61422	1	stim197_inanimate_tools_wrench_1.png	197	inanimate	tools	wrench	1	0	2	stars	4	correct	0.858968885764625
61472	1	stim071_animate_insect_butterfly_3.png	71	animate	insect	butterfly	3	0	2	stars	4	correct	0.858968885764625
61522	1	stim146_inanimate_furniture_chair_2.png	146	inanimate	furniture	chair	2	0	2	stars	4	correct	0.858968885764625
61572	1	stim184_inanimate_tools_broom_4.png	184	inanimate	tools	broom	4	0	2	stars	4	correct	0.858968885764625
61622	1	stim181_inanimate_tools_broom_1.png	181	inanimate	tools	broom	1	0	2	stars	4	correct	0.858968885764625
61672	1	stim129_inanimate_fruits_grape_1.png	129	inanimate	fruits	grape	1	0	2	stars	4	correct	0.858968885764625
61722	1	stim162_inanimate_plants_bush_2.png	162	inanimate	plants	bush	2	0	2	stars	4	correct	0.858968885764625
61772	1	stim015_animate_aquatic_shark_3.png	15	animate	aquatic	shark	3	0	2	stars	4	correct	0.858968885764625
61822	1	stim087_animate_mammal_giraffe_3.png	87	animate	mammal	giraffe	3	0	2	stars	4	correct	0.858968885764625
61872	1	stim170_inanimate_plants_sunflower_2.png	170	inanimate	plants	sunflower	2	0	2	stars	4	correct	0.858968885764625
61922	1	stim189_inanimate_tools_pan_1.png	189	inanimate	tools	pan	1	0	2	stars	4	correct	0.858968885764625
61972	1	stim026_animate_bird_duck_2.png	26	animate	bird	duck	2	0	2	stars	4	correct	0.858968885764625
62022	1	stim213_targets_shapes_star_1.png	213	targets	shapes	star	1	1	2	stars	4	correct	0.858968885764625
62072	1	stim084_animate_mammal_cow_4.png	84	animate	mammal	cow	4	0	2	stars	4	correct	0.858968885764625
62122	1	stim166_inanimate_plants_cactus_2.png	166	inanimate	plants	cactus	2	0	2	stars	4	correct	0.858968885764625
62172	1	stim050_animate_human_clown_2.png	50	animate	human	clown	2	0	2	stars	4	correct	0.858968885764625
62222	1	stim105_inanimate_clothing_hat_1.png	105	inanimate	clothing	hat	1	0	2	stars	4	correct	0.858968885764625
62272	1	stim029_animate_bird_parrot_1.png	29	animate	bird	parrot	1	0	2	stars	4	correct	0.858968885764625
62322	1	stim006_animate_aquatic_fish_2.png	6	animate	aquatic	fish	2	0	2	stars	4	correct	0.858968885764625
62372	1	stim094_animate_mammal_monkey_2.png	94	animate	mammal	monkey	2	0	2	stars	4	correct	0.858968885764625
62422	1	stim018_animate_aquatic_shrimp_2.png	18	animate	aquatic	shrimp	2	0	2	stars	4	correct	0.858968885764625
62472	1	stim030_animate_bird_parrot_2.png	30	animate	bird	parrot	2	0	2	stars	4	correct	0.858968885764625
62522	1	stim125_inanimate_fruits_banana_1.png	125	inanimate	fruits	banana	1	0	2	stars	4	correct	0.858968885764625
62572	1	stim141_inanimate_furniture_bed_1.png	141	inanimate	furniture	bed	1	0	2	stars	4	correct	0.858968885764625
62622	1	stim055_animate_human_faces_3.png	55	animate	human	faces	3	0	2	stars	4	correct	0.858968885764625
62672	1	stim016_animate_aquatic_shark_4.png	16	animate	aquatic	shark	4	0	2	stars	4	correct	0.858968885764625
62722	1	stim003_animate_aquatic_crab_3.png	3	animate	aquatic	crab	3	0	2	stars	4	correct	0.858968885764625
62772	1	stim060_animate_human_sports_4.png	60	animate	human	sports	4	0	2	stars	4	correct	0.858968885764625
62822	1	stim059_animate_human_sports_3.png	59	animate	human	sports	3	0	2	stars	4	correct	0.858968885764625
62872	1	stim054_animate_human_faces_2.png	54	animate	human	faces	2	0	2	stars	4	correct	0.858968885764625
62922	1	stim158_inanimate_furniture_table_2.png	158	inanimate	furniture	table	2	0	2	stars	4	correct	0.858968885764625
62972	1	stim165_inanimate_plants_cactus_1.png	165	inanimate	plants	cactus	1	0	2	stars	4	correct	0.858968885764625
63022	1	stim194_inanimate_tools_scissors_2.png	194	inanimate	tools	scissors	2	0	2	stars	4	correct	0.858968885764625
63072	1	stim017_animate_aquatic_shrimp_1.png	17	animate	aquatic	shrimp	1	0	2	stars	4	correct	0.858968885764625
63122	1	stim118_inanimate_clothing_socks_2.png	118	inanimate	clothing	socks	2	0	2	stars	4	correct	0.858968885764625
63172	1	stim111_inanimate_clothing_jeans_3.png	111	inanimate	clothing	jeans	3	0	2	stars	4	correct	0.858968885764625
63222	1	stim010_animate_aquatic_seahorse_2.png	10	animate	aquatic	seahorse	2	0	2	stars	4	correct	0.858968885764625
63272	1	stim053_animate_human_faces_1.png	53	animate	human	faces	1	0	2	stars	4	correct	0.858968885764625
63322	1	stim024_animate_bird_chicken_4.png	24	animate	bird	chicken	4	0	2	stars	4	correct	0.858968885764625
63372	1	stim065_animate_insect_bug_1.png	65	animate	insect	bug	1	0	2	stars	4	correct	0.858968885764625
63422	1	stim188_inanimate_tools_hammer_4.png	188	inanimate	tools	hammer	4	0	2	stars	4	correct	0.858968885764625
63472	1	stim163_inanimate_plants_bush_3.png	163	inanimate	plants	bush	3	0	2	stars	4	correct	0.858968885764625
63522	1	stim138_inanimate_fruits_strawberry_2.png	138	inanimate	fruits	strawberry	2	0	2	stars	4	correct	0.858968885764625
63572	1	stim008_animate_aquatic_fish_4.png	8	animate	aquatic	fish	4	0	2	stars	4	correct	0.858968885764625
63622	1	stim175_inanimate_plants_tree_3.png	175	inanimate	plants	tree	3	0	2	stars	4	correct	0.858968885764625
63672	1	stim019_animate_aquatic_shrimp_3.png	19	animate	aquatic	shrimp	3	0	2	stars	4	correct	0.858968885764625
63722	1	stim072_animate_insect_butterfly_4.png	72	animate	insect	butterfly	4	0	2	stars	4	correct	0.858968885764625
63772	1	stim004_animate_aquatic_crab_4.png	4	animate	aquatic	crab	4	0	2	stars	4	correct	0.858968885764625
63822	1	stim148_inanimate_furniture_chair_4.png	148	inanimate	furniture	chair	4	0	2	stars	4	correct	0.858968885764625
63872	1	stim022_animate_bird_chicken_2.png	22	animate	bird	chicken	2	0	2	stars	4	correct	0.858968885764625
63922	1	stim143_inanimate_furniture_bed_3.png	143	inanimate	furniture	bed	3	0	2	stars	4	correct	0.858968885764625
63972	1	stim007_animate_aquatic_fish_3.png	7	animate	aquatic	fish	3	0	2	stars	4	correct	0.858968885764625
64022	1	stim131_inanimate_fruits_grape_3.png	131	inanimate	fruits	grape	3	0	2	stars	4	correct	0.858968885764625
64072	1	stim145_inanimate_furniture_chair_1.png	145	inanimate	furniture	chair	1	0	2	stars	4	correct	0.858968885764625
64122	1	stim151_inanimate_furniture_closet_3.png	151	inanimate	furniture	closet	3	0	2	stars	4	correct	0.858968885764625
64172	1	stim086_animate_mammal_giraffe_2.png	86	animate	mammal	giraffe	2	0	2	stars	4	correct	0.858968885764625
64222	1	stim192_inanimate_tools_pan_4.png	192	inanimate	tools	pan	4	0	2	stars	4	correct	0.858968885764625
64272	1	stim152_inanimate_furniture_closet_4.png	152	inanimate	furniture	closet	4	0	2	stars	4	correct	0.858968885764625
64322	1	stim109_inanimate_clothing_jeans_1.png	109	inanimate	clothing	jeans	1	0	2	stars	4	correct	0.858968885764625
64372	1	stim102_inanimate_clothing_gloves_2.png	102	inanimate	clothing	gloves	2	0	2	stars	4	correct	0.858968885764625
64422	1	stim176_inanimate_plants_tree_4.png	176	inanimate	plants	tree	4	0	2	stars	4	correct	0.858968885764625
64472	1	stim133_inanimate_fruits_pineapple_1.png	133	inanimate	fruits	pineapple	1	0	2	stars	4	correct	0.858968885764625
64522	1	stim005_animate_aquatic_fish_1.png	5	animate	aquatic	fish	1	0	2	stars	4	correct	0.858968885764625
64572	1	stim031_animate_bird_parrot_3.png	31	animate	bird	parrot	3	0	2	stars	4	correct	0.858968885764625
64622	1	stim043_animate_human_baby_3.png	43	animate	human	baby	3	0	2	stars	4	correct	0.858968885764625
71423	1	stim149_inanimate_furniture_closet_1.png	149	inanimate	furniture	closet	1	0	3	boats	1	incorrect	0.881129218301794
71473	1	stim038_animate_bird_penguin_2.png	38	animate	bird	penguin	2	0	3	boats	1	incorrect	0.881129218301794
71523	1	stim141_inanimate_furniture_bed_1.png	141	inanimate	furniture	bed	1	0	3	boats	1	incorrect	0.881129218301794
71573	1	stim016_animate_aquatic_shark_4.png	16	animate	aquatic	shark	4	0	3	boats	1	incorrect	0.881129218301794
71623	1	stim072_animate_insect_butterfly_4.png	72	animate	insect	butterfly	4	0	3	boats	1	incorrect	0.881129218301794
71673	1	stim040_animate_bird_penguin_4.png	40	animate	bird	penguin	4	0	3	boats	1	incorrect	0.881129218301794
71723	1	stim049_animate_human_clown_1.png	49	animate	human	clown	1	0	3	boats	1	incorrect	0.881129218301794
71773	1	stim112_inanimate_clothing_jeans_4.png	112	inanimate	clothing	jeans	4	0	3	boats	1	incorrect	0.881129218301794
71823	1	stim010_animate_aquatic_seahorse_2.png	10	animate	aquatic	seahorse	2	0	3	boats	1	incorrect	0.881129218301794
71873	1	stim108_inanimate_clothing_hat_4.png	108	inanimate	clothing	hat	4	0	3	boats	1	incorrect	0.881129218301794
71923	1	stim083_animate_mammal_cow_3.png	83	animate	mammal	cow	3	0	3	boats	1	incorrect	0.881129218301794
71973	1	stim194_inanimate_tools_scissors_2.png	194	inanimate	tools	scissors	2	0	3	boats	1	incorrect	0.881129218301794
72023	1	stim096_animate_mammal_monkey_4.png	96	animate	mammal	monkey	4	0	3	boats	1	incorrect	0.881129218301794
72073	1	stim140_inanimate_fruits_strawberry_4.png	140	inanimate	fruits	strawberry	4	0	3	boats	1	incorrect	0.881129218301794
72123	1	stim139_inanimate_fruits_strawberry_3.png	139	inanimate	fruits	strawberry	3	0	3	boats	1	incorrect	0.881129218301794
72173	1	stim026_animate_bird_duck_2.png	26	animate	bird	duck	2	0	3	boats	1	incorrect	0.881129218301794
72223	1	stim134_inanimate_fruits_pineapple_2.png	134	inanimate	fruits	pineapple	2	0	3	boats	1	incorrect	0.881129218301794
72273	1	stim021_animate_bird_chicken_1.png	21	animate	bird	chicken	1	0	3	boats	1	incorrect	0.881129218301794
72323	1	stim009_animate_aquatic_seahorse_1.png	9	animate	aquatic	seahorse	1	0	3	boats	1	incorrect	0.881129218301794
72373	1	stim057_animate_human_sports_1.png	57	animate	human	sports	1	0	3	boats	1	incorrect	0.881129218301794
72423	1	stim138_inanimate_fruits_strawberry_2.png	138	inanimate	fruits	strawberry	2	0	3	boats	1	incorrect	0.881129218301794
72473	1	stim179_inanimate_plants_tulip_3.png	179	inanimate	plants	tulip	3	0	3	boats	1	incorrect	0.881129218301794
72523	1	stim172_inanimate_plants_sunflower_4.png	172	inanimate	plants	sunflower	4	0	3	boats	1	incorrect	0.881129218301794
72573	1	stim191_inanimate_tools_pan_3.png	191	inanimate	tools	pan	3	0	3	boats	1	incorrect	0.881129218301794
72623	1	stim106_inanimate_clothing_hat_2.png	106	inanimate	clothing	hat	2	0	3	boats	1	incorrect	0.881129218301794
72673	1	stim097_animate_mammal_rhino_1.png	97	animate	mammal	rhino	1	0	3	boats	1	incorrect	0.881129218301794
72723	1	stim114_inanimate_clothing_shirt_2.png	114	inanimate	clothing	shirt	2	0	3	boats	1	incorrect	0.881129218301794
72773	1	stim185_inanimate_tools_hammer_1.png	185	inanimate	tools	hammer	1	0	3	boats	1	incorrect	0.881129218301794
72823	1	stim092_animate_mammal_kangaroo_4.png	92	animate	mammal	kangaroo	4	0	3	boats	1	incorrect	0.881129218301794
72873	1	stim061_animate_insect_ant_1.png	61	animate	insect	ant	1	0	3	boats	1	incorrect	0.881129218301794
72923	1	stim173_inanimate_plants_tree_1.png	173	inanimate	plants	tree	1	0	3	boats	1	incorrect	0.881129218301794
72973	1	stim063_animate_insect_ant_3.png	63	animate	insect	ant	3	0	3	boats	1	incorrect	0.881129218301794
73023	1	stim120_inanimate_clothing_socks_4.png	120	inanimate	clothing	socks	4	0	3	boats	1	incorrect	0.881129218301794
73073	1	stim178_inanimate_plants_tulip_2.png	178	inanimate	plants	tulip	2	0	3	boats	1	incorrect	0.881129218301794
73123	1	stim013_animate_aquatic_shark_1.png	13	animate	aquatic	shark	1	0	3	boats	1	incorrect	0.881129218301794
73173	1	stim146_inanimate_furniture_chair_2.png	146	inanimate	furniture	chair	2	0	3	boats	1	incorrect	0.881129218301794
73223	1	stim156_inanimate_furniture_sofa_4.png	156	inanimate	furniture	sofa	4	0	3	boats	1	incorrect	0.881129218301794
73273	1	stim085_animate_mammal_giraffe_1.png	85	animate	mammal	giraffe	1	0	3	boats	1	incorrect	0.881129218301794
73323	1	stim059_animate_human_sports_3.png	59	animate	human	sports	3	0	3	boats	1	incorrect	0.881129218301794
73373	1	stim020_animate_aquatic_shrimp_4.png	20	animate	aquatic	shrimp	4	0	3	boats	1	incorrect	0.881129218301794
73423	1	stim180_inanimate_plants_tulip_4.png	180	inanimate	plants	tulip	4	0	3	boats	1	incorrect	0.881129218301794
73473	1	stim182_inanimate_tools_broom_2.png	182	inanimate	tools	broom	2	0	3	boats	1	incorrect	0.881129218301794
73523	1	stim121_inanimate_fruits_apple_1.png	121	inanimate	fruits	apple	1	0	3	boats	1	incorrect	0.881129218301794
73573	1	stim115_inanimate_clothing_shirt_3.png	115	inanimate	clothing	shirt	3	0	3	boats	1	incorrect	0.881129218301794
73623	1	stim027_animate_bird_duck_3.png	27	animate	bird	duck	3	0	3	boats	1	incorrect	0.881129218301794
73673	1	stim198_inanimate_tools_wrench_2.png	198	inanimate	tools	wrench	2	0	3	boats	1	incorrect	0.881129218301794
73723	1	stim159_inanimate_furniture_table_3.png	159	inanimate	furniture	table	3	0	3	boats	1	incorrect	0.881129218301794
73773	1	stim150_inanimate_furniture_closet_2.png	150	inanimate	furniture	closet	2	0	3	boats	1	incorrect	0.881129218301794
73823	1	stim084_animate_mammal_cow_4.png	84	animate	mammal	cow	4	0	3	boats	1	incorrect	0.881129218301794
73873	1	stim051_animate_human_clown_3.png	51	animate	human	clown	3	0	3	boats	1	incorrect	0.881129218301794
73923	1	stim117_inanimate_clothing_socks_1.png	117	inanimate	clothing	socks	1	0	3	boats	1	incorrect	0.881129218301794
73973	1	stim153_inanimate_furniture_sofa_1.png	153	inanimate	furniture	sofa	1	0	3	boats	1	incorrect	0.881129218301794
74023	1	stim177_inanimate_plants_tulip_1.png	177	inanimate	plants	tulip	1	0	3	boats	1	incorrect	0.881129218301794
74073	1	stim044_animate_human_baby_4.png	44	animate	human	baby	4	0	3	boats	1	incorrect	0.881129218301794
74123	1	stim077_animate_insect_grasshopper_1.png	77	animate	insect	grasshopper	1	0	3	boats	1	incorrect	0.881129218301794
74173	1	stim200_inanimate_tools_wrench_4.png	200	inanimate	tools	wrench	4	0	3	boats	1	incorrect	0.881129218301794
74223	1	stim091_animate_mammal_kangaroo_3.png	91	animate	mammal	kangaroo	3	0	3	boats	1	incorrect	0.881129218301794
74273	1	stim050_animate_human_clown_2.png	50	animate	human	clown	2	0	3	boats	1	incorrect	0.881129218301794
74323	1	stim104_inanimate_clothing_gloves_4.png	104	inanimate	clothing	gloves	4	0	3	boats	1	incorrect	0.881129218301794
74373	1	stim058_animate_human_sports_2.png	58	animate	human	sports	2	0	3	boats	1	incorrect	0.881129218301794
74423	1	stim042_animate_human_baby_2.png	42	animate	human	baby	2	0	3	boats	1	incorrect	0.881129218301794
74473	1	stim196_inanimate_tools_scissors_4.png	196	inanimate	tools	scissors	4	0	3	boats	1	incorrect	0.881129218301794
74523	1	stim025_animate_bird_duck_1.png	25	animate	bird	duck	1	0	3	boats	1	incorrect	0.881129218301794
74573	1	stim102_inanimate_clothing_gloves_2.png	102	inanimate	clothing	gloves	2	0	3	boats	1	incorrect	0.881129218301794
74623	1	stim039_animate_bird_penguin_3.png	39	animate	bird	penguin	3	0	3	boats	1	incorrect	0.881129218301794
74673	1	stim095_animate_mammal_monkey_3.png	95	animate	mammal	monkey	3	0	3	boats	1	incorrect	0.881129218301794
74723	1	stim088_animate_mammal_giraffe_4.png	88	animate	mammal	giraffe	4	0	3	boats	1	incorrect	0.881129218301794
74773	1	stim005_animate_aquatic_fish_1.png	5	animate	aquatic	fish	1	0	3	boats	1	incorrect	0.881129218301794
74823	1	stim031_animate_bird_parrot_3.png	31	animate	bird	parrot	3	0	3	boats	1	incorrect	0.881129218301794
74873	1	stim137_inanimate_fruits_strawberry_1.png	137	inanimate	fruits	strawberry	1	0	3	boats	1	incorrect	0.881129218301794
74923	1	stim193_inanimate_tools_scissors_1.png	193	inanimate	tools	scissors	1	0	3	boats	1	incorrect	0.881129218301794
74973	1	stim168_inanimate_plants_cactus_4.png	168	inanimate	plants	cactus	4	0	3	boats	1	incorrect	0.881129218301794
75023	1	stim107_inanimate_clothing_hat_3.png	107	inanimate	clothing	hat	3	0	3	boats	1	incorrect	0.881129218301794
75073	1	stim032_animate_bird_parrot_4.png	32	animate	bird	parrot	4	0	3	boats	1	incorrect	0.881129218301794
75123	1	stim019_animate_aquatic_shrimp_3.png	19	animate	aquatic	shrimp	3	0	3	boats	1	incorrect	0.881129218301794
75173	1	stim197_inanimate_tools_wrench_1.png	197	inanimate	tools	wrench	1	0	3	boats	1	incorrect	0.881129218301794
75223	1	stim082_animate_mammal_cow_2.png	82	animate	mammal	cow	2	0	3	boats	1	incorrect	0.881129218301794
75273	1	stim208_targets_object_boats_4.png	208	targets	object	boats	4	1	3	boats	1	incorrect	0.881129218301794
75323	1	stim055_animate_human_faces_3.png	55	animate	human	faces	3	0	3	boats	1	incorrect	0.881129218301794
75373	1	stim133_inanimate_fruits_pineapple_1.png	133	inanimate	fruits	pineapple	1	0	3	boats	1	incorrect	0.881129218301794
75423	1	stim127_inanimate_fruits_banana_3.png	127	inanimate	fruits	banana	3	0	3	boats	1	incorrect	0.881129218301794
75473	1	stim078_animate_insect_grasshopper_2.png	78	animate	insect	grasshopper	2	0	3	boats	1	incorrect	0.881129218301794
75523	1	stim093_animate_mammal_monkey_1.png	93	animate	mammal	monkey	1	0	3	boats	1	incorrect	0.881129218301794
75573	1	stim004_animate_aquatic_crab_4.png	4	animate	aquatic	crab	4	0	3	boats	1	incorrect	0.881129218301794
75623	1	stim110_inanimate_clothing_jeans_2.png	110	inanimate	clothing	jeans	2	0	3	boats	1	incorrect	0.881129218301794
75673	1	stim034_animate_bird_peacock_2.png	34	animate	bird	peacock	2	0	3	boats	1	incorrect	0.881129218301794
75723	1	stim017_animate_aquatic_shrimp_1.png	17	animate	aquatic	shrimp	1	0	3	boats	1	incorrect	0.881129218301794
75773	1	stim001_animate_aquatic_crab_1.png	1	animate	aquatic	crab	1	0	3	boats	1	incorrect	0.881129218301794
75823	1	stim047_animate_human_child_3.png	47	animate	human	child	3	0	3	boats	1	incorrect	0.881129218301794
75873	1	stim188_inanimate_tools_hammer_4.png	188	inanimate	tools	hammer	4	0	3	boats	1	incorrect	0.881129218301794
75923	1	stim030_animate_bird_parrot_2.png	30	animate	bird	parrot	2	0	3	boats	1	incorrect	0.881129218301794
75973	1	stim169_inanimate_plants_sunflower_1.png	169	inanimate	plants	sunflower	1	0	3	boats	1	incorrect	0.881129218301794
76023	1	stim167_inanimate_plants_cactus_3.png	167	inanimate	plants	cactus	3	0	3	boats	1	incorrect	0.881129218301794
76073	1	stim080_animate_insect_grasshopper_4.png	80	animate	insect	grasshopper	4	0	3	boats	1	incorrect	0.881129218301794
76123	1	stim071_animate_insect_butterfly_3.png	71	animate	insect	butterfly	3	0	3	boats	1	incorrect	0.881129218301794
76173	1	stim012_animate_aquatic_seahorse_4.png	12	animate	aquatic	seahorse	4	0	3	boats	1	incorrect	0.881129218301794
76223	1	stim064_animate_insect_ant_4.png	64	animate	insect	ant	4	0	3	boats	1	incorrect	0.881129218301794
76273	1	stim190_inanimate_tools_pan_2.png	190	inanimate	tools	pan	2	0	3	boats	1	incorrect	0.881129218301794
76323	1	stim053_animate_human_faces_1.png	53	animate	human	faces	1	0	3	boats	1	incorrect	0.881129218301794
76373	1	stim011_animate_aquatic_seahorse_3.png	11	animate	aquatic	seahorse	3	0	3	boats	1	incorrect	0.881129218301794
76423	1	stim014_animate_aquatic_shark_2.png	14	animate	aquatic	shark	2	0	3	boats	1	incorrect	0.881129218301794
76473	1	stim073_animate_insect_dragonfly_1.png	73	animate	insect	dragonfly	1	0	3	boats	1	incorrect	0.881129218301794
76523	1	stim132_inanimate_fruits_grape_4.png	132	inanimate	fruits	grape	4	0	3	boats	1	incorrect	0.881129218301794
76573	1	stim118_inanimate_clothing_socks_2.png	118	inanimate	clothing	socks	2	0	3	boats	1	incorrect	0.881129218301794
76623	1	stim175_inanimate_plants_tree_3.png	175	inanimate	plants	tree	3	0	3	boats	1	incorrect	0.881129218301794
76673	1	stim062_animate_insect_ant_2.png	62	animate	insect	ant	2	0	3	boats	1	incorrect	0.881129218301794
76723	1	stim018_animate_aquatic_shrimp_2.png	18	animate	aquatic	shrimp	2	0	3	boats	1	incorrect	0.881129218301794
76773	1	stim003_animate_aquatic_crab_3.png	3	animate	aquatic	crab	3	0	3	boats	1	incorrect	0.881129218301794
76823	1	stim183_inanimate_tools_broom_3.png	183	inanimate	tools	broom	3	0	3	boats	1	incorrect	0.881129218301794
76873	1	stim028_animate_bird_duck_4.png	28	animate	bird	duck	4	0	3	boats	1	incorrect	0.881129218301794
76923	1	stim076_animate_insect_dragonfly_4.png	76	animate	insect	dragonfly	4	0	3	boats	1	incorrect	0.881129218301794
76973	1	stim015_animate_aquatic_shark_3.png	15	animate	aquatic	shark	3	0	3	boats	1	incorrect	0.881129218301794
77023	1	stim029_animate_bird_parrot_1.png	29	animate	bird	parrot	1	0	3	boats	1	incorrect	0.881129218301794
77073	1	stim163_inanimate_plants_bush_3.png	163	inanimate	plants	bush	3	0	3	boats	1	incorrect	0.881129218301794
77123	1	stim119_inanimate_clothing_socks_3.png	119	inanimate	clothing	socks	3	0	3	boats	1	incorrect	0.881129218301794
77173	1	stim054_animate_human_faces_2.png	54	animate	human	faces	2	0	3	boats	1	incorrect	0.881129218301794
77223	1	stim079_animate_insect_grasshopper_3.png	79	animate	insect	grasshopper	3	0	3	boats	1	incorrect	0.881129218301794
77273	1	stim048_animate_human_child_4.png	48	animate	human	child	4	0	3	boats	1	incorrect	0.881129218301794
77323	1	stim123_inanimate_fruits_apple_3.png	123	inanimate	fruits	apple	3	0	3	boats	1	incorrect	0.881129218301794
77373	1	stim041_animate_human_baby_1.png	41	animate	human	baby	1	0	3	boats	1	incorrect	0.881129218301794
77423	1	stim195_inanimate_tools_scissors_3.png	195	inanimate	tools	scissors	3	0	3	boats	1	incorrect	0.881129218301794
77473	1	stim046_animate_human_child_2.png	46	animate	human	child	2	0	3	boats	1	incorrect	0.881129218301794
77523	1	stim184_inanimate_tools_broom_4.png	184	inanimate	tools	broom	4	0	3	boats	1	incorrect	0.881129218301794
77573	1	stim136_inanimate_fruits_pineapple_4.png	136	inanimate	fruits	pineapple	4	0	3	boats	1	incorrect	0.881129218301794
77623	1	stim056_animate_human_faces_4.png	56	animate	human	faces	4	0	3	boats	1	incorrect	0.881129218301794
77673	1	stim125_inanimate_fruits_banana_1.png	125	inanimate	fruits	banana	1	0	3	boats	1	incorrect	0.881129218301794
77723	1	stim007_animate_aquatic_fish_3.png	7	animate	aquatic	fish	3	0	3	boats	1	incorrect	0.881129218301794
77773	1	stim207_targets_object_boats_3.png	207	targets	object	boats	3	1	3	boats	1	incorrect	0.881129218301794
77823	1	stim155_inanimate_furniture_sofa_3.png	155	inanimate	furniture	sofa	3	0	3	boats	1	incorrect	0.881129218301794
77873	1	stim069_animate_insect_butterfly_1.png	69	animate	insect	butterfly	1	0	3	boats	1	incorrect	0.881129218301794
77923	1	stim189_inanimate_tools_pan_1.png	189	inanimate	tools	pan	1	0	3	boats	1	incorrect	0.881129218301794
77973	1	stim105_inanimate_clothing_hat_1.png	105	inanimate	clothing	hat	1	0	3	boats	1	incorrect	0.881129218301794
78023	1	stim100_animate_mammal_rhino_4.png	100	animate	mammal	rhino	4	0	3	boats	1	incorrect	0.881129218301794
78073	1	stim162_inanimate_plants_bush_2.png	162	inanimate	plants	bush	2	0	3	boats	1	incorrect	0.881129218301794
78123	1	stim103_inanimate_clothing_gloves_3.png	103	inanimate	clothing	gloves	3	0	3	boats	1	incorrect	0.881129218301794
78173	1	stim008_animate_aquatic_fish_4.png	8	animate	aquatic	fish	4	0	3	boats	1	incorrect	0.881129218301794
78223	1	stim157_inanimate_furniture_table_1.png	157	inanimate	furniture	table	1	0	3	boats	1	incorrect	0.881129218301794
78273	1	stim109_inanimate_clothing_jeans_1.png	109	inanimate	clothing	jeans	1	0	3	boats	1	incorrect	0.881129218301794
78323	1	stim124_inanimate_fruits_apple_4.png	124	inanimate	fruits	apple	4	0	3	boats	1	incorrect	0.881129218301794
78373	1	stim045_animate_human_child_1.png	45	animate	human	child	1	0	3	boats	1	incorrect	0.881129218301794
78423	1	stim033_animate_bird_peacock_1.png	33	animate	bird	peacock	1	0	3	boats	1	incorrect	0.881129218301794
78473	1	stim122_inanimate_fruits_apple_2.png	122	inanimate	fruits	apple	2	0	3	boats	1	incorrect	0.881129218301794
78523	1	stim129_inanimate_fruits_grape_1.png	129	inanimate	fruits	grape	1	0	3	boats	1	incorrect	0.881129218301794
78573	1	stim171_inanimate_plants_sunflower_3.png	171	inanimate	plants	sunflower	3	0	3	boats	1	incorrect	0.881129218301794
78623	1	stim145_inanimate_furniture_chair_1.png	145	inanimate	furniture	chair	1	0	3	boats	1	incorrect	0.881129218301794
78673	1	stim067_animate_insect_bug_3.png	67	animate	insect	bug	3	0	3	boats	1	incorrect	0.881129218301794
78723	1	stim170_inanimate_plants_sunflower_2.png	170	inanimate	plants	sunflower	2	0	3	boats	1	incorrect	0.881129218301794
78773	1	stim060_animate_human_sports_4.png	60	animate	human	sports	4	0	3	boats	1	incorrect	0.881129218301794
78823	1	stim024_animate_bird_chicken_4.png	24	animate	bird	chicken	4	0	3	boats	1	incorrect	0.881129218301794
78873	1	stim161_inanimate_plants_bush_1.png	161	inanimate	plants	bush	1	0	3	boats	1	incorrect	0.881129218301794
78923	1	stim181_inanimate_tools_broom_1.png	181	inanimate	tools	broom	1	0	3	boats	1	incorrect	0.881129218301794
78973	1	stim090_animate_mammal_kangaroo_2.png	90	animate	mammal	kangaroo	2	0	3	boats	1	incorrect	0.881129218301794
79023	1	stim070_animate_insect_butterfly_2.png	70	animate	insect	butterfly	2	0	3	boats	1	incorrect	0.881129218301794
79073	1	stim101_inanimate_clothing_gloves_1.png	101	inanimate	clothing	gloves	1	0	3	boats	1	incorrect	0.881129218301794
79123	1	stim192_inanimate_tools_pan_4.png	192	inanimate	tools	pan	4	0	3	boats	1	incorrect	0.881129218301794
79173	1	stim160_inanimate_furniture_table_4.png	160	inanimate	furniture	table	4	0	3	boats	1	incorrect	0.881129218301794
79223	1	stim199_inanimate_tools_wrench_3.png	199	inanimate	tools	wrench	3	0	3	boats	1	incorrect	0.881129218301794
79273	1	stim043_animate_human_baby_3.png	43	animate	human	baby	3	0	3	boats	1	incorrect	0.881129218301794
79323	1	stim151_inanimate_furniture_closet_3.png	151	inanimate	furniture	closet	3	0	3	boats	1	incorrect	0.881129218301794
79373	1	stim144_inanimate_furniture_bed_4.png	144	inanimate	furniture	bed	4	0	3	boats	1	incorrect	0.881129218301794
79423	1	stim126_inanimate_fruits_banana_2.png	126	inanimate	fruits	banana	2	0	3	boats	1	incorrect	0.881129218301794
79473	1	stim089_animate_mammal_kangaroo_1.png	89	animate	mammal	kangaroo	1	0	3	boats	1	incorrect	0.881129218301794
79523	1	stim081_animate_mammal_cow_1.png	81	animate	mammal	cow	1	0	3	boats	1	incorrect	0.881129218301794
79573	1	stim116_inanimate_clothing_shirt_4.png	116	inanimate	clothing	shirt	4	0	3	boats	1	incorrect	0.881129218301794
79623	1	stim066_animate_insect_bug_2.png	66	animate	insect	bug	2	0	3	boats	1	incorrect	0.881129218301794
79673	1	stim165_inanimate_plants_cactus_1.png	165	inanimate	plants	cactus	1	0	3	boats	1	incorrect	0.881129218301794
79723	1	stim002_animate_aquatic_crab_2.png	2	animate	aquatic	crab	2	0	3	boats	1	incorrect	0.881129218301794
79773	1	stim142_inanimate_furniture_bed_2.png	142	inanimate	furniture	bed	2	0	3	boats	1	incorrect	0.881129218301794
79823	1	stim174_inanimate_plants_tree_2.png	174	inanimate	plants	tree	2	0	3	boats	1	incorrect	0.881129218301794
79873	1	stim128_inanimate_fruits_banana_4.png	128	inanimate	fruits	banana	4	0	3	boats	1	incorrect	0.881129218301794
79923	1	stim023_animate_bird_chicken_3.png	23	animate	bird	chicken	3	0	3	boats	1	incorrect	0.881129218301794
79973	1	stim166_inanimate_plants_cactus_2.png	166	inanimate	plants	cactus	2	0	3	boats	1	incorrect	0.881129218301794
80023	1	stim022_animate_bird_chicken_2.png	22	animate	bird	chicken	2	0	3	boats	1	incorrect	0.881129218301794
80073	1	stim086_animate_mammal_giraffe_2.png	86	animate	mammal	giraffe	2	0	3	boats	1	incorrect	0.881129218301794
80123	1	stim035_animate_bird_peacock_3.png	35	animate	bird	peacock	3	0	3	boats	1	incorrect	0.881129218301794
80173	1	stim006_animate_aquatic_fish_2.png	6	animate	aquatic	fish	2	0	3	boats	1	incorrect	0.881129218301794
80223	1	stim135_inanimate_fruits_pineapple_3.png	135	inanimate	fruits	pineapple	3	0	3	boats	1	incorrect	0.881129218301794
80273	1	stim152_inanimate_furniture_closet_4.png	152	inanimate	furniture	closet	4	0	3	boats	1	incorrect	0.881129218301794
80323	1	stim111_inanimate_clothing_jeans_3.png	111	inanimate	clothing	jeans	3	0	3	boats	1	incorrect	0.881129218301794
80373	1	stim187_inanimate_tools_hammer_3.png	187	inanimate	tools	hammer	3	0	3	boats	1	incorrect	0.881129218301794
80423	1	stim065_animate_insect_bug_1.png	65	animate	insect	bug	1	0	3	boats	1	incorrect	0.881129218301794
80473	1	stim068_animate_insect_bug_4.png	68	animate	insect	bug	4	0	3	boats	1	incorrect	0.881129218301794
80523	1	stim099_animate_mammal_rhino_3.png	99	animate	mammal	rhino	3	0	3	boats	1	incorrect	0.881129218301794
80573	1	stim158_inanimate_furniture_table_2.png	158	inanimate	furniture	table	2	0	3	boats	1	incorrect	0.881129218301794
80623	1	stim036_animate_bird_peacock_4.png	36	animate	bird	peacock	4	0	3	boats	1	incorrect	0.881129218301794
80673	1	stim113_inanimate_clothing_shirt_1.png	113	inanimate	clothing	shirt	1	0	3	boats	1	incorrect	0.881129218301794
80723	1	stim098_animate_mammal_rhino_2.png	98	animate	mammal	rhino	2	0	3	boats	1	incorrect	0.881129218301794
80773	1	stim074_animate_insect_dragonfly_2.png	74	animate	insect	dragonfly	2	0	3	boats	1	incorrect	0.881129218301794
80823	1	stim143_inanimate_furniture_bed_3.png	143	inanimate	furniture	bed	3	0	3	boats	1	incorrect	0.881129218301794
80873	1	stim148_inanimate_furniture_chair_4.png	148	inanimate	furniture	chair	4	0	3	boats	1	incorrect	0.881129218301794
80923	1	stim075_animate_insect_dragonfly_3.png	75	animate	insect	dragonfly	3	0	3	boats	1	incorrect	0.881129218301794
80973	1	stim087_animate_mammal_giraffe_3.png	87	animate	mammal	giraffe	3	0	3	boats	1	incorrect	0.881129218301794
81023	1	stim131_inanimate_fruits_grape_3.png	131	inanimate	fruits	grape	3	0	3	boats	1	incorrect	0.881129218301794
81073	1	stim094_animate_mammal_monkey_2.png	94	animate	mammal	monkey	2	0	3	boats	1	incorrect	0.881129218301794
81123	1	stim154_inanimate_furniture_sofa_2.png	154	inanimate	furniture	sofa	2	0	3	boats	1	incorrect	0.881129218301794
81173	1	stim037_animate_bird_penguin_1.png	37	animate	bird	penguin	1	0	3	boats	1	incorrect	0.881129218301794
81223	1	stim130_inanimate_fruits_grape_2.png	130	inanimate	fruits	grape	2	0	3	boats	1	incorrect	0.881129218301794
81273	1	stim052_animate_human_clown_4.png	52	animate	human	clown	4	0	3	boats	1	incorrect	0.881129218301794
81323	1	stim176_inanimate_plants_tree_4.png	176	inanimate	plants	tree	4	0	3	boats	1	incorrect	0.881129218301794
81373	1	stim147_inanimate_furniture_chair_3.png	147	inanimate	furniture	chair	3	0	3	boats	1	incorrect	0.881129218301794
81423	1	stim164_inanimate_plants_bush_4.png	164	inanimate	plants	bush	4	0	3	boats	1	incorrect	0.881129218301794
81473	1	stim186_inanimate_tools_hammer_2.png	186	inanimate	tools	hammer	2	0	3	boats	1	incorrect	0.881129218301794
87690	1	stim021_animate_bird_chicken_1.png	21	animate	bird	chicken	1	0	4	boats	2	correct	0.910143279525073
87740	1	stim015_animate_aquatic_shark_3.png	15	animate	aquatic	shark	3	0	4	boats	2	correct	0.910143279525073
87790	1	stim156_inanimate_furniture_sofa_4.png	156	inanimate	furniture	sofa	4	0	4	boats	2	correct	0.910143279525073
87840	1	stim027_animate_bird_duck_3.png	27	animate	bird	duck	3	0	4	boats	2	correct	0.910143279525073
87890	1	stim074_animate_insect_dragonfly_2.png	74	animate	insect	dragonfly	2	0	4	boats	2	correct	0.910143279525073
87940	1	stim057_animate_human_sports_1.png	57	animate	human	sports	1	0	4	boats	2	correct	0.910143279525073
87990	1	stim059_animate_human_sports_3.png	59	animate	human	sports	3	0	4	boats	2	correct	0.910143279525073
88040	1	stim065_animate_insect_bug_1.png	65	animate	insect	bug	1	0	4	boats	2	correct	0.910143279525073
88090	1	stim010_animate_aquatic_seahorse_2.png	10	animate	aquatic	seahorse	2	0	4	boats	2	correct	0.910143279525073
88140	1	stim003_animate_aquatic_crab_3.png	3	animate	aquatic	crab	3	0	4	boats	2	correct	0.910143279525073
88190	1	stim192_inanimate_tools_pan_4.png	192	inanimate	tools	pan	4	0	4	boats	2	correct	0.910143279525073
88240	1	stim091_animate_mammal_kangaroo_3.png	91	animate	mammal	kangaroo	3	0	4	boats	2	correct	0.910143279525073
88290	1	stim151_inanimate_furniture_closet_3.png	151	inanimate	furniture	closet	3	0	4	boats	2	correct	0.910143279525073
88340	1	stim105_inanimate_clothing_hat_1.png	105	inanimate	clothing	hat	1	0	4	boats	2	correct	0.910143279525073
88390	1	stim148_inanimate_furniture_chair_4.png	148	inanimate	furniture	chair	4	0	4	boats	2	correct	0.910143279525073
88440	1	stim062_animate_insect_ant_2.png	62	animate	insect	ant	2	0	4	boats	2	correct	0.910143279525073
88490	1	stim189_inanimate_tools_pan_1.png	189	inanimate	tools	pan	1	0	4	boats	2	correct	0.910143279525073
88540	1	stim152_inanimate_furniture_closet_4.png	152	inanimate	furniture	closet	4	0	4	boats	2	correct	0.910143279525073
88590	1	stim179_inanimate_plants_tulip_3.png	179	inanimate	plants	tulip	3	0	4	boats	2	correct	0.910143279525073
88640	1	stim113_inanimate_clothing_shirt_1.png	113	inanimate	clothing	shirt	1	0	4	boats	2	correct	0.910143279525073
88690	1	stim082_animate_mammal_cow_2.png	82	animate	mammal	cow	2	0	4	boats	2	correct	0.910143279525073
88740	1	stim002_animate_aquatic_crab_2.png	2	animate	aquatic	crab	2	0	4	boats	2	correct	0.910143279525073
88790	1	stim118_inanimate_clothing_socks_2.png	118	inanimate	clothing	socks	2	0	4	boats	2	correct	0.910143279525073
88840	1	stim088_animate_mammal_giraffe_4.png	88	animate	mammal	giraffe	4	0	4	boats	2	correct	0.910143279525073
88890	1	stim195_inanimate_tools_scissors_3.png	195	inanimate	tools	scissors	3	0	4	boats	2	correct	0.910143279525073
88940	1	stim163_inanimate_plants_bush_3.png	163	inanimate	plants	bush	3	0	4	boats	2	correct	0.910143279525073
88990	1	stim069_animate_insect_butterfly_1.png	69	animate	insect	butterfly	1	0	4	boats	2	correct	0.910143279525073
89040	1	stim041_animate_human_baby_1.png	41	animate	human	baby	1	0	4	boats	2	correct	0.910143279525073
89090	1	stim186_inanimate_tools_hammer_2.png	186	inanimate	tools	hammer	2	0	4	boats	2	correct	0.910143279525073
89140	1	stim138_inanimate_fruits_strawberry_2.png	138	inanimate	fruits	strawberry	2	0	4	boats	2	correct	0.910143279525073
89190	1	stim153_inanimate_furniture_sofa_1.png	153	inanimate	furniture	sofa	1	0	4	boats	2	correct	0.910143279525073
89240	1	stim160_inanimate_furniture_table_4.png	160	inanimate	furniture	table	4	0	4	boats	2	correct	0.910143279525073
89290	1	stim188_inanimate_tools_hammer_4.png	188	inanimate	tools	hammer	4	0	4	boats	2	correct	0.910143279525073
89340	1	stim135_inanimate_fruits_pineapple_3.png	135	inanimate	fruits	pineapple	3	0	4	boats	2	correct	0.910143279525073
89390	1	stim045_animate_human_child_1.png	45	animate	human	child	1	0	4	boats	2	correct	0.910143279525073
89440	1	stim063_animate_insect_ant_3.png	63	animate	insect	ant	3	0	4	boats	2	correct	0.910143279525073
89490	1	stim006_animate_aquatic_fish_2.png	6	animate	aquatic	fish	2	0	4	boats	2	correct	0.910143279525073
89540	1	stim119_inanimate_clothing_socks_3.png	119	inanimate	clothing	socks	3	0	4	boats	2	correct	0.910143279525073
89590	1	stim066_animate_insect_bug_2.png	66	animate	insect	bug	2	0	4	boats	2	correct	0.910143279525073
89640	1	stim014_animate_aquatic_shark_2.png	14	animate	aquatic	shark	2	0	4	boats	2	correct	0.910143279525073
89690	1	stim190_inanimate_tools_pan_2.png	190	inanimate	tools	pan	2	0	4	boats	2	correct	0.910143279525073
89740	1	stim184_inanimate_tools_broom_4.png	184	inanimate	tools	broom	4	0	4	boats	2	correct	0.910143279525073
89790	1	stim068_animate_insect_bug_4.png	68	animate	insect	bug	4	0	4	boats	2	correct	0.910143279525073
89840	1	stim028_animate_bird_duck_4.png	28	animate	bird	duck	4	0	4	boats	2	correct	0.910143279525073
89890	1	stim193_inanimate_tools_scissors_1.png	193	inanimate	tools	scissors	1	0	4	boats	2	correct	0.910143279525073
89940	1	stim004_animate_aquatic_crab_4.png	4	animate	aquatic	crab	4	0	4	boats	2	correct	0.910143279525073
89990	1	stim126_inanimate_fruits_banana_2.png	126	inanimate	fruits	banana	2	0	4	boats	2	correct	0.910143279525073
90040	1	stim116_inanimate_clothing_shirt_4.png	116	inanimate	clothing	shirt	4	0	4	boats	2	correct	0.910143279525073
90090	1	stim093_animate_mammal_monkey_1.png	93	animate	mammal	monkey	1	0	4	boats	2	correct	0.910143279525073
90140	1	stim185_inanimate_tools_hammer_1.png	185	inanimate	tools	hammer	1	0	4	boats	2	correct	0.910143279525073
90190	1	stim172_inanimate_plants_sunflower_4.png	172	inanimate	plants	sunflower	4	0	4	boats	2	correct	0.910143279525073
90240	1	stim096_animate_mammal_monkey_4.png	96	animate	mammal	monkey	4	0	4	boats	2	correct	0.910143279525073
90290	1	stim139_inanimate_fruits_strawberry_3.png	139	inanimate	fruits	strawberry	3	0	4	boats	2	correct	0.910143279525073
90340	1	stim058_animate_human_sports_2.png	58	animate	human	sports	2	0	4	boats	2	correct	0.910143279525073
90390	1	stim103_inanimate_clothing_gloves_3.png	103	inanimate	clothing	gloves	3	0	4	boats	2	correct	0.910143279525073
90440	1	stim121_inanimate_fruits_apple_1.png	121	inanimate	fruits	apple	1	0	4	boats	2	correct	0.910143279525073
90490	1	stim031_animate_bird_parrot_3.png	31	animate	bird	parrot	3	0	4	boats	2	correct	0.910143279525073
90540	1	stim136_inanimate_fruits_pineapple_4.png	136	inanimate	fruits	pineapple	4	0	4	boats	2	correct	0.910143279525073
90590	1	stim125_inanimate_fruits_banana_1.png	125	inanimate	fruits	banana	1	0	4	boats	2	correct	0.910143279525073
90640	1	stim134_inanimate_fruits_pineapple_2.png	134	inanimate	fruits	pineapple	2	0	4	boats	2	correct	0.910143279525073
90690	1	stim155_inanimate_furniture_sofa_3.png	155	inanimate	furniture	sofa	3	0	4	boats	2	correct	0.910143279525073
90740	1	stim040_animate_bird_penguin_4.png	40	animate	bird	penguin	4	0	4	boats	2	correct	0.910143279525073
90790	1	stim142_inanimate_furniture_bed_2.png	142	inanimate	furniture	bed	2	0	4	boats	2	correct	0.910143279525073
90840	1	stim181_inanimate_tools_broom_1.png	181	inanimate	tools	broom	1	0	4	boats	2	correct	0.910143279525073
90890	1	stim161_inanimate_plants_bush_1.png	161	inanimate	plants	bush	1	0	4	boats	2	correct	0.910143279525073
90940	1	stim203_targets_object_boats_3.png	203	targets	object	boats	3	1	4	boats	2	correct	0.910143279525073
90990	1	stim127_inanimate_fruits_banana_3.png	127	inanimate	fruits	banana	3	0	4	boats	2	correct	0.910143279525073
91040	1	stim012_animate_aquatic_seahorse_4.png	12	animate	aquatic	seahorse	4	0	4	boats	2	correct	0.910143279525073
91090	1	stim200_inanimate_tools_wrench_4.png	200	inanimate	tools	wrench	4	0	4	boats	2	correct	0.910143279525073
91140	1	stim039_animate_bird_penguin_3.png	39	animate	bird	penguin	3	0	4	boats	2	correct	0.910143279525073
91190	1	stim030_animate_bird_parrot_2.png	30	animate	bird	parrot	2	0	4	boats	2	correct	0.910143279525073
91240	1	stim132_inanimate_fruits_grape_4.png	132	inanimate	fruits	grape	4	0	4	boats	2	correct	0.910143279525073
91290	1	stim097_animate_mammal_rhino_1.png	97	animate	mammal	rhino	1	0	4	boats	2	correct	0.910143279525073
91340	1	stim086_animate_mammal_giraffe_2.png	86	animate	mammal	giraffe	2	0	4	boats	2	correct	0.910143279525073
91390	1	stim079_animate_insect_grasshopper_3.png	79	animate	insect	grasshopper	3	0	4	boats	2	correct	0.910143279525073
91440	1	stim147_inanimate_furniture_chair_3.png	147	inanimate	furniture	chair	3	0	4	boats	2	correct	0.910143279525073
91490	1	stim154_inanimate_furniture_sofa_2.png	154	inanimate	furniture	sofa	2	0	4	boats	2	correct	0.910143279525073
91540	1	stim008_animate_aquatic_fish_4.png	8	animate	aquatic	fish	4	0	4	boats	2	correct	0.910143279525073
91590	1	stim046_animate_human_child_2.png	46	animate	human	child	2	0	4	boats	2	correct	0.910143279525073
91640	1	stim035_animate_bird_peacock_3.png	35	animate	bird	peacock	3	0	4	boats	2	correct	0.910143279525073
91690	1	stim102_inanimate_clothing_gloves_2.png	102	inanimate	clothing	gloves	2	0	4	boats	2	correct	0.910143279525073
91740	1	stim141_inanimate_furniture_bed_1.png	141	inanimate	furniture	bed	1	0	4	boats	2	correct	0.910143279525073
91790	1	stim043_animate_human_baby_3.png	43	animate	human	baby	3	0	4	boats	2	correct	0.910143279525073
91840	1	stim076_animate_insect_dragonfly_4.png	76	animate	insect	dragonfly	4	0	4	boats	2	correct	0.910143279525073
91890	1	stim173_inanimate_plants_tree_1.png	173	inanimate	plants	tree	1	0	4	boats	2	correct	0.910143279525073
91940	1	stim033_animate_bird_peacock_1.png	33	animate	bird	peacock	1	0	4	boats	2	correct	0.910143279525073
91990	1	stim019_animate_aquatic_shrimp_3.png	19	animate	aquatic	shrimp	3	0	4	boats	2	correct	0.910143279525073
92040	1	stim026_animate_bird_duck_2.png	26	animate	bird	duck	2	0	4	boats	2	correct	0.910143279525073
92090	1	stim131_inanimate_fruits_grape_3.png	131	inanimate	fruits	grape	3	0	4	boats	2	correct	0.910143279525073
92140	1	stim024_animate_bird_chicken_4.png	24	animate	bird	chicken	4	0	4	boats	2	correct	0.910143279525073
92190	1	stim108_inanimate_clothing_hat_4.png	108	inanimate	clothing	hat	4	0	4	boats	2	correct	0.910143279525073
92240	1	stim115_inanimate_clothing_shirt_3.png	115	inanimate	clothing	shirt	3	0	4	boats	2	correct	0.910143279525073
92290	1	stim182_inanimate_tools_broom_2.png	182	inanimate	tools	broom	2	0	4	boats	2	correct	0.910143279525073
92340	1	stim180_inanimate_plants_tulip_4.png	180	inanimate	plants	tulip	4	0	4	boats	2	correct	0.910143279525073
92390	1	stim025_animate_bird_duck_1.png	25	animate	bird	duck	1	0	4	boats	2	correct	0.910143279525073
92440	1	stim018_animate_aquatic_shrimp_2.png	18	animate	aquatic	shrimp	2	0	4	boats	2	correct	0.910143279525073
92490	1	stim044_animate_human_baby_4.png	44	animate	human	baby	4	0	4	boats	2	correct	0.910143279525073
92540	1	stim073_animate_insect_dragonfly_1.png	73	animate	insect	dragonfly	1	0	4	boats	2	correct	0.910143279525073
92590	1	stim001_animate_aquatic_crab_1.png	1	animate	aquatic	crab	1	0	4	boats	2	correct	0.910143279525073
92640	1	stim037_animate_bird_penguin_1.png	37	animate	bird	penguin	1	0	4	boats	2	correct	0.910143279525073
92690	1	stim036_animate_bird_peacock_4.png	36	animate	bird	peacock	4	0	4	boats	2	correct	0.910143279525073
92740	1	stim005_animate_aquatic_fish_1.png	5	animate	aquatic	fish	1	0	4	boats	2	correct	0.910143279525073
92790	1	stim168_inanimate_plants_cactus_4.png	168	inanimate	plants	cactus	4	0	4	boats	2	correct	0.910143279525073
92840	1	stim047_animate_human_child_3.png	47	animate	human	child	3	0	4	boats	2	correct	0.910143279525073
92890	1	stim095_animate_mammal_monkey_3.png	95	animate	mammal	monkey	3	0	4	boats	2	correct	0.910143279525073
92940	1	stim178_inanimate_plants_tulip_2.png	178	inanimate	plants	tulip	2	0	4	boats	2	correct	0.910143279525073
92990	1	stim089_animate_mammal_kangaroo_1.png	89	animate	mammal	kangaroo	1	0	4	boats	2	correct	0.910143279525073
93040	1	stim022_animate_bird_chicken_2.png	22	animate	bird	chicken	2	0	4	boats	2	correct	0.910143279525073
93090	1	stim145_inanimate_furniture_chair_1.png	145	inanimate	furniture	chair	1	0	4	boats	2	correct	0.910143279525073
93140	1	stim072_animate_insect_butterfly_4.png	72	animate	insect	butterfly	4	0	4	boats	2	correct	0.910143279525073
93190	1	stim099_animate_mammal_rhino_3.png	99	animate	mammal	rhino	3	0	4	boats	2	correct	0.910143279525073
93240	1	stim080_animate_insect_grasshopper_4.png	80	animate	insect	grasshopper	4	0	4	boats	2	correct	0.910143279525073
93290	1	stim122_inanimate_fruits_apple_2.png	122	inanimate	fruits	apple	2	0	4	boats	2	correct	0.910143279525073
93340	1	stim104_inanimate_clothing_gloves_4.png	104	inanimate	clothing	gloves	4	0	4	boats	2	correct	0.910143279525073
93390	1	stim071_animate_insect_butterfly_3.png	71	animate	insect	butterfly	3	0	4	boats	2	correct	0.910143279525073
93440	1	stim017_animate_aquatic_shrimp_1.png	17	animate	aquatic	shrimp	1	0	4	boats	2	correct	0.910143279525073
93490	1	stim101_inanimate_clothing_gloves_1.png	101	inanimate	clothing	gloves	1	0	4	boats	2	correct	0.910143279525073
93540	1	stim194_inanimate_tools_scissors_2.png	194	inanimate	tools	scissors	2	0	4	boats	2	correct	0.910143279525073
93590	1	stim007_animate_aquatic_fish_3.png	7	animate	aquatic	fish	3	0	4	boats	2	correct	0.910143279525073
93640	1	stim084_animate_mammal_cow_4.png	84	animate	mammal	cow	4	0	4	boats	2	correct	0.910143279525073
93690	1	stim130_inanimate_fruits_grape_2.png	130	inanimate	fruits	grape	2	0	4	boats	2	correct	0.910143279525073
93740	1	stim052_animate_human_clown_4.png	52	animate	human	clown	4	0	4	boats	2	correct	0.910143279525073
93790	1	stim051_animate_human_clown_3.png	51	animate	human	clown	3	0	4	boats	2	correct	0.910143279525073
93840	1	stim077_animate_insect_grasshopper_1.png	77	animate	insect	grasshopper	1	0	4	boats	2	correct	0.910143279525073
93890	1	stim167_inanimate_plants_cactus_3.png	167	inanimate	plants	cactus	3	0	4	boats	2	correct	0.910143279525073
93940	1	stim085_animate_mammal_giraffe_1.png	85	animate	mammal	giraffe	1	0	4	boats	2	correct	0.910143279525073
93990	1	stim060_animate_human_sports_4.png	60	animate	human	sports	4	0	4	boats	2	correct	0.910143279525073
94040	1	stim171_inanimate_plants_sunflower_3.png	171	inanimate	plants	sunflower	3	0	4	boats	2	correct	0.910143279525073
94090	1	stim124_inanimate_fruits_apple_4.png	124	inanimate	fruits	apple	4	0	4	boats	2	correct	0.910143279525073
94140	1	stim177_inanimate_plants_tulip_1.png	177	inanimate	plants	tulip	1	0	4	boats	2	correct	0.910143279525073
94190	1	stim054_animate_human_faces_2.png	54	animate	human	faces	2	0	4	boats	2	correct	0.910143279525073
94240	1	stim053_animate_human_faces_1.png	53	animate	human	faces	1	0	4	boats	2	correct	0.910143279525073
94290	1	stim123_inanimate_fruits_apple_3.png	123	inanimate	fruits	apple	3	0	4	boats	2	correct	0.910143279525073
94340	1	stim144_inanimate_furniture_bed_4.png	144	inanimate	furniture	bed	4	0	4	boats	2	correct	0.910143279525073
94390	1	stim129_inanimate_fruits_grape_1.png	129	inanimate	fruits	grape	1	0	4	boats	2	correct	0.910143279525073
94440	1	stim090_animate_mammal_kangaroo_2.png	90	animate	mammal	kangaroo	2	0	4	boats	2	correct	0.910143279525073
94490	1	stim202_targets_object_boats_2.png	202	targets	object	boats	2	1	4	boats	2	correct	0.910143279525073
94540	1	stim092_animate_mammal_kangaroo_4.png	92	animate	mammal	kangaroo	4	0	4	boats	2	correct	0.910143279525073
94590	1	stim197_inanimate_tools_wrench_1.png	197	inanimate	tools	wrench	1	0	4	boats	2	correct	0.910143279525073
94640	1	stim011_animate_aquatic_seahorse_3.png	11	animate	aquatic	seahorse	3	0	4	boats	2	correct	0.910143279525073
94690	1	stim175_inanimate_plants_tree_3.png	175	inanimate	plants	tree	3	0	4	boats	2	correct	0.910143279525073
94740	1	stim067_animate_insect_bug_3.png	67	animate	insect	bug	3	0	4	boats	2	correct	0.910143279525073
94790	1	stim075_animate_insect_dragonfly_3.png	75	animate	insect	dragonfly	3	0	4	boats	2	correct	0.910143279525073
94840	1	stim120_inanimate_clothing_socks_4.png	120	inanimate	clothing	socks	4	0	4	boats	2	correct	0.910143279525073
94890	1	stim165_inanimate_plants_cactus_1.png	165	inanimate	plants	cactus	1	0	4	boats	2	correct	0.910143279525073
94940	1	stim157_inanimate_furniture_table_1.png	157	inanimate	furniture	table	1	0	4	boats	2	correct	0.910143279525073
94990	1	stim020_animate_aquatic_shrimp_4.png	20	animate	aquatic	shrimp	4	0	4	boats	2	correct	0.910143279525073
95040	1	stim032_animate_bird_parrot_4.png	32	animate	bird	parrot	4	0	4	boats	2	correct	0.910143279525073
95090	1	stim106_inanimate_clothing_hat_2.png	106	inanimate	clothing	hat	2	0	4	boats	2	correct	0.910143279525073
95140	1	stim169_inanimate_plants_sunflower_1.png	169	inanimate	plants	sunflower	1	0	4	boats	2	correct	0.910143279525073
95190	1	stim111_inanimate_clothing_jeans_3.png	111	inanimate	clothing	jeans	3	0	4	boats	2	correct	0.910143279525073
95240	1	stim078_animate_insect_grasshopper_2.png	78	animate	insect	grasshopper	2	0	4	boats	2	correct	0.910143279525073
95290	1	stim061_animate_insect_ant_1.png	61	animate	insect	ant	1	0	4	boats	2	correct	0.910143279525073
95340	1	stim016_animate_aquatic_shark_4.png	16	animate	aquatic	shark	4	0	4	boats	2	correct	0.910143279525073
95390	1	stim196_inanimate_tools_scissors_4.png	196	inanimate	tools	scissors	4	0	4	boats	2	correct	0.910143279525073
95440	1	stim064_animate_insect_ant_4.png	64	animate	insect	ant	4	0	4	boats	2	correct	0.910143279525073
95490	1	stim009_animate_aquatic_seahorse_1.png	9	animate	aquatic	seahorse	1	0	4	boats	2	correct	0.910143279525073
95540	1	stim013_animate_aquatic_shark_1.png	13	animate	aquatic	shark	1	0	4	boats	2	correct	0.910143279525073
95590	1	stim158_inanimate_furniture_table_2.png	158	inanimate	furniture	table	2	0	4	boats	2	correct	0.910143279525073
95640	1	stim029_animate_bird_parrot_1.png	29	animate	bird	parrot	1	0	4	boats	2	correct	0.910143279525073
95690	1	stim048_animate_human_child_4.png	48	animate	human	child	4	0	4	boats	2	correct	0.910143279525073
95740	1	stim199_inanimate_tools_wrench_3.png	199	inanimate	tools	wrench	3	0	4	boats	2	correct	0.910143279525073
95790	1	stim100_animate_mammal_rhino_4.png	100	animate	mammal	rhino	4	0	4	boats	2	correct	0.910143279525073
95840	1	stim198_inanimate_tools_wrench_2.png	198	inanimate	tools	wrench	2	0	4	boats	2	correct	0.910143279525073
95890	1	stim164_inanimate_plants_bush_4.png	164	inanimate	plants	bush	4	0	4	boats	2	correct	0.910143279525073
95940	1	stim023_animate_bird_chicken_3.png	23	animate	bird	chicken	3	0	4	boats	2	correct	0.910143279525073
95990	1	stim081_animate_mammal_cow_1.png	81	animate	mammal	cow	1	0	4	boats	2	correct	0.910143279525073
96040	1	stim170_inanimate_plants_sunflower_2.png	170	inanimate	plants	sunflower	2	0	4	boats	2	correct	0.910143279525073
96090	1	stim149_inanimate_furniture_closet_1.png	149	inanimate	furniture	closet	1	0	4	boats	2	correct	0.910143279525073
96140	1	stim140_inanimate_fruits_strawberry_4.png	140	inanimate	fruits	strawberry	4	0	4	boats	2	correct	0.910143279525073
96190	1	stim174_inanimate_plants_tree_2.png	174	inanimate	plants	tree	2	0	4	boats	2	correct	0.910143279525073
96240	1	stim070_animate_insect_butterfly_2.png	70	animate	insect	butterfly	2	0	4	boats	2	correct	0.910143279525073
96290	1	stim055_animate_human_faces_3.png	55	animate	human	faces	3	0	4	boats	2	correct	0.910143279525073
96340	1	stim162_inanimate_plants_bush_2.png	162	inanimate	plants	bush	2	0	4	boats	2	correct	0.910143279525073
96390	1	stim187_inanimate_tools_hammer_3.png	187	inanimate	tools	hammer	3	0	4	boats	2	correct	0.910143279525073
96440	1	stim050_animate_human_clown_2.png	50	animate	human	clown	2	0	4	boats	2	correct	0.910143279525073
96490	1	stim109_inanimate_clothing_jeans_1.png	109	inanimate	clothing	jeans	1	0	4	boats	2	correct	0.910143279525073
96540	1	stim137_inanimate_fruits_strawberry_1.png	137	inanimate	fruits	strawberry	1	0	4	boats	2	correct	0.910143279525073
96590	1	stim191_inanimate_tools_pan_3.png	191	inanimate	tools	pan	3	0	4	boats	2	correct	0.910143279525073
96640	1	stim107_inanimate_clothing_hat_3.png	107	inanimate	clothing	hat	3	0	4	boats	2	correct	0.910143279525073
96690	1	stim110_inanimate_clothing_jeans_2.png	110	inanimate	clothing	jeans	2	0	4	boats	2	correct	0.910143279525073
96740	1	stim133_inanimate_fruits_pineapple_1.png	133	inanimate	fruits	pineapple	1	0	4	boats	2	correct	0.910143279525073
96790	1	stim094_animate_mammal_monkey_2.png	94	animate	mammal	monkey	2	0	4	boats	2	correct	0.910143279525073
96840	1	stim038_animate_bird_penguin_2.png	38	animate	bird	penguin	2	0	4	boats	2	correct	0.910143279525073
96890	1	stim034_animate_bird_peacock_2.png	34	animate	bird	peacock	2	0	4	boats	2	correct	0.910143279525073
96940	1	stim056_animate_human_faces_4.png	56	animate	human	faces	4	0	4	boats	2	correct	0.910143279525073
96990	1	stim112_inanimate_clothing_jeans_4.png	112	inanimate	clothing	jeans	4	0	4	boats	2	correct	0.910143279525073
97040	1	stim087_animate_mammal_giraffe_3.png	87	animate	mammal	giraffe	3	0	4	boats	2	correct	0.910143279525073
97090	1	stim128_inanimate_fruits_banana_4.png	128	inanimate	fruits	banana	4	0	4	boats	2	correct	0.910143279525073
97140	1	stim176_inanimate_plants_tree_4.png	176	inanimate	plants	tree	4	0	4	boats	2	correct	0.910143279525073
97190	1	stim150_inanimate_furniture_closet_2.png	150	inanimate	furniture	closet	2	0	4	boats	2	correct	0.910143279525073
97240	1	stim117_inanimate_clothing_socks_1.png	117	inanimate	clothing	socks	1	0	4	boats	2	correct	0.910143279525073
97290	1	stim159_inanimate_furniture_table_3.png	159	inanimate	furniture	table	3	0	4	boats	2	correct	0.910143279525073
97340	1	stim042_animate_human_baby_2.png	42	animate	human	baby	2	0	4	boats	2	correct	0.910143279525073
97390	1	stim049_animate_human_clown_1.png	49	animate	human	clown	1	0	4	boats	2	correct	0.910143279525073
97440	1	stim146_inanimate_furniture_chair_2.png	146	inanimate	furniture	chair	2	0	4	boats	2	correct	0.910143279525073
97490	1	stim143_inanimate_furniture_bed_3.png	143	inanimate	furniture	bed	3	0	4	boats	2	correct	0.910143279525073
97540	1	stim114_inanimate_clothing_shirt_2.png	114	inanimate	clothing	shirt	2	0	4	boats	2	correct	0.910143279525073
97590	1	stim183_inanimate_tools_broom_3.png	183	inanimate	tools	broom	3	0	4	boats	2	correct	0.910143279525073
97640	1	stim083_animate_mammal_cow_3.png	83	animate	mammal	cow	3	0	4	boats	2	correct	0.910143279525073
97690	1	stim166_inanimate_plants_cactus_2.png	166	inanimate	plants	cactus	2	0	4	boats	2	correct	0.910143279525073
97740	1	stim098_animate_mammal_rhino_2.png	98	animate	mammal	rhino	2	0	4	boats	2	correct	0.910143279525073
104973	1	stim161_inanimate_plants_bush_1.png	161	inanimate	plants	bush	1	0	5	boats	2	correct	0.765099792442925
105023	1	stim103_inanimate_clothing_gloves_3.png	103	inanimate	clothing	gloves	3	0	5	boats	2	correct	0.765099792442925
105073	1	stim075_animate_insect_dragonfly_3.png	75	animate	insect	dragonfly	3	0	5	boats	2	correct	0.765099792442925
105123	1	stim008_animate_aquatic_fish_4.png	8	animate	aquatic	fish	4	0	5	boats	2	correct	0.765099792442925
105173	1	stim037_animate_bird_penguin_1.png	37	animate	bird	penguin	1	0	5	boats	2	correct	0.765099792442925
105223	1	stim132_inanimate_fruits_grape_4.png	132	inanimate	fruits	grape	4	0	5	boats	2	correct	0.765099792442925
105273	1	stim199_inanimate_tools_wrench_3.png	199	inanimate	tools	wrench	3	0	5	boats	2	correct	0.765099792442925
105323	1	stim119_inanimate_clothing_socks_3.png	119	inanimate	clothing	socks	3	0	5	boats	2	correct	0.765099792442925
105373	1	stim176_inanimate_plants_tree_4.png	176	inanimate	plants	tree	4	0	5	boats	2	correct	0.765099792442925
105423	1	stim168_inanimate_plants_cactus_4.png	168	inanimate	plants	cactus	4	0	5	boats	2	correct	0.765099792442925
105473	1	stim195_inanimate_tools_scissors_3.png	195	inanimate	tools	scissors	3	0	5	boats	2	correct	0.765099792442925
105523	1	stim121_inanimate_fruits_apple_1.png	121	inanimate	fruits	apple	1	0	5	boats	2	correct	0.765099792442925
105573	1	stim100_animate_mammal_rhino_4.png	100	animate	mammal	rhino	4	0	5	boats	2	correct	0.765099792442925
105623	1	stim120_inanimate_clothing_socks_4.png	120	inanimate	clothing	socks	4	0	5	boats	2	correct	0.765099792442925
105673	1	stim025_animate_bird_duck_1.png	25	animate	bird	duck	1	0	5	boats	2	correct	0.765099792442925
105723	1	stim105_inanimate_clothing_hat_1.png	105	inanimate	clothing	hat	1	0	5	boats	2	correct	0.765099792442925
105773	1	stim078_animate_insect_grasshopper_2.png	78	animate	insect	grasshopper	2	0	5	boats	2	correct	0.765099792442925
105823	1	stim160_inanimate_furniture_table_4.png	160	inanimate	furniture	table	4	0	5	boats	2	correct	0.765099792442925
105873	1	stim156_inanimate_furniture_sofa_4.png	156	inanimate	furniture	sofa	4	0	5	boats	2	correct	0.765099792442925
105923	1	stim162_inanimate_plants_bush_2.png	162	inanimate	plants	bush	2	0	5	boats	2	correct	0.765099792442925
105973	1	stim172_inanimate_plants_sunflower_4.png	172	inanimate	plants	sunflower	4	0	5	boats	2	correct	0.765099792442925
106023	1	stim141_inanimate_furniture_bed_1.png	141	inanimate	furniture	bed	1	0	5	boats	2	correct	0.765099792442925
106073	1	stim024_animate_bird_chicken_4.png	24	animate	bird	chicken	4	0	5	boats	2	correct	0.765099792442925
106123	1	stim017_animate_aquatic_shrimp_1.png	17	animate	aquatic	shrimp	1	0	5	boats	2	correct	0.765099792442925
106173	1	stim054_animate_human_faces_2.png	54	animate	human	faces	2	0	5	boats	2	correct	0.765099792442925
106223	1	stim196_inanimate_tools_scissors_4.png	196	inanimate	tools	scissors	4	0	5	boats	2	correct	0.765099792442925
106273	1	stim197_inanimate_tools_wrench_1.png	197	inanimate	tools	wrench	1	0	5	boats	2	correct	0.765099792442925
106323	1	stim032_animate_bird_parrot_4.png	32	animate	bird	parrot	4	0	5	boats	2	correct	0.765099792442925
106373	1	stim177_inanimate_plants_tulip_1.png	177	inanimate	plants	tulip	1	0	5	boats	2	correct	0.765099792442925
106423	1	stim064_animate_insect_ant_4.png	64	animate	insect	ant	4	0	5	boats	2	correct	0.765099792442925
106473	1	stim074_animate_insect_dragonfly_2.png	74	animate	insect	dragonfly	2	0	5	boats	2	correct	0.765099792442925
106523	1	stim118_inanimate_clothing_socks_2.png	118	inanimate	clothing	socks	2	0	5	boats	2	correct	0.765099792442925
106573	1	stim010_animate_aquatic_seahorse_2.png	10	animate	aquatic	seahorse	2	0	5	boats	2	correct	0.765099792442925
106623	1	stim173_inanimate_plants_tree_1.png	173	inanimate	plants	tree	1	0	5	boats	2	correct	0.765099792442925
106673	1	stim035_animate_bird_peacock_3.png	35	animate	bird	peacock	3	0	5	boats	2	correct	0.765099792442925
106723	1	stim092_animate_mammal_kangaroo_4.png	92	animate	mammal	kangaroo	4	0	5	boats	2	correct	0.765099792442925
106773	1	stim039_animate_bird_penguin_3.png	39	animate	bird	penguin	3	0	5	boats	2	correct	0.765099792442925
106823	1	stim116_inanimate_clothing_shirt_4.png	116	inanimate	clothing	shirt	4	0	5	boats	2	correct	0.765099792442925
106873	1	stim048_animate_human_child_4.png	48	animate	human	child	4	0	5	boats	2	correct	0.765099792442925
106923	1	stim093_animate_mammal_monkey_1.png	93	animate	mammal	monkey	1	0	5	boats	2	correct	0.765099792442925
106973	1	stim077_animate_insect_grasshopper_1.png	77	animate	insect	grasshopper	1	0	5	boats	2	correct	0.765099792442925
107023	1	stim071_animate_insect_butterfly_3.png	71	animate	insect	butterfly	3	0	5	boats	2	correct	0.765099792442925
107073	1	stim124_inanimate_fruits_apple_4.png	124	inanimate	fruits	apple	4	0	5	boats	2	correct	0.765099792442925
107123	1	stim181_inanimate_tools_broom_1.png	181	inanimate	tools	broom	1	0	5	boats	2	correct	0.765099792442925
107173	1	stim011_animate_aquatic_seahorse_3.png	11	animate	aquatic	seahorse	3	0	5	boats	2	correct	0.765099792442925
107223	1	stim148_inanimate_furniture_chair_4.png	148	inanimate	furniture	chair	4	0	5	boats	2	correct	0.765099792442925
107273	1	stim009_animate_aquatic_seahorse_1.png	9	animate	aquatic	seahorse	1	0	5	boats	2	correct	0.765099792442925
107323	1	stim192_inanimate_tools_pan_4.png	192	inanimate	tools	pan	4	0	5	boats	2	correct	0.765099792442925
107373	1	stim088_animate_mammal_giraffe_4.png	88	animate	mammal	giraffe	4	0	5	boats	2	correct	0.765099792442925
107423	1	stim170_inanimate_plants_sunflower_2.png	170	inanimate	plants	sunflower	2	0	5	boats	2	correct	0.765099792442925
107473	1	stim125_inanimate_fruits_banana_1.png	125	inanimate	fruits	banana	1	0	5	boats	2	correct	0.765099792442925
107523	1	stim043_animate_human_baby_3.png	43	animate	human	baby	3	0	5	boats	2	correct	0.765099792442925
107573	1	stim108_inanimate_clothing_hat_4.png	108	inanimate	clothing	hat	4	0	5	boats	2	correct	0.765099792442925
107623	1	stim169_inanimate_plants_sunflower_1.png	169	inanimate	plants	sunflower	1	0	5	boats	2	correct	0.765099792442925
107673	1	stim012_animate_aquatic_seahorse_4.png	12	animate	aquatic	seahorse	4	0	5	boats	2	correct	0.765099792442925
107723	1	stim072_animate_insect_butterfly_4.png	72	animate	insect	butterfly	4	0	5	boats	2	correct	0.765099792442925
107773	1	stim015_animate_aquatic_shark_3.png	15	animate	aquatic	shark	3	0	5	boats	2	correct	0.765099792442925
107823	1	stim087_animate_mammal_giraffe_3.png	87	animate	mammal	giraffe	3	0	5	boats	2	correct	0.765099792442925
107873	1	stim188_inanimate_tools_hammer_4.png	188	inanimate	tools	hammer	4	0	5	boats	2	correct	0.765099792442925
107923	1	stim153_inanimate_furniture_sofa_1.png	153	inanimate	furniture	sofa	1	0	5	boats	2	correct	0.765099792442925
107973	1	stim067_animate_insect_bug_3.png	67	animate	insect	bug	3	0	5	boats	2	correct	0.765099792442925
108023	1	stim059_animate_human_sports_3.png	59	animate	human	sports	3	0	5	boats	2	correct	0.765099792442925
108073	1	stim020_animate_aquatic_shrimp_4.png	20	animate	aquatic	shrimp	4	0	5	boats	2	correct	0.765099792442925
108123	1	stim085_animate_mammal_giraffe_1.png	85	animate	mammal	giraffe	1	0	5	boats	2	correct	0.765099792442925
108173	1	stim104_inanimate_clothing_gloves_4.png	104	inanimate	clothing	gloves	4	0	5	boats	2	correct	0.765099792442925
108223	1	stim109_inanimate_clothing_jeans_1.png	109	inanimate	clothing	jeans	1	0	5	boats	2	correct	0.765099792442925
108273	1	stim178_inanimate_plants_tulip_2.png	178	inanimate	plants	tulip	2	0	5	boats	2	correct	0.765099792442925
108323	1	stim127_inanimate_fruits_banana_3.png	127	inanimate	fruits	banana	3	0	5	boats	2	correct	0.765099792442925
108373	1	stim033_animate_bird_peacock_1.png	33	animate	bird	peacock	1	0	5	boats	2	correct	0.765099792442925
108423	1	stim166_inanimate_plants_cactus_2.png	166	inanimate	plants	cactus	2	0	5	boats	2	correct	0.765099792442925
108473	1	stim050_animate_human_clown_2.png	50	animate	human	clown	2	0	5	boats	2	correct	0.765099792442925
108523	1	stim026_animate_bird_duck_2.png	26	animate	bird	duck	2	0	5	boats	2	correct	0.765099792442925
108573	1	stim151_inanimate_furniture_closet_3.png	151	inanimate	furniture	closet	3	0	5	boats	2	correct	0.765099792442925
108623	1	stim070_animate_insect_butterfly_2.png	70	animate	insect	butterfly	2	0	5	boats	2	correct	0.765099792442925
108673	1	stim185_inanimate_tools_hammer_1.png	185	inanimate	tools	hammer	1	0	5	boats	2	correct	0.765099792442925
108723	1	stim167_inanimate_plants_cactus_3.png	167	inanimate	plants	cactus	3	0	5	boats	2	correct	0.765099792442925
108773	1	stim131_inanimate_fruits_grape_3.png	131	inanimate	fruits	grape	3	0	5	boats	2	correct	0.765099792442925
108823	1	stim030_animate_bird_parrot_2.png	30	animate	bird	parrot	2	0	5	boats	2	correct	0.765099792442925
108873	1	stim044_animate_human_baby_4.png	44	animate	human	baby	4	0	5	boats	2	correct	0.765099792442925
108923	1	stim042_animate_human_baby_2.png	42	animate	human	baby	2	0	5	boats	2	correct	0.765099792442925
108973	1	stim096_animate_mammal_monkey_4.png	96	animate	mammal	monkey	4	0	5	boats	2	correct	0.765099792442925
109023	1	stim204_targets_object_boats_4.png	204	targets	object	boats	4	1	5	boats	2	correct	0.765099792442925
