onset	duration	stimulusname	stimulusnumber	levelA	levelB	levelC	withinexemplarnumber	istarget	trialnumber	condition	response	correct	rt
30054	1	stim030_animate_bird_parrot_2.png	30	animate	bird	parrot	2	0	1	stars	3	incorrect	0.605870353057981
30104	1	stim166_inanimate_plants_cactus_2.png	166	inanimate	plants	cactus	2	0	1	stars	3	incorrect	0.605870353057981
30154	1	stim015_animate_aquatic_shark_3.png	15	animate	aquatic	shark	3	0	1	stars	3	incorrect	0.605870353057981
30204	1	stim192_inanimate_tools_pan_4.png	192	inanimate	tools	pan	4	0	1	stars	3	incorrect	0.605870353057981
30254	1	stim168_inanimate_plants_cactus_4.png	168	inanimate	plants	cactus	4	0	1	stars	3	incorrect	0.605870353057981
30304	1	stim098_animate_mammal_rhino_2.png	98	animate	mammal	rhino	2	0	1	stars	3	incorrect	0.605870353057981
30354	1	stim063_animate_insect_ant_3.png	63	animate	insect	ant	3	0	1	stars	3	incorrect	0.605870353057981
30404	1	stim075_animate_insect_dragonfly_3.png	75	animate	insect	dragonfly	3	0	1	stars	3	incorrect	0.605870353057981
30454	1	stim138_inanimate_fruits_strawberry_2.png	138	inanimate	fruits	strawberry	2	0	1	stars	3	incorrect	0.605870353057981
30504	1	stim147_inanimate_furniture_chair_3.png	147	inanimate	furniture	chair	3	0	1	stars	3	incorrect	0.605870353057981
30554	1	stim041_animate_human_baby_1.png	41	animate	human	baby	1	0	1	stars	3	incorrect	0.605870353057981
30604	1	stim014_animate_aquatic_shark_2.png	14	animate	aquatic	shark	2	0	1	stars	3	incorrect	0.605870353057981
30654	1	stim037_animate_bird_penguin_1.png	37	animate	bird	penguin	1	0	1	stars	3	incorrect	0.605870353057981
30704	1	stim191_inanimate_tools_pan_3.png	191	inanimate	tools	pan	3	0	1	stars	3	incorrect	0.605870353057981
30754	1	stim087_animate_mammal_giraffe_3.png	87	animate	mammal	giraffe	3	0	1	stars	3	incorrect	0.605870353057981
30804	1	stim176_inanimate_plants_tree_4.png	176	inanimate	plants	tree	4	0	1	stars	3	incorrect	0.605870353057981
30854	1	stim140_inanimate_fruits_strawberry_4.png	140	inanimate	fruits	strawberry	4	0	1	stars	3	incorrect	0.605870353057981
30904	1	stim111_inanimate_clothing_jeans_3.png	111	inanimate	clothing	jeans	3	0	1	stars	3	incorrect	0.605870353057981
30954	1	stim073_animate_insect_dragonfly_1.png	73	animate	insect	dragonfly	1	0	1	stars	3	incorrect	0.605870353057981
31004	1	stim190_inanimate_tools_pan_2.png	190	inanimate	tools	pan	2	0	1	stars	3	incorrect	0.605870353057981
31054	1	stim162_inanimate_plants_bush_2.png	162	inanimate	plants	bush	2	0	1	stars	3	incorrect	0.605870353057981
31104	1	stim131_inanimate_fruits_grape_3.png	131	inanimate	fruits	grape	3	0	1	stars	3	incorrect	0.605870353057981
31154	1	stim067_animate_insect_bug_3.png	67	animate	insect	bug	3	0	1	stars	3	incorrect	0.605870353057981
31204	1	stim126_inanimate_fruits_banana_2.png	126	inanimate	fruits	banana	2	0	1	stars	3	incorrect	0.605870353057981
31254	1	stim032_animate_bird_parrot_4.png	32	animate	bird	parrot	4	0	1	stars	3	incorrect	0.605870353057981
31304	1	stim173_inanimate_plants_tree_1.png	173	inanimate	plants	tree	1	0	1	stars	3	incorrect	0.605870353057981
31354	1	stim077_animate_insect_grasshopper_1.png	77	animate	insect	grasshopper	1	0	1	stars	3	incorrect	0.605870353057981
31404	1	stim115_inanimate_clothing_shirt_3.png	115	inanimate	clothing	shirt	3	0	1	stars	3	incorrect	0.605870353057981
31454	1	stim139_inanimate_fruits_strawberry_3.png	139	inanimate	fruits	strawberry	3	0	1	stars	3	incorrect	0.605870353057981
31504	1	stim079_animate_insect_grasshopper_3.png	79	animate	insect	grasshopper	3	0	1	stars	3	incorrect	0.605870353057981
31554	1	stim092_animate_mammal_kangaroo_4.png	92	animate	mammal	kangaroo	4	0	1	stars	3	incorrect	0.605870353057981
31604	1	stim072_animate_insect_butterfly_4.png	72	animate	insect	butterfly	4	0	1	stars	3	incorrect	0.605870353057981
31654	1	stim060_animate_human_sports_4.png	60	animate	human	sports	4	0	1	stars	3	incorrect	0.605870353057981
31704	1	stim143_inanimate_furniture_bed_3.png	143	inanimate	furniture	bed	3	0	1	stars	3	incorrect	0.605870353057981
31754	1	stim112_inanimate_clothing_jeans_4.png	112	inanimate	clothing	jeans	4	0	1	stars	3	incorrect	0.605870353057981
31804	1	stim109_inanimate_clothing_jeans_1.png	109	inanimate	clothing	jeans	1	0	1	stars	3	incorrect	0.605870353057981
31854	1	stim028_animate_bird_duck_4.png	28	animate	bird	duck	4	0	1	stars	3	incorrect	0.605870353057981
31904	1	stim046_animate_human_child_2.png	46	animate	human	child	2	0	1	stars	3	incorrect	0.605870353057981
31954	1	stim019_animate_aquatic_shrimp_3.png	19	animate	aquatic	shrimp	3	0	1	stars	3	incorrect	0.605870353057981
32004	1	stim193_inanimate_tools_scissors_1.png	193	inanimate	tools	scissors	1	0	1	stars	3	incorrect	0.605870353057981
32054	1	stim120_inanimate_clothing_socks_4.png	120	inanimate	clothing	socks	4	0	1	stars	3	incorrect	0.605870353057981
32104	1	stim035_animate_bird_peacock_3.png	35	animate	bird	peacock	3	0	1	stars	3	incorrect	0.605870353057981
32154	1	stim036_animate_bird_peacock_4.png	36	animate	bird	peacock	4	0	1	stars	3	incorrect	0.605870353057981
32204	1	stim179_inanimate_plants_tulip_3.png	179	inanimate	plants	tulip	3	0	1	stars	3	incorrect	0.605870353057981
32254	1	stim029_animate_bird_parrot_1.png	29	animate	bird	parrot	1	0	1	stars	3	incorrect	0.605870353057981
32304	1	stim165_inanimate_plants_cactus_1.png	165	inanimate	plants	cactus	1	0	1	stars	3	incorrect	0.605870353057981
32354	1	stim127_inanimate_fruits_banana_3.png	127	inanimate	fruits	banana	3	0	1	stars	3	incorrect	0.605870353057981
32404	1	stim181_inanimate_tools_broom_1.png	181	inanimate	tools	broom	1	0	1	stars	3	incorrect	0.605870353057981
32454	1	stim026_animate_bird_duck_2.png	26	animate	bird	duck	2	0	1	stars	3	incorrect	0.605870353057981
32504	1	stim169_inanimate_plants_sunflower_1.png	169	inanimate	plants	sunflower	1	0	1	stars	3	incorrect	0.605870353057981
32554	1	stim118_inanimate_clothing_socks_2.png	118	inanimate	clothing	socks	2	0	1	stars	3	incorrect	0.605870353057981
32604	1	stim081_animate_mammal_cow_1.png	81	animate	mammal	cow	1	0	1	stars	3	incorrect	0.605870353057981
32654	1	stim022_animate_bird_chicken_2.png	22	animate	bird	chicken	2	0	1	stars	3	incorrect	0.605870353057981
32704	1	stim009_animate_aquatic_seahorse_1.png	9	animate	aquatic	seahorse	1	0	1	stars	3	incorrect	0.605870353057981
32754	1	stim062_animate_insect_ant_2.png	62	animate	insect	ant	2	0	1	stars	3	incorrect	0.605870353057981
32804	1	stim031_animate_bird_parrot_3.png	31	animate	bird	parrot	3	0	1	stars	3	incorrect	0.605870353057981
32854	1	stim001_animate_aquatic_crab_1.png	1	animate	aquatic	crab	1	0	1	stars	3	incorrect	0.605870353057981
32904	1	stim180_inanimate_plants_tulip_4.png	180	inanimate	plants	tulip	4	0	1	stars	3	incorrect	0.605870353057981
32954	1	stim196_inanimate_tools_scissors_4.png	196	inanimate	tools	scissors	4	0	1	stars	3	incorrect	0.605870353057981
33004	1	stim089_animate_mammal_kangaroo_1.png	89	animate	mammal	kangaroo	1	0	1	stars	3	incorrect	0.605870353057981
33054	1	stim123_inanimate_fruits_apple_3.png	123	inanimate	fruits	apple	3	0	1	stars	3	incorrect	0.605870353057981
33104	1	stim007_animate_aquatic_fish_3.png	7	animate	aquatic	fish	3	0	1	stars	3	incorrect	0.605870353057981
33154	1	stim155_inanimate_furniture_sofa_3.png	155	inanimate	furniture	sofa	3	0	1	stars	3	incorrect	0.605870353057981
33204	1	stim102_inanimate_clothing_gloves_2.png	102	inanimate	clothing	gloves	2	0	1	stars	3	incorrect	0.605870353057981
33254	1	stim194_inanimate_tools_scissors_2.png	194	inanimate	tools	scissors	2	0	1	stars	3	incorrect	0.605870353057981
33304	1	stim004_animate_aquatic_crab_4.png	4	animate	aquatic	crab	4	0	1	stars	3	incorrect	0.605870353057981
33354	1	stim164_inanimate_plants_bush_4.png	164	inanimate	plants	bush	4	0	1	stars	3	incorrect	0.605870353057981
33404	1	stim042_animate_human_baby_2.png	42	animate	human	baby	2	0	1	stars	3	incorrect	0.605870353057981
33454	1	stim117_inanimate_clothing_socks_1.png	117	inanimate	clothing	socks	1	0	1	stars	3	incorrect	0.605870353057981
33504	1	stim137_inanimate_fruits_strawberry_1.png	137	inanimate	fruits	strawberry	1	0	1	stars	3	incorrect	0.605870353057981
33554	1	stim177_inanimate_plants_tulip_1.png	177	inanimate	plants	tulip	1	0	1	stars	3	incorrect	0.605870353057981
33604	1	stim017_animate_aquatic_shrimp_1.png	17	animate	aquatic	shrimp	1	0	1	stars	3	incorrect	0.605870353057981
33654	1	stim197_inanimate_tools_wrench_1.png	197	inanimate	tools	wrench	1	0	1	stars	3	incorrect	0.605870353057981
33704	1	stim130_inanimate_fruits_grape_2.png	130	inanimate	fruits	grape	2	0	1	stars	3	incorrect	0.605870353057981
33754	1	stim159_inanimate_furniture_table_3.png	159	inanimate	furniture	table	3	0	1	stars	3	incorrect	0.605870353057981
33804	1	stim018_animate_aquatic_shrimp_2.png	18	animate	aquatic	shrimp	2	0	1	stars	3	incorrect	0.605870353057981
33854	1	stim108_inanimate_clothing_hat_4.png	108	inanimate	clothing	hat	4	0	1	stars	3	incorrect	0.605870353057981
33904	1	stim113_inanimate_clothing_shirt_1.png	113	inanimate	clothing	shirt	1	0	1	stars	3	incorrect	0.605870353057981
33954	1	stim083_animate_mammal_cow_3.png	83	animate	mammal	cow	3	0	1	stars	3	incorrect	0.605870353057981
34004	1	stim154_inanimate_furniture_sofa_2.png	154	inanimate	furniture	sofa	2	0	1	stars	3	incorrect	0.605870353057981
34054	1	stim085_animate_mammal_giraffe_1.png	85	animate	mammal	giraffe	1	0	1	stars	3	incorrect	0.605870353057981
34104	1	stim171_inanimate_plants_sunflower_3.png	171	inanimate	plants	sunflower	3	0	1	stars	3	incorrect	0.605870353057981
34154	1	stim114_inanimate_clothing_shirt_2.png	114	inanimate	clothing	shirt	2	0	1	stars	3	incorrect	0.605870353057981
34204	1	stim119_inanimate_clothing_socks_3.png	119	inanimate	clothing	socks	3	0	1	stars	3	incorrect	0.605870353057981
34254	1	stim049_animate_human_clown_1.png	49	animate	human	clown	1	0	1	stars	3	incorrect	0.605870353057981
34304	1	stim093_animate_mammal_monkey_1.png	93	animate	mammal	monkey	1	0	1	stars	3	incorrect	0.605870353057981
34354	1	stim034_animate_bird_peacock_2.png	34	animate	bird	peacock	2	0	1	stars	3	incorrect	0.605870353057981
34404	1	stim010_animate_aquatic_seahorse_2.png	10	animate	aquatic	seahorse	2	0	1	stars	3	incorrect	0.605870353057981
34454	1	stim163_inanimate_plants_bush_3.png	163	inanimate	plants	bush	3	0	1	stars	3	incorrect	0.605870353057981
34504	1	stim002_animate_aquatic_crab_2.png	2	animate	aquatic	crab	2	0	1	stars	3	incorrect	0.605870353057981
34554	1	stim199_inanimate_tools_wrench_3.png	199	inanimate	tools	wrench	3	0	1	stars	3	incorrect	0.605870353057981
34604	1	stim025_animate_bird_duck_1.png	25	animate	bird	duck	1	0	1	stars	3	incorrect	0.605870353057981
34654	1	stim011_animate_aquatic_seahorse_3.png	11	animate	aquatic	seahorse	3	0	1	stars	3	incorrect	0.605870353057981
34704	1	stim129_inanimate_fruits_grape_1.png	129	inanimate	fruits	grape	1	0	1	stars	3	incorrect	0.605870353057981
34754	1	stim136_inanimate_fruits_pineapple_4.png	136	inanimate	fruits	pineapple	4	0	1	stars	3	incorrect	0.605870353057981
34804	1	stim184_inanimate_tools_broom_4.png	184	inanimate	tools	broom	4	0	1	stars	3	incorrect	0.605870353057981
34854	1	stim148_inanimate_furniture_chair_4.png	148	inanimate	furniture	chair	4	0	1	stars	3	incorrect	0.605870353057981
34904	1	stim091_animate_mammal_kangaroo_3.png	91	animate	mammal	kangaroo	3	0	1	stars	3	incorrect	0.605870353057981
34954	1	stim188_inanimate_tools_hammer_4.png	188	inanimate	tools	hammer	4	0	1	stars	3	incorrect	0.605870353057981
35004	1	stim095_animate_mammal_monkey_3.png	95	animate	mammal	monkey	3	0	1	stars	3	incorrect	0.605870353057981
35054	1	stim006_animate_aquatic_fish_2.png	6	animate	aquatic	fish	2	0	1	stars	3	incorrect	0.605870353057981
35104	1	stim214_targets_shapes_star_2.png	214	targets	shapes	star	2	1	1	stars	3	incorrect	0.605870353057981
35154	1	stim021_animate_bird_chicken_1.png	21	animate	bird	chicken	1	0	1	stars	3	incorrect	0.605870353057981
35204	1	stim160_inanimate_furniture_table_4.png	160	inanimate	furniture	table	4	0	1	stars	3	incorrect	0.605870353057981
35254	1	stim040_animate_bird_penguin_4.png	40	animate	bird	penguin	4	0	1	stars	3	incorrect	0.605870353057981
35304	1	stim053_animate_human_faces_1.png	53	animate	human	faces	1	0	1	stars	3	incorrect	0.605870353057981
35354	1	stim039_animate_bird_penguin_3.png	39	animate	bird	penguin	3	0	1	stars	3	incorrect	0.605870353057981
35404	1	stim082_animate_mammal_cow_2.png	82	animate	mammal	cow	2	0	1	stars	3	incorrect	0.605870353057981
35454	1	stim051_animate_human_clown_3.png	51	animate	human	clown	3	0	1	stars	3	incorrect	0.605870353057981
35504	1	stim132_inanimate_fruits_grape_4.png	132	inanimate	fruits	grape	4	0	1	stars	3	incorrect	0.605870353057981
35554	1	stim144_inanimate_furniture_bed_4.png	144	inanimate	furniture	bed	4	0	1	stars	3	incorrect	0.605870353057981
35604	1	stim187_inanimate_tools_hammer_3.png	187	inanimate	tools	hammer	3	0	1	stars	3	incorrect	0.605870353057981
35654	1	stim158_inanimate_furniture_table_2.png	158	inanimate	furniture	table	2	0	1	stars	3	incorrect	0.605870353057981
35704	1	stim170_inanimate_plants_sunflower_2.png	170	inanimate	plants	sunflower	2	0	1	stars	3	incorrect	0.605870353057981
35754	1	stim107_inanimate_clothing_hat_3.png	107	inanimate	clothing	hat	3	0	1	stars	3	incorrect	0.605870353057981
35804	1	stim101_inanimate_clothing_gloves_1.png	101	inanimate	clothing	gloves	1	0	1	stars	3	incorrect	0.605870353057981
35854	1	stim013_animate_aquatic_shark_1.png	13	animate	aquatic	shark	1	0	1	stars	3	incorrect	0.605870353057981
35904	1	stim167_inanimate_plants_cactus_3.png	167	inanimate	plants	cactus	3	0	1	stars	3	incorrect	0.605870353057981
35954	1	stim074_animate_insect_dragonfly_2.png	74	animate	insect	dragonfly	2	0	1	stars	3	incorrect	0.605870353057981
36004	1	stim096_animate_mammal_monkey_4.png	96	animate	mammal	monkey	4	0	1	stars	3	incorrect	0.605870353057981
36054	1	stim106_inanimate_clothing_hat_2.png	106	inanimate	clothing	hat	2	0	1	stars	3	incorrect	0.605870353057981
36104	1	stim005_animate_aquatic_fish_1.png	5	animate	aquatic	fish	1	0	1	stars	3	incorrect	0.605870353057981
36154	1	stim056_animate_human_faces_4.png	56	animate	human	faces	4	0	1	stars	3	incorrect	0.605870353057981
36204	1	stim097_animate_mammal_rhino_1.png	97	animate	mammal	rhino	1	0	1	stars	3	incorrect	0.605870353057981
36254	1	stim057_animate_human_sports_1.png	57	animate	human	sports	1	0	1	stars	3	incorrect	0.605870353057981
36304	1	stim141_inanimate_furniture_bed_1.png	141	inanimate	furniture	bed	1	0	1	stars	3	incorrect	0.605870353057981
36354	1	stim135_inanimate_fruits_pineapple_3.png	135	inanimate	fruits	pineapple	3	0	1	stars	3	incorrect	0.605870353057981
36404	1	stim122_inanimate_fruits_apple_2.png	122	inanimate	fruits	apple	2	0	1	stars	3	incorrect	0.605870353057981
36454	1	stim149_inanimate_furniture_closet_1.png	149	inanimate	furniture	closet	1	0	1	stars	3	incorrect	0.605870353057981
36504	1	stim090_animate_mammal_kangaroo_2.png	90	animate	mammal	kangaroo	2	0	1	stars	3	incorrect	0.605870353057981
36554	1	stim066_animate_insect_bug_2.png	66	animate	insect	bug	2	0	1	stars	3	incorrect	0.605870353057981
36604	1	stim061_animate_insect_ant_1.png	61	animate	insect	ant	1	0	1	stars	3	incorrect	0.605870353057981
36654	1	stim100_animate_mammal_rhino_4.png	100	animate	mammal	rhino	4	0	1	stars	3	incorrect	0.605870353057981
36704	1	stim058_animate_human_sports_2.png	58	animate	human	sports	2	0	1	stars	3	incorrect	0.605870353057981
36754	1	stim088_animate_mammal_giraffe_4.png	88	animate	mammal	giraffe	4	0	1	stars	3	incorrect	0.605870353057981
36804	1	stim151_inanimate_furniture_closet_3.png	151	inanimate	furniture	closet	3	0	1	stars	3	incorrect	0.605870353057981
36854	1	stim076_animate_insect_dragonfly_4.png	76	animate	insect	dragonfly	4	0	1	stars	3	incorrect	0.605870353057981
36904	1	stim142_inanimate_furniture_bed_2.png	142	inanimate	furniture	bed	2	0	1	stars	3	incorrect	0.605870353057981
36954	1	stim050_animate_human_clown_2.png	50	animate	human	clown	2	0	1	stars	3	incorrect	0.605870353057981
37004	1	stim080_animate_insect_grasshopper_4.png	80	animate	insect	grasshopper	4	0	1	stars	3	incorrect	0.605870353057981
37054	1	stim027_animate_bird_duck_3.png	27	animate	bird	duck	3	0	1	stars	3	incorrect	0.605870353057981
37104	1	stim121_inanimate_fruits_apple_1.png	121	inanimate	fruits	apple	1	0	1	stars	3	incorrect	0.605870353057981
37154	1	stim174_inanimate_plants_tree_2.png	174	inanimate	plants	tree	2	0	1	stars	3	incorrect	0.605870353057981
37204	1	stim086_animate_mammal_giraffe_2.png	86	animate	mammal	giraffe	2	0	1	stars	3	incorrect	0.605870353057981
37254	1	stim069_animate_insect_butterfly_1.png	69	animate	insect	butterfly	1	0	1	stars	3	incorrect	0.605870353057981
37304	1	stim200_inanimate_tools_wrench_4.png	200	inanimate	tools	wrench	4	0	1	stars	3	incorrect	0.605870353057981
37354	1	stim134_inanimate_fruits_pineapple_2.png	134	inanimate	fruits	pineapple	2	0	1	stars	3	incorrect	0.605870353057981
37404	1	stim104_inanimate_clothing_gloves_4.png	104	inanimate	clothing	gloves	4	0	1	stars	3	incorrect	0.605870353057981
37454	1	stim033_animate_bird_peacock_1.png	33	animate	bird	peacock	1	0	1	stars	3	incorrect	0.605870353057981
37504	1	stim071_animate_insect_butterfly_3.png	71	animate	insect	butterfly	3	0	1	stars	3	incorrect	0.605870353057981
37554	1	stim185_inanimate_tools_hammer_1.png	185	inanimate	tools	hammer	1	0	1	stars	3	incorrect	0.605870353057981
37604	1	stim198_inanimate_tools_wrench_2.png	198	inanimate	tools	wrench	2	0	1	stars	3	incorrect	0.605870353057981
37654	1	stim153_inanimate_furniture_sofa_1.png	153	inanimate	furniture	sofa	1	0	1	stars	3	incorrect	0.605870353057981
37704	1	stim183_inanimate_tools_broom_3.png	183	inanimate	tools	broom	3	0	1	stars	3	incorrect	0.605870353057981
37754	1	stim012_animate_aquatic_seahorse_4.png	12	animate	aquatic	seahorse	4	0	1	stars	3	incorrect	0.605870353057981
37804	1	stim175_inanimate_plants_tree_3.png	175	inanimate	plants	tree	3	0	1	stars	3	incorrect	0.605870353057981
37854	1	stim003_animate_aquatic_crab_3.png	3	animate	aquatic	crab	3	0	1	stars	3	incorrect	0.605870353057981
37904	1	stim103_inanimate_clothing_gloves_3.png	103	inanimate	clothing	gloves	3	0	1	stars	3	incorrect	0.605870353057981
37954	1	stim145_inanimate_furniture_chair_1.png	145	inanimate	furniture	chair	1	0	1	stars	3	incorrect	0.605870353057981
38004	1	stim156_inanimate_furniture_sofa_4.png	156	inanimate	furniture	sofa	4	0	1	stars	3	incorrect	0.605870353057981
38054	1	stim016_animate_aquatic_shark_4.png	16	animate	aquatic	shark	4	0	1	stars	3	incorrect	0.605870353057981
38104	1	stim128_inanimate_fruits_banana_4.png	128	inanimate	fruits	banana	4	0	1	stars	3	incorrect	0.605870353057981
38154	1	stim064_animate_insect_ant_4.png	64	animate	insect	ant	4	0	1	stars	3	incorrect	0.605870353057981
38204	1	stim024_animate_bird_chicken_4.png	24	animate	bird	chicken	4	0	1	stars	3	incorrect	0.605870353057981
38254	1	stim157_inanimate_furniture_table_1.png	157	inanimate	furniture	table	1	0	1	stars	3	incorrect	0.605870353057981
38304	1	stim133_inanimate_fruits_pineapple_1.png	133	inanimate	fruits	pineapple	1	0	1	stars	3	incorrect	0.605870353057981
38354	1	stim070_animate_insect_butterfly_2.png	70	animate	insect	butterfly	2	0	1	stars	3	incorrect	0.605870353057981
38404	1	stim065_animate_insect_bug_1.png	65	animate	insect	bug	1	0	1	stars	3	incorrect	0.605870353057981
38454	1	stim110_inanimate_clothing_jeans_2.png	110	inanimate	clothing	jeans	2	0	1	stars	3	incorrect	0.605870353057981
38504	1	stim068_animate_insect_bug_4.png	68	animate	insect	bug	4	0	1	stars	3	incorrect	0.605870353057981
38554	1	stim020_animate_aquatic_shrimp_4.png	20	animate	aquatic	shrimp	4	0	1	stars	3	incorrect	0.605870353057981
38604	1	stim044_animate_human_baby_4.png	44	animate	human	baby	4	0	1	stars	3	incorrect	0.605870353057981
38654	1	stim116_inanimate_clothing_shirt_4.png	116	inanimate	clothing	shirt	4	0	1	stars	3	incorrect	0.605870353057981
38704	1	stim038_animate_bird_penguin_2.png	38	animate	bird	penguin	2	0	1	stars	3	incorrect	0.605870353057981
38754	1	stim178_inanimate_plants_tulip_2.png	178	inanimate	plants	tulip	2	0	1	stars	3	incorrect	0.605870353057981
38804	1	stim094_animate_mammal_monkey_2.png	94	animate	mammal	monkey	2	0	1	stars	3	incorrect	0.605870353057981
38854	1	stim043_animate_human_baby_3.png	43	animate	human	baby	3	0	1	stars	3	incorrect	0.605870353057981
38904	1	stim099_animate_mammal_rhino_3.png	99	animate	mammal	rhino	3	0	1	stars	3	incorrect	0.605870353057981
38954	1	stim195_inanimate_tools_scissors_3.png	195	inanimate	tools	scissors	3	0	1	stars	3	incorrect	0.605870353057981
39004	1	stim124_inanimate_fruits_apple_4.png	124	inanimate	fruits	apple	4	0	1	stars	3	incorrect	0.605870353057981
39054	1	stim189_inanimate_tools_pan_1.png	189	inanimate	tools	pan	1	0	1	stars	3	incorrect	0.605870353057981
39104	1	stim023_animate_bird_chicken_3.png	23	animate	bird	chicken	3	0	1	stars	3	incorrect	0.605870353057981
39154	1	stim008_animate_aquatic_fish_4.png	8	animate	aquatic	fish	4	0	1	stars	3	incorrect	0.605870353057981
39204	1	stim146_inanimate_furniture_chair_2.png	146	inanimate	furniture	chair	2	0	1	stars	3	incorrect	0.605870353057981
39254	1	stim078_animate_insect_grasshopper_2.png	78	animate	insect	grasshopper	2	0	1	stars	3	incorrect	0.605870353057981
39304	1	stim161_inanimate_plants_bush_1.png	161	inanimate	plants	bush	1	0	1	stars	3	incorrect	0.605870353057981
39354	1	stim055_animate_human_faces_3.png	55	animate	human	faces	3	0	1	stars	3	incorrect	0.605870353057981
39404	1	stim059_animate_human_sports_3.png	59	animate	human	sports	3	0	1	stars	3	incorrect	0.605870353057981
39454	1	stim182_inanimate_tools_broom_2.png	182	inanimate	tools	broom	2	0	1	stars	3	incorrect	0.605870353057981
39504	1	stim105_inanimate_clothing_hat_1.png	105	inanimate	clothing	hat	1	0	1	stars	3	incorrect	0.605870353057981
39554	1	stim054_animate_human_faces_2.png	54	animate	human	faces	2	0	1	stars	3	incorrect	0.605870353057981
39604	1	stim152_inanimate_furniture_closet_4.png	152	inanimate	furniture	closet	4	0	1	stars	3	incorrect	0.605870353057981
39654	1	stim084_animate_mammal_cow_4.png	84	animate	mammal	cow	4	0	1	stars	3	incorrect	0.605870353057981
39704	1	stim052_animate_human_clown_4.png	52	animate	human	clown	4	0	1	stars	3	incorrect	0.605870353057981
39754	1	stim125_inanimate_fruits_banana_1.png	125	inanimate	fruits	banana	1	0	1	stars	3	incorrect	0.605870353057981
39804	1	stim150_inanimate_furniture_closet_2.png	150	inanimate	furniture	closet	2	0	1	stars	3	incorrect	0.605870353057981
39854	1	stim048_animate_human_child_4.png	48	animate	human	child	4	0	1	stars	3	incorrect	0.605870353057981
39904	1	stim047_animate_human_child_3.png	47	animate	human	child	3	0	1	stars	3	incorrect	0.605870353057981
39954	1	stim045_animate_human_child_1.png	45	animate	human	child	1	0	1	stars	3	incorrect	0.605870353057981
40004	1	stim172_inanimate_plants_sunflower_4.png	172	inanimate	plants	sunflower	4	0	1	stars	3	incorrect	0.605870353057981
40054	1	stim186_inanimate_tools_hammer_2.png	186	inanimate	tools	hammer	2	0	1	stars	3	incorrect	0.605870353057981
60254	1	stim023_animate_bird_chicken_3.png	23	animate	bird	chicken	3	0	2	stars	2	correct	0.718657710356638
60304	1	stim031_animate_bird_parrot_3.png	31	animate	bird	parrot	3	0	2	stars	2	correct	0.718657710356638
60354	1	stim186_inanimate_tools_hammer_2.png	186	inanimate	tools	hammer	2	0	2	stars	2	correct	0.718657710356638
60404	1	stim141_inanimate_furniture_bed_1.png	141	inanimate	furniture	bed	1	0	2	stars	2	correct	0.718657710356638
60454	1	stim100_animate_mammal_rhino_4.png	100	animate	mammal	rhino	4	0	2	stars	2	correct	0.718657710356638
60504	1	stim124_inanimate_fruits_apple_4.png	124	inanimate	fruits	apple	4	0	2	stars	2	correct	0.718657710356638
60554	1	stim123_inanimate_fruits_apple_3.png	123	inanimate	fruits	apple	3	0	2	stars	2	correct	0.718657710356638
60604	1	stim134_inanimate_fruits_pineapple_2.png	134	inanimate	fruits	pineapple	2	0	2	stars	2	correct	0.718657710356638
60654	1	stim039_animate_bird_penguin_3.png	39	animate	bird	penguin	3	0	2	stars	2	correct	0.718657710356638
60704	1	stim083_animate_mammal_cow_3.png	83	animate	mammal	cow	3	0	2	stars	2	correct	0.718657710356638
60754	1	stim157_inanimate_furniture_table_1.png	157	inanimate	furniture	table	1	0	2	stars	2	correct	0.718657710356638
60804	1	stim011_animate_aquatic_seahorse_3.png	11	animate	aquatic	seahorse	3	0	2	stars	2	correct	0.718657710356638
60854	1	stim055_animate_human_faces_3.png	55	animate	human	faces	3	0	2	stars	2	correct	0.718657710356638
60904	1	stim006_animate_aquatic_fish_2.png	6	animate	aquatic	fish	2	0	2	stars	2	correct	0.718657710356638
60954	1	stim198_inanimate_tools_wrench_2.png	198	inanimate	tools	wrench	2	0	2	stars	2	correct	0.718657710356638
61004	1	stim053_animate_human_faces_1.png	53	animate	human	faces	1	0	2	stars	2	correct	0.718657710356638
61054	1	stim014_animate_aquatic_shark_2.png	14	animate	aquatic	shark	2	0	2	stars	2	correct	0.718657710356638
61104	1	stim089_animate_mammal_kangaroo_1.png	89	animate	mammal	kangaroo	1	0	2	stars	2	correct	0.718657710356638
61154	1	stim165_inanimate_plants_cactus_1.png	165	inanimate	plants	cactus	1	0	2	stars	2	correct	0.718657710356638
61204	1	stim144_inanimate_furniture_bed_4.png	144	inanimate	furniture	bed	4	0	2	stars	2	correct	0.718657710356638
61254	1	stim152_inanimate_furniture_closet_4.png	152	inanimate	furniture	closet	4	0	2	stars	2	correct	0.718657710356638
61304	1	stim136_inanimate_fruits_pineapple_4.png	136	inanimate	fruits	pineapple	4	0	2	stars	2	correct	0.718657710356638
61354	1	stim008_animate_aquatic_fish_4.png	8	animate	aquatic	fish	4	0	2	stars	2	correct	0.718657710356638
61404	1	stim054_animate_human_faces_2.png	54	animate	human	faces	2	0	2	stars	2	correct	0.718657710356638
61454	1	stim126_inanimate_fruits_banana_2.png	126	inanimate	fruits	banana	2	0	2	stars	2	correct	0.718657710356638
61504	1	stim131_inanimate_fruits_grape_3.png	131	inanimate	fruits	grape	3	0	2	stars	2	correct	0.718657710356638
61554	1	stim127_inanimate_fruits_banana_3.png	127	inanimate	fruits	banana	3	0	2	stars	2	correct	0.718657710356638
61604	1	stim125_inanimate_fruits_banana_1.png	125	inanimate	fruits	banana	1	0	2	stars	2	correct	0.718657710356638
61654	1	stim058_animate_human_sports_2.png	58	animate	human	sports	2	0	2	stars	2	correct	0.718657710356638
61704	1	stim170_inanimate_plants_sunflower_2.png	170	inanimate	plants	sunflower	2	0	2	stars	2	correct	0.718657710356638
61754	1	stim120_inanimate_clothing_socks_4.png	120	inanimate	clothing	socks	4	0	2	stars	2	correct	0.718657710356638
61804	1	stim118_inanimate_clothing_socks_2.png	118	inanimate	clothing	socks	2	0	2	stars	2	correct	0.718657710356638
61854	1	stim182_inanimate_tools_broom_2.png	182	inanimate	tools	broom	2	0	2	stars	2	correct	0.718657710356638
61904	1	stim106_inanimate_clothing_hat_2.png	106	inanimate	clothing	hat	2	0	2	stars	2	correct	0.718657710356638
61954	1	stim069_animate_insect_butterfly_1.png	69	animate	insect	butterfly	1	0	2	stars	2	correct	0.718657710356638
62004	1	stim028_animate_bird_duck_4.png	28	animate	bird	duck	4	0	2	stars	2	correct	0.718657710356638
62054	1	stim019_animate_aquatic_shrimp_3.png	19	animate	aquatic	shrimp	3	0	2	stars	2	correct	0.718657710356638
62104	1	stim026_animate_bird_duck_2.png	26	animate	bird	duck	2	0	2	stars	2	correct	0.718657710356638
62154	1	stim091_animate_mammal_kangaroo_3.png	91	animate	mammal	kangaroo	3	0	2	stars	2	correct	0.718657710356638
62204	1	stim037_animate_bird_penguin_1.png	37	animate	bird	penguin	1	0	2	stars	2	correct	0.718657710356638
62254	1	stim007_animate_aquatic_fish_3.png	7	animate	aquatic	fish	3	0	2	stars	2	correct	0.718657710356638
62304	1	stim154_inanimate_furniture_sofa_2.png	154	inanimate	furniture	sofa	2	0	2	stars	2	correct	0.718657710356638
62354	1	stim132_inanimate_fruits_grape_4.png	132	inanimate	fruits	grape	4	0	2	stars	2	correct	0.718657710356638
62404	1	stim147_inanimate_furniture_chair_3.png	147	inanimate	furniture	chair	3	0	2	stars	2	correct	0.718657710356638
62454	1	stim005_animate_aquatic_fish_1.png	5	animate	aquatic	fish	1	0	2	stars	2	correct	0.718657710356638
62504	1	stim191_inanimate_tools_pan_3.png	191	inanimate	tools	pan	3	0	2	stars	2	correct	0.718657710356638
62554	1	stim052_animate_human_clown_4.png	52	animate	human	clown	4	0	2	stars	2	correct	0.718657710356638
62604	1	stim041_animate_human_baby_1.png	41	animate	human	baby	1	0	2	stars	2	correct	0.718657710356638
62654	1	stim111_inanimate_clothing_jeans_3.png	111	inanimate	clothing	jeans	3	0	2	stars	2	correct	0.718657710356638
62704	1	stim104_inanimate_clothing_gloves_4.png	104	inanimate	clothing	gloves	4	0	2	stars	2	correct	0.718657710356638
62754	1	stim085_animate_mammal_giraffe_1.png	85	animate	mammal	giraffe	1	0	2	stars	2	correct	0.718657710356638
62804	1	stim009_animate_aquatic_seahorse_1.png	9	animate	aquatic	seahorse	1	0	2	stars	2	correct	0.718657710356638
62854	1	stim042_animate_human_baby_2.png	42	animate	human	baby	2	0	2	stars	2	correct	0.718657710356638
62904	1	stim161_inanimate_plants_bush_1.png	161	inanimate	plants	bush	1	0	2	stars	2	correct	0.718657710356638
62954	1	stim043_animate_human_baby_3.png	43	animate	human	baby	3	0	2	stars	2	correct	0.718657710356638
63004	1	stim029_animate_bird_parrot_1.png	29	animate	bird	parrot	1	0	2	stars	2	correct	0.718657710356638
63054	1	stim017_animate_aquatic_shrimp_1.png	17	animate	aquatic	shrimp	1	0	2	stars	2	correct	0.718657710356638
63104	1	stim168_inanimate_plants_cactus_4.png	168	inanimate	plants	cactus	4	0	2	stars	2	correct	0.718657710356638
63154	1	stim050_animate_human_clown_2.png	50	animate	human	clown	2	0	2	stars	2	correct	0.718657710356638
63204	1	stim146_inanimate_furniture_chair_2.png	146	inanimate	furniture	chair	2	0	2	stars	2	correct	0.718657710356638
63254	1	stim171_inanimate_plants_sunflower_3.png	171	inanimate	plants	sunflower	3	0	2	stars	2	correct	0.718657710356638
63304	1	stim112_inanimate_clothing_jeans_4.png	112	inanimate	clothing	jeans	4	0	2	stars	2	correct	0.718657710356638
63354	1	stim065_animate_insect_bug_1.png	65	animate	insect	bug	1	0	2	stars	2	correct	0.718657710356638
63404	1	stim179_inanimate_plants_tulip_3.png	179	inanimate	plants	tulip	3	0	2	stars	2	correct	0.718657710356638
63454	1	stim035_animate_bird_peacock_3.png	35	animate	bird	peacock	3	0	2	stars	2	correct	0.718657710356638
63504	1	stim160_inanimate_furniture_table_4.png	160	inanimate	furniture	table	4	0	2	stars	2	correct	0.718657710356638
63554	1	stim185_inanimate_tools_hammer_1.png	185	inanimate	tools	hammer	1	0	2	stars	2	correct	0.718657710356638
63604	1	stim086_animate_mammal_giraffe_2.png	86	animate	mammal	giraffe	2	0	2	stars	2	correct	0.718657710356638
63654	1	stim116_inanimate_clothing_shirt_4.png	116	inanimate	clothing	shirt	4	0	2	stars	2	correct	0.718657710356638
63704	1	stim044_animate_human_baby_4.png	44	animate	human	baby	4	0	2	stars	2	correct	0.718657710356638
63754	1	stim140_inanimate_fruits_strawberry_4.png	140	inanimate	fruits	strawberry	4	0	2	stars	2	correct	0.718657710356638
63804	1	stim110_inanimate_clothing_jeans_2.png	110	inanimate	clothing	jeans	2	0	2	stars	2	correct	0.718657710356638
63854	1	stim142_inanimate_furniture_bed_2.png	142	inanimate	furniture	bed	2	0	2	stars	2	correct	0.718657710356638
63904	1	stim105_inanimate_clothing_hat_1.png	105	inanimate	clothing	hat	1	0	2	stars	2	correct	0.718657710356638
63954	1	stim211_targets_shapes_star_3.png	211	targets	shapes	star	3	1	2	stars	2	correct	0.718657710356638
64004	1	stim108_inanimate_clothing_hat_4.png	108	inanimate	clothing	hat	4	0	2	stars	2	correct	0.718657710356638
64054	1	stim082_animate_mammal_cow_2.png	82	animate	mammal	cow	2	0	2	stars	2	correct	0.718657710356638
64104	1	stim133_inanimate_fruits_pineapple_1.png	133	inanimate	fruits	pineapple	1	0	2	stars	2	correct	0.718657710356638
64154	1	stim092_animate_mammal_kangaroo_4.png	92	animate	mammal	kangaroo	4	0	2	stars	2	correct	0.718657710356638
64204	1	stim040_animate_bird_penguin_4.png	40	animate	bird	penguin	4	0	2	stars	2	correct	0.718657710356638
64254	1	stim045_animate_human_child_1.png	45	animate	human	child	1	0	2	stars	2	correct	0.718657710356638
64304	1	stim033_animate_bird_peacock_1.png	33	animate	bird	peacock	1	0	2	stars	2	correct	0.718657710356638
64354	1	stim076_animate_insect_dragonfly_4.png	76	animate	insect	dragonfly	4	0	2	stars	2	correct	0.718657710356638
64404	1	stim115_inanimate_clothing_shirt_3.png	115	inanimate	clothing	shirt	3	0	2	stars	2	correct	0.718657710356638
64454	1	stim094_animate_mammal_monkey_2.png	94	animate	mammal	monkey	2	0	2	stars	2	correct	0.718657710356638
64504	1	stim190_inanimate_tools_pan_2.png	190	inanimate	tools	pan	2	0	2	stars	2	correct	0.718657710356638
64554	1	stim181_inanimate_tools_broom_1.png	181	inanimate	tools	broom	1	0	2	stars	2	correct	0.718657710356638
64604	1	stim188_inanimate_tools_hammer_4.png	188	inanimate	tools	hammer	4	0	2	stars	2	correct	0.718657710356638
64654	1	stim153_inanimate_furniture_sofa_1.png	153	inanimate	furniture	sofa	1	0	2	stars	2	correct	0.718657710356638
64704	1	stim081_animate_mammal_cow_1.png	81	animate	mammal	cow	1	0	2	stars	2	correct	0.718657710356638
64754	1	stim117_inanimate_clothing_socks_1.png	117	inanimate	clothing	socks	1	0	2	stars	2	correct	0.718657710356638
64804	1	stim093_animate_mammal_monkey_1.png	93	animate	mammal	monkey	1	0	2	stars	2	correct	0.718657710356638
64854	1	stim047_animate_human_child_3.png	47	animate	human	child	3	0	2	stars	2	correct	0.718657710356638
64904	1	stim073_animate_insect_dragonfly_1.png	73	animate	insect	dragonfly	1	0	2	stars	2	correct	0.718657710356638
64954	1	stim135_inanimate_fruits_pineapple_3.png	135	inanimate	fruits	pineapple	3	0	2	stars	2	correct	0.718657710356638
65004	1	stim003_animate_aquatic_crab_3.png	3	animate	aquatic	crab	3	0	2	stars	2	correct	0.718657710356638
65054	1	stim022_animate_bird_chicken_2.png	22	animate	bird	chicken	2	0	2	stars	2	correct	0.718657710356638
65104	1	stim175_inanimate_plants_tree_3.png	175	inanimate	plants	tree	3	0	2	stars	2	correct	0.718657710356638
65154	1	stim049_animate_human_clown_1.png	49	animate	human	clown	1	0	2	stars	2	correct	0.718657710356638
65204	1	stim162_inanimate_plants_bush_2.png	162	inanimate	plants	bush	2	0	2	stars	2	correct	0.718657710356638
65254	1	stim196_inanimate_tools_scissors_4.png	196	inanimate	tools	scissors	4	0	2	stars	2	correct	0.718657710356638
65304	1	stim149_inanimate_furniture_closet_1.png	149	inanimate	furniture	closet	1	0	2	stars	2	correct	0.718657710356638
65354	1	stim097_animate_mammal_rhino_1.png	97	animate	mammal	rhino	1	0	2	stars	2	correct	0.718657710356638
65404	1	stim199_inanimate_tools_wrench_3.png	199	inanimate	tools	wrench	3	0	2	stars	2	correct	0.718657710356638
65454	1	stim077_animate_insect_grasshopper_1.png	77	animate	insect	grasshopper	1	0	2	stars	2	correct	0.718657710356638
65504	1	stim113_inanimate_clothing_shirt_1.png	113	inanimate	clothing	shirt	1	0	2	stars	2	correct	0.718657710356638
65554	1	stim174_inanimate_plants_tree_2.png	174	inanimate	plants	tree	2	0	2	stars	2	correct	0.718657710356638
65604	1	stim103_inanimate_clothing_gloves_3.png	103	inanimate	clothing	gloves	3	0	2	stars	2	correct	0.718657710356638
65654	1	stim128_inanimate_fruits_banana_4.png	128	inanimate	fruits	banana	4	0	2	stars	2	correct	0.718657710356638
65704	1	stim129_inanimate_fruits_grape_1.png	129	inanimate	fruits	grape	1	0	2	stars	2	correct	0.718657710356638
65754	1	stim176_inanimate_plants_tree_4.png	176	inanimate	plants	tree	4	0	2	stars	2	correct	0.718657710356638
65804	1	stim066_animate_insect_bug_2.png	66	animate	insect	bug	2	0	2	stars	2	correct	0.718657710356638
65854	1	stim172_inanimate_plants_sunflower_4.png	172	inanimate	plants	sunflower	4	0	2	stars	2	correct	0.718657710356638
65904	1	stim096_animate_mammal_monkey_4.png	96	animate	mammal	monkey	4	0	2	stars	2	correct	0.718657710356638
65954	1	stim102_inanimate_clothing_gloves_2.png	102	inanimate	clothing	gloves	2	0	2	stars	2	correct	0.718657710356638
66004	1	stim107_inanimate_clothing_hat_3.png	107	inanimate	clothing	hat	3	0	2	stars	2	correct	0.718657710356638
66054	1	stim137_inanimate_fruits_strawberry_1.png	137	inanimate	fruits	strawberry	1	0	2	stars	2	correct	0.718657710356638
66104	1	stim057_animate_human_sports_1.png	57	animate	human	sports	1	0	2	stars	2	correct	0.718657710356638
66154	1	stim193_inanimate_tools_scissors_1.png	193	inanimate	tools	scissors	1	0	2	stars	2	correct	0.718657710356638
66204	1	stim071_animate_insect_butterfly_3.png	71	animate	insect	butterfly	3	0	2	stars	2	correct	0.718657710356638
66254	1	stim159_inanimate_furniture_table_3.png	159	inanimate	furniture	table	3	0	2	stars	2	correct	0.718657710356638
66304	1	stim012_animate_aquatic_seahorse_4.png	12	animate	aquatic	seahorse	4	0	2	stars	2	correct	0.718657710356638
66354	1	stim119_inanimate_clothing_socks_3.png	119	inanimate	clothing	socks	3	0	2	stars	2	correct	0.718657710356638
66404	1	stim080_animate_insect_grasshopper_4.png	80	animate	insect	grasshopper	4	0	2	stars	2	correct	0.718657710356638
66454	1	stim018_animate_aquatic_shrimp_2.png	18	animate	aquatic	shrimp	2	0	2	stars	2	correct	0.718657710356638
66504	1	stim002_animate_aquatic_crab_2.png	2	animate	aquatic	crab	2	0	2	stars	2	correct	0.718657710356638
66554	1	stim195_inanimate_tools_scissors_3.png	195	inanimate	tools	scissors	3	0	2	stars	2	correct	0.718657710356638
66604	1	stim062_animate_insect_ant_2.png	62	animate	insect	ant	2	0	2	stars	2	correct	0.718657710356638
66654	1	stim169_inanimate_plants_sunflower_1.png	169	inanimate	plants	sunflower	1	0	2	stars	2	correct	0.718657710356638
66704	1	stim184_inanimate_tools_broom_4.png	184	inanimate	tools	broom	4	0	2	stars	2	correct	0.718657710356638
66754	1	stim013_animate_aquatic_shark_1.png	13	animate	aquatic	shark	1	0	2	stars	2	correct	0.718657710356638
66804	1	stim020_animate_aquatic_shrimp_4.png	20	animate	aquatic	shrimp	4	0	2	stars	2	correct	0.718657710356638
66854	1	stim164_inanimate_plants_bush_4.png	164	inanimate	plants	bush	4	0	2	stars	2	correct	0.718657710356638
66904	1	stim027_animate_bird_duck_3.png	27	animate	bird	duck	3	0	2	stars	2	correct	0.718657710356638
66954	1	stim078_animate_insect_grasshopper_2.png	78	animate	insect	grasshopper	2	0	2	stars	2	correct	0.718657710356638
67004	1	stim212_targets_shapes_star_4.png	212	targets	shapes	star	4	1	2	stars	2	correct	0.718657710356638
67054	1	stim166_inanimate_plants_cactus_2.png	166	inanimate	plants	cactus	2	0	2	stars	2	correct	0.718657710356638
67104	1	stim156_inanimate_furniture_sofa_4.png	156	inanimate	furniture	sofa	4	0	2	stars	2	correct	0.718657710356638
67154	1	stim187_inanimate_tools_hammer_3.png	187	inanimate	tools	hammer	3	0	2	stars	2	correct	0.718657710356638
67204	1	stim158_inanimate_furniture_table_2.png	158	inanimate	furniture	table	2	0	2	stars	2	correct	0.718657710356638
67255	1	stim070_animate_insect_butterfly_2.png	70	animate	insect	butterfly	2	0	2	stars	2	correct	0.718657710356638
67304	1	stim145_inanimate_furniture_chair_1.png	145	inanimate	furniture	chair	1	0	2	stars	2	correct	0.718657710356638
67354	1	stim155_inanimate_furniture_sofa_3.png	155	inanimate	furniture	sofa	3	0	2	stars	2	correct	0.718657710356638
67404	1	stim075_animate_insect_dragonfly_3.png	75	animate	insect	dragonfly	3	0	2	stars	2	correct	0.718657710356638
67455	1	stim163_inanimate_plants_bush_3.png	163	inanimate	plants	bush	3	0	2	stars	2	correct	0.718657710356638
67504	1	stim051_animate_human_clown_3.png	51	animate	human	clown	3	0	2	stars	2	correct	0.718657710356638
67554	1	stim173_inanimate_plants_tree_1.png	173	inanimate	plants	tree	1	0	2	stars	2	correct	0.718657710356638
67604	1	stim194_inanimate_tools_scissors_2.png	194	inanimate	tools	scissors	2	0	2	stars	2	correct	0.718657710356638
67654	1	stim059_animate_human_sports_3.png	59	animate	human	sports	3	0	2	stars	2	correct	0.718657710356638
67704	1	stim034_animate_bird_peacock_2.png	34	animate	bird	peacock	2	0	2	stars	2	correct	0.718657710356638
67754	1	stim068_animate_insect_bug_4.png	68	animate	insect	bug	4	0	2	stars	2	correct	0.718657710356638
67805	1	stim067_animate_insect_bug_3.png	67	animate	insect	bug	3	0	2	stars	2	correct	0.718657710356638
67854	1	stim084_animate_mammal_cow_4.png	84	animate	mammal	cow	4	0	2	stars	2	correct	0.718657710356638
67904	1	stim036_animate_bird_peacock_4.png	36	animate	bird	peacock	4	0	2	stars	2	correct	0.718657710356638
67954	1	stim038_animate_bird_penguin_2.png	38	animate	bird	penguin	2	0	2	stars	2	correct	0.718657710356638
68004	1	stim121_inanimate_fruits_apple_1.png	121	inanimate	fruits	apple	1	0	2	stars	2	correct	0.718657710356638
68054	1	stim183_inanimate_tools_broom_3.png	183	inanimate	tools	broom	3	0	2	stars	2	correct	0.718657710356638
68104	1	stim189_inanimate_tools_pan_1.png	189	inanimate	tools	pan	1	0	2	stars	2	correct	0.718657710356638
68154	1	stim030_animate_bird_parrot_2.png	30	animate	bird	parrot	2	0	2	stars	2	correct	0.718657710356638
68204	1	stim088_animate_mammal_giraffe_4.png	88	animate	mammal	giraffe	4	0	2	stars	2	correct	0.718657710356638
68254	1	stim001_animate_aquatic_crab_1.png	1	animate	aquatic	crab	1	0	2	stars	2	correct	0.718657710356638
68304	1	stim138_inanimate_fruits_strawberry_2.png	138	inanimate	fruits	strawberry	2	0	2	stars	2	correct	0.718657710356638
68355	1	stim025_animate_bird_duck_1.png	25	animate	bird	duck	1	0	2	stars	2	correct	0.718657710356638
68404	1	stim177_inanimate_plants_tulip_1.png	177	inanimate	plants	tulip	1	0	2	stars	2	correct	0.718657710356638
68454	1	stim095_animate_mammal_monkey_3.png	95	animate	mammal	monkey	3	0	2	stars	2	correct	0.718657710356638
68504	1	stim101_inanimate_clothing_gloves_1.png	101	inanimate	clothing	gloves	1	0	2	stars	2	correct	0.718657710356638
68554	1	stim048_animate_human_child_4.png	48	animate	human	child	4	0	2	stars	2	correct	0.718657710356638
68604	1	stim060_animate_human_sports_4.png	60	animate	human	sports	4	0	2	stars	2	correct	0.718657710356638
68655	1	stim063_animate_insect_ant_3.png	63	animate	insect	ant	3	0	2	stars	2	correct	0.718657710356638
68704	1	stim010_animate_aquatic_seahorse_2.png	10	animate	aquatic	seahorse	2	0	2	stars	2	correct	0.718657710356638
68755	1	stim150_inanimate_furniture_closet_2.png	150	inanimate	furniture	closet	2	0	2	stars	2	correct	0.718657710356638
68804	1	stim064_animate_insect_ant_4.png	64	animate	insect	ant	4	0	2	stars	2	correct	0.718657710356638
68855	1	stim139_inanimate_fruits_strawberry_3.png	139	inanimate	fruits	strawberry	3	0	2	stars	2	correct	0.718657710356638
68904	1	stim024_animate_bird_chicken_4.png	24	animate	bird	chicken	4	0	2	stars	2	correct	0.718657710356638
68955	1	stim143_inanimate_furniture_bed_3.png	143	inanimate	furniture	bed	3	0	2	stars	2	correct	0.718657710356638
69004	1	stim148_inanimate_furniture_chair_4.png	148	inanimate	furniture	chair	4	0	2	stars	2	correct	0.718657710356638
69054	1	stim016_animate_aquatic_shark_4.png	16	animate	aquatic	shark	4	0	2	stars	2	correct	0.718657710356638
69104	1	stim032_animate_bird_parrot_4.png	32	animate	bird	parrot	4	0	2	stars	2	correct	0.718657710356638
69155	1	stim074_animate_insect_dragonfly_2.png	74	animate	insect	dragonfly	2	0	2	stars	2	correct	0.718657710356638
69204	1	stim180_inanimate_plants_tulip_4.png	180	inanimate	plants	tulip	4	0	2	stars	2	correct	0.718657710356638
69254	1	stim178_inanimate_plants_tulip_2.png	178	inanimate	plants	tulip	2	0	2	stars	2	correct	0.718657710356638
69305	1	stim197_inanimate_tools_wrench_1.png	197	inanimate	tools	wrench	1	0	2	stars	2	correct	0.718657710356638
69355	1	stim079_animate_insect_grasshopper_3.png	79	animate	insect	grasshopper	3	0	2	stars	2	correct	0.718657710356638
69404	1	stim192_inanimate_tools_pan_4.png	192	inanimate	tools	pan	4	0	2	stars	2	correct	0.718657710356638
69455	1	stim200_inanimate_tools_wrench_4.png	200	inanimate	tools	wrench	4	0	2	stars	2	correct	0.718657710356638
69504	1	stim114_inanimate_clothing_shirt_2.png	114	inanimate	clothing	shirt	2	0	2	stars	2	correct	0.718657710356638
69555	1	stim122_inanimate_fruits_apple_2.png	122	inanimate	fruits	apple	2	0	2	stars	2	correct	0.718657710356638
69605	1	stim099_animate_mammal_rhino_3.png	99	animate	mammal	rhino	3	0	2	stars	2	correct	0.718657710356638
69655	1	stim098_animate_mammal_rhino_2.png	98	animate	mammal	rhino	2	0	2	stars	2	correct	0.718657710356638
69705	1	stim015_animate_aquatic_shark_3.png	15	animate	aquatic	shark	3	0	2	stars	2	correct	0.718657710356638
69755	1	stim004_animate_aquatic_crab_4.png	4	animate	aquatic	crab	4	0	2	stars	2	correct	0.718657710356638
69805	1	stim130_inanimate_fruits_grape_2.png	130	inanimate	fruits	grape	2	0	2	stars	2	correct	0.718657710356638
69855	1	stim151_inanimate_furniture_closet_3.png	151	inanimate	furniture	closet	3	0	2	stars	2	correct	0.718657710356638
69905	1	stim046_animate_human_child_2.png	46	animate	human	child	2	0	2	stars	2	correct	0.718657710356638
69955	1	stim109_inanimate_clothing_jeans_1.png	109	inanimate	clothing	jeans	1	0	2	stars	2	correct	0.718657710356638
70005	1	stim167_inanimate_plants_cactus_3.png	167	inanimate	plants	cactus	3	0	2	stars	2	correct	0.718657710356638
70055	1	stim087_animate_mammal_giraffe_3.png	87	animate	mammal	giraffe	3	0	2	stars	2	correct	0.718657710356638
70105	1	stim072_animate_insect_butterfly_4.png	72	animate	insect	butterfly	4	0	2	stars	2	correct	0.718657710356638
70155	1	stim056_animate_human_faces_4.png	56	animate	human	faces	4	0	2	stars	2	correct	0.718657710356638
70205	1	stim061_animate_insect_ant_1.png	61	animate	insect	ant	1	0	2	stars	2	correct	0.718657710356638
70254	1	stim090_animate_mammal_kangaroo_2.png	90	animate	mammal	kangaroo	2	0	2	stars	2	correct	0.718657710356638
70305	1	stim021_animate_bird_chicken_1.png	21	animate	bird	chicken	1	0	2	stars	2	correct	0.718657710356638
74288	1	stim150_inanimate_furniture_closet_2.png	150	inanimate	furniture	closet	2	0	3	stars	4	correct	0.568905872059986
74338	1	stim146_inanimate_furniture_chair_2.png	146	inanimate	furniture	chair	2	0	3	stars	4	correct	0.568905872059986
74388	1	stim121_inanimate_fruits_apple_1.png	121	inanimate	fruits	apple	1	0	3	stars	4	correct	0.568905872059986
74438	1	stim117_inanimate_clothing_socks_1.png	117	inanimate	clothing	socks	1	0	3	stars	4	correct	0.568905872059986
74488	1	stim191_inanimate_tools_pan_3.png	191	inanimate	tools	pan	3	0	3	stars	4	correct	0.568905872059986
74538	1	stim021_animate_bird_chicken_1.png	21	animate	bird	chicken	1	0	3	stars	4	correct	0.568905872059986
74588	1	stim004_animate_aquatic_crab_4.png	4	animate	aquatic	crab	4	0	3	stars	4	correct	0.568905872059986
74638	1	stim199_inanimate_tools_wrench_3.png	199	inanimate	tools	wrench	3	0	3	stars	4	correct	0.568905872059986
74688	1	stim042_animate_human_baby_2.png	42	animate	human	baby	2	0	3	stars	4	correct	0.568905872059986
74738	1	stim108_inanimate_clothing_hat_4.png	108	inanimate	clothing	hat	4	0	3	stars	4	correct	0.568905872059986
74788	1	stim131_inanimate_fruits_grape_3.png	131	inanimate	fruits	grape	3	0	3	stars	4	correct	0.568905872059986
74838	1	stim096_animate_mammal_monkey_4.png	96	animate	mammal	monkey	4	0	3	stars	4	correct	0.568905872059986
74888	1	stim123_inanimate_fruits_apple_3.png	123	inanimate	fruits	apple	3	0	3	stars	4	correct	0.568905872059986
74938	1	stim049_animate_human_clown_1.png	49	animate	human	clown	1	0	3	stars	4	correct	0.568905872059986
74988	1	stim133_inanimate_fruits_pineapple_1.png	133	inanimate	fruits	pineapple	1	0	3	stars	4	correct	0.568905872059986
75038	1	stim154_inanimate_furniture_sofa_2.png	154	inanimate	furniture	sofa	2	0	3	stars	4	correct	0.568905872059986
75088	1	stim080_animate_insect_grasshopper_4.png	80	animate	insect	grasshopper	4	0	3	stars	4	correct	0.568905872059986
75138	1	stim066_animate_insect_bug_2.png	66	animate	insect	bug	2	0	3	stars	4	correct	0.568905872059986
75188	1	stim159_inanimate_furniture_table_3.png	159	inanimate	furniture	table	3	0	3	stars	4	correct	0.568905872059986
75238	1	stim043_animate_human_baby_3.png	43	animate	human	baby	3	0	3	stars	4	correct	0.568905872059986
75288	1	stim138_inanimate_fruits_strawberry_2.png	138	inanimate	fruits	strawberry	2	0	3	stars	4	correct	0.568905872059986
75338	1	stim010_animate_aquatic_seahorse_2.png	10	animate	aquatic	seahorse	2	0	3	stars	4	correct	0.568905872059986
75388	1	stim005_animate_aquatic_fish_1.png	5	animate	aquatic	fish	1	0	3	stars	4	correct	0.568905872059986
75438	1	stim067_animate_insect_bug_3.png	67	animate	insect	bug	3	0	3	stars	4	correct	0.568905872059986
75488	1	stim122_inanimate_fruits_apple_2.png	122	inanimate	fruits	apple	2	0	3	stars	4	correct	0.568905872059986
75538	1	stim086_animate_mammal_giraffe_2.png	86	animate	mammal	giraffe	2	0	3	stars	4	correct	0.568905872059986
75588	1	stim082_animate_mammal_cow_2.png	82	animate	mammal	cow	2	0	3	stars	4	correct	0.568905872059986
75638	1	stim058_animate_human_sports_2.png	58	animate	human	sports	2	0	3	stars	4	correct	0.568905872059986
75688	1	stim014_animate_aquatic_shark_2.png	14	animate	aquatic	shark	2	0	3	stars	4	correct	0.568905872059986
75738	1	stim172_inanimate_plants_sunflower_4.png	172	inanimate	plants	sunflower	4	0	3	stars	4	correct	0.568905872059986
75788	1	stim002_animate_aquatic_crab_2.png	2	animate	aquatic	crab	2	0	3	stars	4	correct	0.568905872059986
75838	1	stim054_animate_human_faces_2.png	54	animate	human	faces	2	0	3	stars	4	correct	0.568905872059986
75888	1	stim072_animate_insect_butterfly_4.png	72	animate	insect	butterfly	4	0	3	stars	4	correct	0.568905872059986
75938	1	stim137_inanimate_fruits_strawberry_1.png	137	inanimate	fruits	strawberry	1	0	3	stars	4	correct	0.568905872059986
75988	1	stim158_inanimate_furniture_table_2.png	158	inanimate	furniture	table	2	0	3	stars	4	correct	0.568905872059986
76038	1	stim045_animate_human_child_1.png	45	animate	human	child	1	0	3	stars	4	correct	0.568905872059986
76088	1	stim155_inanimate_furniture_sofa_3.png	155	inanimate	furniture	sofa	3	0	3	stars	4	correct	0.568905872059986
76138	1	stim140_inanimate_fruits_strawberry_4.png	140	inanimate	fruits	strawberry	4	0	3	stars	4	correct	0.568905872059986
76188	1	stim132_inanimate_fruits_grape_4.png	132	inanimate	fruits	grape	4	0	3	stars	4	correct	0.568905872059986
76238	1	stim139_inanimate_fruits_strawberry_3.png	139	inanimate	fruits	strawberry	3	0	3	stars	4	correct	0.568905872059986
76288	1	stim163_inanimate_plants_bush_3.png	163	inanimate	plants	bush	3	0	3	stars	4	correct	0.568905872059986
76338	1	stim187_inanimate_tools_hammer_3.png	187	inanimate	tools	hammer	3	0	3	stars	4	correct	0.568905872059986
76388	1	stim098_animate_mammal_rhino_2.png	98	animate	mammal	rhino	2	0	3	stars	4	correct	0.568905872059986
76438	1	stim081_animate_mammal_cow_1.png	81	animate	mammal	cow	1	0	3	stars	4	correct	0.568905872059986
76488	1	stim006_animate_aquatic_fish_2.png	6	animate	aquatic	fish	2	0	3	stars	4	correct	0.568905872059986
76538	1	stim213_targets_shapes_star_1.png	213	targets	shapes	star	1	1	3	stars	4	correct	0.568905872059986
76588	1	stim012_animate_aquatic_seahorse_4.png	12	animate	aquatic	seahorse	4	0	3	stars	4	correct	0.568905872059986
76638	1	stim020_animate_aquatic_shrimp_4.png	20	animate	aquatic	shrimp	4	0	3	stars	4	correct	0.568905872059986
76688	1	stim037_animate_bird_penguin_1.png	37	animate	bird	penguin	1	0	3	stars	4	correct	0.568905872059986
76738	1	stim070_animate_insect_butterfly_2.png	70	animate	insect	butterfly	2	0	3	stars	4	correct	0.568905872059986
76788	1	stim124_inanimate_fruits_apple_4.png	124	inanimate	fruits	apple	4	0	3	stars	4	correct	0.568905872059986
76838	1	stim009_animate_aquatic_seahorse_1.png	9	animate	aquatic	seahorse	1	0	3	stars	4	correct	0.568905872059986
76888	1	stim136_inanimate_fruits_pineapple_4.png	136	inanimate	fruits	pineapple	4	0	3	stars	4	correct	0.568905872059986
76938	1	stim113_inanimate_clothing_shirt_1.png	113	inanimate	clothing	shirt	1	0	3	stars	4	correct	0.568905872059986
76988	1	stim091_animate_mammal_kangaroo_3.png	91	animate	mammal	kangaroo	3	0	3	stars	4	correct	0.568905872059986
77038	1	stim040_animate_bird_penguin_4.png	40	animate	bird	penguin	4	0	3	stars	4	correct	0.568905872059986
77088	1	stim185_inanimate_tools_hammer_1.png	185	inanimate	tools	hammer	1	0	3	stars	4	correct	0.568905872059986
77138	1	stim064_animate_insect_ant_4.png	64	animate	insect	ant	4	0	3	stars	4	correct	0.568905872059986
77188	1	stim038_animate_bird_penguin_2.png	38	animate	bird	penguin	2	0	3	stars	4	correct	0.568905872059986
77238	1	stim087_animate_mammal_giraffe_3.png	87	animate	mammal	giraffe	3	0	3	stars	4	correct	0.568905872059986
77288	1	stim016_animate_aquatic_shark_4.png	16	animate	aquatic	shark	4	0	3	stars	4	correct	0.568905872059986
77338	1	stim015_animate_aquatic_shark_3.png	15	animate	aquatic	shark	3	0	3	stars	4	correct	0.568905872059986
77388	1	stim116_inanimate_clothing_shirt_4.png	116	inanimate	clothing	shirt	4	0	3	stars	4	correct	0.568905872059986
77438	1	stim034_animate_bird_peacock_2.png	34	animate	bird	peacock	2	0	3	stars	4	correct	0.568905872059986
77488	1	stim106_inanimate_clothing_hat_2.png	106	inanimate	clothing	hat	2	0	3	stars	4	correct	0.568905872059986
77538	1	stim125_inanimate_fruits_banana_1.png	125	inanimate	fruits	banana	1	0	3	stars	4	correct	0.568905872059986
77588	1	stim126_inanimate_fruits_banana_2.png	126	inanimate	fruits	banana	2	0	3	stars	4	correct	0.568905872059986
77638	1	stim084_animate_mammal_cow_4.png	84	animate	mammal	cow	4	0	3	stars	4	correct	0.568905872059986
77688	1	stim115_inanimate_clothing_shirt_3.png	115	inanimate	clothing	shirt	3	0	3	stars	4	correct	0.568905872059986
77738	1	stim149_inanimate_furniture_closet_1.png	149	inanimate	furniture	closet	1	0	3	stars	4	correct	0.568905872059986
77788	1	stim114_inanimate_clothing_shirt_2.png	114	inanimate	clothing	shirt	2	0	3	stars	4	correct	0.568905872059986
77838	1	stim175_inanimate_plants_tree_3.png	175	inanimate	plants	tree	3	0	3	stars	4	correct	0.568905872059986
77888	1	stim135_inanimate_fruits_pineapple_3.png	135	inanimate	fruits	pineapple	3	0	3	stars	4	correct	0.568905872059986
77938	1	stim105_inanimate_clothing_hat_1.png	105	inanimate	clothing	hat	1	0	3	stars	4	correct	0.568905872059986
77988	1	stim089_animate_mammal_kangaroo_1.png	89	animate	mammal	kangaroo	1	0	3	stars	4	correct	0.568905872059986
78038	1	stim164_inanimate_plants_bush_4.png	164	inanimate	plants	bush	4	0	3	stars	4	correct	0.568905872059986
78088	1	stim128_inanimate_fruits_banana_4.png	128	inanimate	fruits	banana	4	0	3	stars	4	correct	0.568905872059986
78138	1	stim103_inanimate_clothing_gloves_3.png	103	inanimate	clothing	gloves	3	0	3	stars	4	correct	0.568905872059986
78188	1	stim102_inanimate_clothing_gloves_2.png	102	inanimate	clothing	gloves	2	0	3	stars	4	correct	0.568905872059986
78238	1	stim119_inanimate_clothing_socks_3.png	119	inanimate	clothing	socks	3	0	3	stars	4	correct	0.568905872059986
78288	1	stim129_inanimate_fruits_grape_1.png	129	inanimate	fruits	grape	1	0	3	stars	4	correct	0.568905872059986
78338	1	stim008_animate_aquatic_fish_4.png	8	animate	aquatic	fish	4	0	3	stars	4	correct	0.568905872059986
78388	1	stim188_inanimate_tools_hammer_4.png	188	inanimate	tools	hammer	4	0	3	stars	4	correct	0.568905872059986
78438	1	stim182_inanimate_tools_broom_2.png	182	inanimate	tools	broom	2	0	3	stars	4	correct	0.568905872059986
78488	1	stim153_inanimate_furniture_sofa_1.png	153	inanimate	furniture	sofa	1	0	3	stars	4	correct	0.568905872059986
78538	1	stim110_inanimate_clothing_jeans_2.png	110	inanimate	clothing	jeans	2	0	3	stars	4	correct	0.568905872059986
78588	1	stim088_animate_mammal_giraffe_4.png	88	animate	mammal	giraffe	4	0	3	stars	4	correct	0.568905872059986
78638	1	stim057_animate_human_sports_1.png	57	animate	human	sports	1	0	3	stars	4	correct	0.568905872059986
78688	1	stim013_animate_aquatic_shark_1.png	13	animate	aquatic	shark	1	0	3	stars	4	correct	0.568905872059986
78738	1	stim151_inanimate_furniture_closet_3.png	151	inanimate	furniture	closet	3	0	3	stars	4	correct	0.568905872059986
78788	1	stim210_targets_shapes_star_2.png	210	targets	shapes	star	2	1	3	stars	4	correct	0.568905872059986
78838	1	stim035_animate_bird_peacock_3.png	35	animate	bird	peacock	3	0	3	stars	4	correct	0.568905872059986
78888	1	stim048_animate_human_child_4.png	48	animate	human	child	4	0	3	stars	4	correct	0.568905872059986
78938	1	stim075_animate_insect_dragonfly_3.png	75	animate	insect	dragonfly	3	0	3	stars	4	correct	0.568905872059986
78988	1	stim178_inanimate_plants_tulip_2.png	178	inanimate	plants	tulip	2	0	3	stars	4	correct	0.568905872059986
79038	1	stim161_inanimate_plants_bush_1.png	161	inanimate	plants	bush	1	0	3	stars	4	correct	0.568905872059986
79088	1	stim060_animate_human_sports_4.png	60	animate	human	sports	4	0	3	stars	4	correct	0.568905872059986
79138	1	stim194_inanimate_tools_scissors_2.png	194	inanimate	tools	scissors	2	0	3	stars	4	correct	0.568905872059986
79188	1	stim168_inanimate_plants_cactus_4.png	168	inanimate	plants	cactus	4	0	3	stars	4	correct	0.568905872059986
79238	1	stim160_inanimate_furniture_table_4.png	160	inanimate	furniture	table	4	0	3	stars	4	correct	0.568905872059986
79288	1	stim171_inanimate_plants_sunflower_3.png	171	inanimate	plants	sunflower	3	0	3	stars	4	correct	0.568905872059986
79338	1	stim017_animate_aquatic_shrimp_1.png	17	animate	aquatic	shrimp	1	0	3	stars	4	correct	0.568905872059986
79388	1	stim069_animate_insect_butterfly_1.png	69	animate	insect	butterfly	1	0	3	stars	4	correct	0.568905872059986
79438	1	stim095_animate_mammal_monkey_3.png	95	animate	mammal	monkey	3	0	3	stars	4	correct	0.568905872059986
79488	1	stim027_animate_bird_duck_3.png	27	animate	bird	duck	3	0	3	stars	4	correct	0.568905872059986
79538	1	stim030_animate_bird_parrot_2.png	30	animate	bird	parrot	2	0	3	stars	4	correct	0.568905872059986
79588	1	stim118_inanimate_clothing_socks_2.png	118	inanimate	clothing	socks	2	0	3	stars	4	correct	0.568905872059986
79638	1	stim100_animate_mammal_rhino_4.png	100	animate	mammal	rhino	4	0	3	stars	4	correct	0.568905872059986
79688	1	stim076_animate_insect_dragonfly_4.png	76	animate	insect	dragonfly	4	0	3	stars	4	correct	0.568905872059986
79738	1	stim093_animate_mammal_monkey_1.png	93	animate	mammal	monkey	1	0	3	stars	4	correct	0.568905872059986
79788	1	stim104_inanimate_clothing_gloves_4.png	104	inanimate	clothing	gloves	4	0	3	stars	4	correct	0.568905872059986
79838	1	stim090_animate_mammal_kangaroo_2.png	90	animate	mammal	kangaroo	2	0	3	stars	4	correct	0.568905872059986
79888	1	stim031_animate_bird_parrot_3.png	31	animate	bird	parrot	3	0	3	stars	4	correct	0.568905872059986
79938	1	stim026_animate_bird_duck_2.png	26	animate	bird	duck	2	0	3	stars	4	correct	0.568905872059986
79988	1	stim078_animate_insect_grasshopper_2.png	78	animate	insect	grasshopper	2	0	3	stars	4	correct	0.568905872059986
80038	1	stim181_inanimate_tools_broom_1.png	181	inanimate	tools	broom	1	0	3	stars	4	correct	0.568905872059986
80088	1	stim059_animate_human_sports_3.png	59	animate	human	sports	3	0	3	stars	4	correct	0.568905872059986
80138	1	stim101_inanimate_clothing_gloves_1.png	101	inanimate	clothing	gloves	1	0	3	stars	4	correct	0.568905872059986
80188	1	stim083_animate_mammal_cow_3.png	83	animate	mammal	cow	3	0	3	stars	4	correct	0.568905872059986
80238	1	stim215_targets_shapes_star_3.png	215	targets	shapes	star	3	1	3	stars	4	correct	0.568905872059986
80288	1	stim073_animate_insect_dragonfly_1.png	73	animate	insect	dragonfly	1	0	3	stars	4	correct	0.568905872059986
80338	1	stim023_animate_bird_chicken_3.png	23	animate	bird	chicken	3	0	3	stars	4	correct	0.568905872059986
80388	1	stim092_animate_mammal_kangaroo_4.png	92	animate	mammal	kangaroo	4	0	3	stars	4	correct	0.568905872059986
80438	1	stim044_animate_human_baby_4.png	44	animate	human	baby	4	0	3	stars	4	correct	0.568905872059986
80488	1	stim018_animate_aquatic_shrimp_2.png	18	animate	aquatic	shrimp	2	0	3	stars	4	correct	0.568905872059986
80538	1	stim071_animate_insect_butterfly_3.png	71	animate	insect	butterfly	3	0	3	stars	4	correct	0.568905872059986
80588	1	stim063_animate_insect_ant_3.png	63	animate	insect	ant	3	0	3	stars	4	correct	0.568905872059986
80638	1	stim022_animate_bird_chicken_2.png	22	animate	bird	chicken	2	0	3	stars	4	correct	0.568905872059986
80688	1	stim152_inanimate_furniture_closet_4.png	152	inanimate	furniture	closet	4	0	3	stars	4	correct	0.568905872059986
80738	1	stim120_inanimate_clothing_socks_4.png	120	inanimate	clothing	socks	4	0	3	stars	4	correct	0.568905872059986
80788	1	stim183_inanimate_tools_broom_3.png	183	inanimate	tools	broom	3	0	3	stars	4	correct	0.568905872059986
80838	1	stim165_inanimate_plants_cactus_1.png	165	inanimate	plants	cactus	1	0	3	stars	4	correct	0.568905872059986
80888	1	stim193_inanimate_tools_scissors_1.png	193	inanimate	tools	scissors	1	0	3	stars	4	correct	0.568905872059986
80938	1	stim032_animate_bird_parrot_4.png	32	animate	bird	parrot	4	0	3	stars	4	correct	0.568905872059986
80988	1	stim097_animate_mammal_rhino_1.png	97	animate	mammal	rhino	1	0	3	stars	4	correct	0.568905872059986
81038	1	stim166_inanimate_plants_cactus_2.png	166	inanimate	plants	cactus	2	0	3	stars	4	correct	0.568905872059986
81088	1	stim134_inanimate_fruits_pineapple_2.png	134	inanimate	fruits	pineapple	2	0	3	stars	4	correct	0.568905872059986
81138	1	stim156_inanimate_furniture_sofa_4.png	156	inanimate	furniture	sofa	4	0	3	stars	4	correct	0.568905872059986
81188	1	stim145_inanimate_furniture_chair_1.png	145	inanimate	furniture	chair	1	0	3	stars	4	correct	0.568905872059986
81238	1	stim001_animate_aquatic_crab_1.png	1	animate	aquatic	crab	1	0	3	stars	4	correct	0.568905872059986
81288	1	stim180_inanimate_plants_tulip_4.png	180	inanimate	plants	tulip	4	0	3	stars	4	correct	0.568905872059986
81338	1	stim007_animate_aquatic_fish_3.png	7	animate	aquatic	fish	3	0	3	stars	4	correct	0.568905872059986
81388	1	stim061_animate_insect_ant_1.png	61	animate	insect	ant	1	0	3	stars	4	correct	0.568905872059986
81438	1	stim107_inanimate_clothing_hat_3.png	107	inanimate	clothing	hat	3	0	3	stars	4	correct	0.568905872059986
81488	1	stim039_animate_bird_penguin_3.png	39	animate	bird	penguin	3	0	3	stars	4	correct	0.568905872059986
81538	1	stim169_inanimate_plants_sunflower_1.png	169	inanimate	plants	sunflower	1	0	3	stars	4	correct	0.568905872059986
81588	1	stim077_animate_insect_grasshopper_1.png	77	animate	insect	grasshopper	1	0	3	stars	4	correct	0.568905872059986
81638	1	stim174_inanimate_plants_tree_2.png	174	inanimate	plants	tree	2	0	3	stars	4	correct	0.568905872059986
81688	1	stim167_inanimate_plants_cactus_3.png	167	inanimate	plants	cactus	3	0	3	stars	4	correct	0.568905872059986
81738	1	stim050_animate_human_clown_2.png	50	animate	human	clown	2	0	3	stars	4	correct	0.568905872059986
81788	1	stim170_inanimate_plants_sunflower_2.png	170	inanimate	plants	sunflower	2	0	3	stars	4	correct	0.568905872059986
81838	1	stim028_animate_bird_duck_4.png	28	animate	bird	duck	4	0	3	stars	4	correct	0.568905872059986
81888	1	stim109_inanimate_clothing_jeans_1.png	109	inanimate	clothing	jeans	1	0	3	stars	4	correct	0.568905872059986
81938	1	stim211_targets_shapes_star_3.png	211	targets	shapes	star	3	1	3	stars	4	correct	0.568905872059986
81988	1	stim176_inanimate_plants_tree_4.png	176	inanimate	plants	tree	4	0	3	stars	4	correct	0.568905872059986
82038	1	stim003_animate_aquatic_crab_3.png	3	animate	aquatic	crab	3	0	3	stars	4	correct	0.568905872059986
82088	1	stim195_inanimate_tools_scissors_3.png	195	inanimate	tools	scissors	3	0	3	stars	4	correct	0.568905872059986
82138	1	stim033_animate_bird_peacock_1.png	33	animate	bird	peacock	1	0	3	stars	4	correct	0.568905872059986
82188	1	stim157_inanimate_furniture_table_1.png	157	inanimate	furniture	table	1	0	3	stars	4	correct	0.568905872059986
82238	1	stim036_animate_bird_peacock_4.png	36	animate	bird	peacock	4	0	3	stars	4	correct	0.568905872059986
82288	1	stim068_animate_insect_bug_4.png	68	animate	insect	bug	4	0	3	stars	4	correct	0.568905872059986
82338	1	stim047_animate_human_child_3.png	47	animate	human	child	3	0	3	stars	4	correct	0.568905872059986
82388	1	stim184_inanimate_tools_broom_4.png	184	inanimate	tools	broom	4	0	3	stars	4	correct	0.568905872059986
82438	1	stim046_animate_human_child_2.png	46	animate	human	child	2	0	3	stars	4	correct	0.568905872059986
82488	1	stim019_animate_aquatic_shrimp_3.png	19	animate	aquatic	shrimp	3	0	3	stars	4	correct	0.568905872059986
82538	1	stim144_inanimate_furniture_bed_4.png	144	inanimate	furniture	bed	4	0	3	stars	4	correct	0.568905872059986
82588	1	stim196_inanimate_tools_scissors_4.png	196	inanimate	tools	scissors	4	0	3	stars	4	correct	0.568905872059986
82638	1	stim190_inanimate_tools_pan_2.png	190	inanimate	tools	pan	2	0	3	stars	4	correct	0.568905872059986
82688	1	stim148_inanimate_furniture_chair_4.png	148	inanimate	furniture	chair	4	0	3	stars	4	correct	0.568905872059986
82738	1	stim143_inanimate_furniture_bed_3.png	143	inanimate	furniture	bed	3	0	3	stars	4	correct	0.568905872059986
82788	1	stim062_animate_insect_ant_2.png	62	animate	insect	ant	2	0	3	stars	4	correct	0.568905872059986
82838	1	stim179_inanimate_plants_tulip_3.png	179	inanimate	plants	tulip	3	0	3	stars	4	correct	0.568905872059986
82888	1	stim162_inanimate_plants_bush_2.png	162	inanimate	plants	bush	2	0	3	stars	4	correct	0.568905872059986
82938	1	stim189_inanimate_tools_pan_1.png	189	inanimate	tools	pan	1	0	3	stars	4	correct	0.568905872059986
82988	1	stim099_animate_mammal_rhino_3.png	99	animate	mammal	rhino	3	0	3	stars	4	correct	0.568905872059986
83038	1	stim177_inanimate_plants_tulip_1.png	177	inanimate	plants	tulip	1	0	3	stars	4	correct	0.568905872059986
83088	1	stim112_inanimate_clothing_jeans_4.png	112	inanimate	clothing	jeans	4	0	3	stars	4	correct	0.568905872059986
83138	1	stim094_animate_mammal_monkey_2.png	94	animate	mammal	monkey	2	0	3	stars	4	correct	0.568905872059986
83188	1	stim025_animate_bird_duck_1.png	25	animate	bird	duck	1	0	3	stars	4	correct	0.568905872059986
83238	1	stim173_inanimate_plants_tree_1.png	173	inanimate	plants	tree	1	0	3	stars	4	correct	0.568905872059986
83288	1	stim142_inanimate_furniture_bed_2.png	142	inanimate	furniture	bed	2	0	3	stars	4	correct	0.568905872059986
83338	1	stim053_animate_human_faces_1.png	53	animate	human	faces	1	0	3	stars	4	correct	0.568905872059986
83388	1	stim065_animate_insect_bug_1.png	65	animate	insect	bug	1	0	3	stars	4	correct	0.568905872059986
83438	1	stim147_inanimate_furniture_chair_3.png	147	inanimate	furniture	chair	3	0	3	stars	4	correct	0.568905872059986
83488	1	stim074_animate_insect_dragonfly_2.png	74	animate	insect	dragonfly	2	0	3	stars	4	correct	0.568905872059986
83538	1	stim056_animate_human_faces_4.png	56	animate	human	faces	4	0	3	stars	4	correct	0.568905872059986
83588	1	stim186_inanimate_tools_hammer_2.png	186	inanimate	tools	hammer	2	0	3	stars	4	correct	0.568905872059986
83638	1	stim051_animate_human_clown_3.png	51	animate	human	clown	3	0	3	stars	4	correct	0.568905872059986
83688	1	stim055_animate_human_faces_3.png	55	animate	human	faces	3	0	3	stars	4	correct	0.568905872059986
83738	1	stim052_animate_human_clown_4.png	52	animate	human	clown	4	0	3	stars	4	correct	0.568905872059986
83788	1	stim041_animate_human_baby_1.png	41	animate	human	baby	1	0	3	stars	4	correct	0.568905872059986
83838	1	stim079_animate_insect_grasshopper_3.png	79	animate	insect	grasshopper	3	0	3	stars	4	correct	0.568905872059986
83888	1	stim127_inanimate_fruits_banana_3.png	127	inanimate	fruits	banana	3	0	3	stars	4	correct	0.568905872059986
83938	1	stim197_inanimate_tools_wrench_1.png	197	inanimate	tools	wrench	1	0	3	stars	4	correct	0.568905872059986
83988	1	stim024_animate_bird_chicken_4.png	24	animate	bird	chicken	4	0	3	stars	4	correct	0.568905872059986
84038	1	stim200_inanimate_tools_wrench_4.png	200	inanimate	tools	wrench	4	0	3	stars	4	correct	0.568905872059986
84088	1	stim130_inanimate_fruits_grape_2.png	130	inanimate	fruits	grape	2	0	3	stars	4	correct	0.568905872059986
84138	1	stim141_inanimate_furniture_bed_1.png	141	inanimate	furniture	bed	1	0	3	stars	4	correct	0.568905872059986
84188	1	stim198_inanimate_tools_wrench_2.png	198	inanimate	tools	wrench	2	0	3	stars	4	correct	0.568905872059986
84238	1	stim085_animate_mammal_giraffe_1.png	85	animate	mammal	giraffe	1	0	3	stars	4	correct	0.568905872059986
84288	1	stim111_inanimate_clothing_jeans_3.png	111	inanimate	clothing	jeans	3	0	3	stars	4	correct	0.568905872059986
84338	1	stim011_animate_aquatic_seahorse_3.png	11	animate	aquatic	seahorse	3	0	3	stars	4	correct	0.568905872059986
84388	1	stim029_animate_bird_parrot_1.png	29	animate	bird	parrot	1	0	3	stars	4	correct	0.568905872059986
84438	1	stim192_inanimate_tools_pan_4.png	192	inanimate	tools	pan	4	0	3	stars	4	correct	0.568905872059986
91455	1	stim153_inanimate_furniture_sofa_1.png	153	inanimate	furniture	sofa	1	0	4	stars	2	incorrect	0.791468073381111
91505	1	stim037_animate_bird_penguin_1.png	37	animate	bird	penguin	1	0	4	stars	2	incorrect	0.791468073381111
91555	1	stim110_inanimate_clothing_jeans_2.png	110	inanimate	clothing	jeans	2	0	4	stars	2	incorrect	0.791468073381111
91605	1	stim085_animate_mammal_giraffe_1.png	85	animate	mammal	giraffe	1	0	4	stars	2	incorrect	0.791468073381111
91655	1	stim199_inanimate_tools_wrench_3.png	199	inanimate	tools	wrench	3	0	4	stars	2	incorrect	0.791468073381111
91705	1	stim087_animate_mammal_giraffe_3.png	87	animate	mammal	giraffe	3	0	4	stars	2	incorrect	0.791468073381111
91755	1	stim150_inanimate_furniture_closet_2.png	150	inanimate	furniture	closet	2	0	4	stars	2	incorrect	0.791468073381111
91805	1	stim063_animate_insect_ant_3.png	63	animate	insect	ant	3	0	4	stars	2	incorrect	0.791468073381111
91855	1	stim062_animate_insect_ant_2.png	62	animate	insect	ant	2	0	4	stars	2	incorrect	0.791468073381111
91905	1	stim194_inanimate_tools_scissors_2.png	194	inanimate	tools	scissors	2	0	4	stars	2	incorrect	0.791468073381111
91955	1	stim113_inanimate_clothing_shirt_1.png	113	inanimate	clothing	shirt	1	0	4	stars	2	incorrect	0.791468073381111
92005	1	stim010_animate_aquatic_seahorse_2.png	10	animate	aquatic	seahorse	2	0	4	stars	2	incorrect	0.791468073381111
92055	1	stim144_inanimate_furniture_bed_4.png	144	inanimate	furniture	bed	4	0	4	stars	2	incorrect	0.791468073381111
92105	1	stim140_inanimate_fruits_strawberry_4.png	140	inanimate	fruits	strawberry	4	0	4	stars	2	incorrect	0.791468073381111
92155	1	stim151_inanimate_furniture_closet_3.png	151	inanimate	furniture	closet	3	0	4	stars	2	incorrect	0.791468073381111
92205	1	stim054_animate_human_faces_2.png	54	animate	human	faces	2	0	4	stars	2	incorrect	0.791468073381111
92255	1	stim058_animate_human_sports_2.png	58	animate	human	sports	2	0	4	stars	2	incorrect	0.791468073381111
92305	1	stim103_inanimate_clothing_gloves_3.png	103	inanimate	clothing	gloves	3	0	4	stars	2	incorrect	0.791468073381111
92355	1	stim164_inanimate_plants_bush_4.png	164	inanimate	plants	bush	4	0	4	stars	2	incorrect	0.791468073381111
92405	1	stim188_inanimate_tools_hammer_4.png	188	inanimate	tools	hammer	4	0	4	stars	2	incorrect	0.791468073381111
92455	1	stim170_inanimate_plants_sunflower_2.png	170	inanimate	plants	sunflower	2	0	4	stars	2	incorrect	0.791468073381111
92505	1	stim059_animate_human_sports_3.png	59	animate	human	sports	3	0	4	stars	2	incorrect	0.791468073381111
92555	1	stim115_inanimate_clothing_shirt_3.png	115	inanimate	clothing	shirt	3	0	4	stars	2	incorrect	0.791468073381111
92605	1	stim045_animate_human_child_1.png	45	animate	human	child	1	0	4	stars	2	incorrect	0.791468073381111
92655	1	stim046_animate_human_child_2.png	46	animate	human	child	2	0	4	stars	2	incorrect	0.791468073381111
92705	1	stim129_inanimate_fruits_grape_1.png	129	inanimate	fruits	grape	1	0	4	stars	2	incorrect	0.791468073381111
92755	1	stim014_animate_aquatic_shark_2.png	14	animate	aquatic	shark	2	0	4	stars	2	incorrect	0.791468073381111
92805	1	stim193_inanimate_tools_scissors_1.png	193	inanimate	tools	scissors	1	0	4	stars	2	incorrect	0.791468073381111
92855	1	stim136_inanimate_fruits_pineapple_4.png	136	inanimate	fruits	pineapple	4	0	4	stars	2	incorrect	0.791468073381111
92905	1	stim040_animate_bird_penguin_4.png	40	animate	bird	penguin	4	0	4	stars	2	incorrect	0.791468073381111
92955	1	stim112_inanimate_clothing_jeans_4.png	112	inanimate	clothing	jeans	4	0	4	stars	2	incorrect	0.791468073381111
93005	1	stim048_animate_human_child_4.png	48	animate	human	child	4	0	4	stars	2	incorrect	0.791468073381111
93055	1	stim181_inanimate_tools_broom_1.png	181	inanimate	tools	broom	1	0	4	stars	2	incorrect	0.791468073381111
93105	1	stim189_inanimate_tools_pan_1.png	189	inanimate	tools	pan	1	0	4	stars	2	incorrect	0.791468073381111
93155	1	stim198_inanimate_tools_wrench_2.png	198	inanimate	tools	wrench	2	0	4	stars	2	incorrect	0.791468073381111
93205	1	stim071_animate_insect_butterfly_3.png	71	animate	insect	butterfly	3	0	4	stars	2	incorrect	0.791468073381111
93255	1	stim116_inanimate_clothing_shirt_4.png	116	inanimate	clothing	shirt	4	0	4	stars	2	incorrect	0.791468073381111
93305	1	stim174_inanimate_plants_tree_2.png	174	inanimate	plants	tree	2	0	4	stars	2	incorrect	0.791468073381111
93355	1	stim022_animate_bird_chicken_2.png	22	animate	bird	chicken	2	0	4	stars	2	incorrect	0.791468073381111
93405	1	stim127_inanimate_fruits_banana_3.png	127	inanimate	fruits	banana	3	0	4	stars	2	incorrect	0.791468073381111
93455	1	stim024_animate_bird_chicken_4.png	24	animate	bird	chicken	4	0	4	stars	2	incorrect	0.791468073381111
93505	1	stim069_animate_insect_butterfly_1.png	69	animate	insect	butterfly	1	0	4	stars	2	incorrect	0.791468073381111
93555	1	stim102_inanimate_clothing_gloves_2.png	102	inanimate	clothing	gloves	2	0	4	stars	2	incorrect	0.791468073381111
93605	1	stim057_animate_human_sports_1.png	57	animate	human	sports	1	0	4	stars	2	incorrect	0.791468073381111
93655	1	stim084_animate_mammal_cow_4.png	84	animate	mammal	cow	4	0	4	stars	2	incorrect	0.791468073381111
93705	1	stim072_animate_insect_butterfly_4.png	72	animate	insect	butterfly	4	0	4	stars	2	incorrect	0.791468073381111
93755	1	stim011_animate_aquatic_seahorse_3.png	11	animate	aquatic	seahorse	3	0	4	stars	2	incorrect	0.791468073381111
93805	1	stim132_inanimate_fruits_grape_4.png	132	inanimate	fruits	grape	4	0	4	stars	2	incorrect	0.791468073381111
93855	1	stim196_inanimate_tools_scissors_4.png	196	inanimate	tools	scissors	4	0	4	stars	2	incorrect	0.791468073381111
93905	1	stim105_inanimate_clothing_hat_1.png	105	inanimate	clothing	hat	1	0	4	stars	2	incorrect	0.791468073381111
93955	1	stim070_animate_insect_butterfly_2.png	70	animate	insect	butterfly	2	0	4	stars	2	incorrect	0.791468073381111
94005	1	stim155_inanimate_furniture_sofa_3.png	155	inanimate	furniture	sofa	3	0	4	stars	2	incorrect	0.791468073381111
94055	1	stim169_inanimate_plants_sunflower_1.png	169	inanimate	plants	sunflower	1	0	4	stars	2	incorrect	0.791468073381111
94105	1	stim152_inanimate_furniture_closet_4.png	152	inanimate	furniture	closet	4	0	4	stars	2	incorrect	0.791468073381111
94155	1	stim013_animate_aquatic_shark_1.png	13	animate	aquatic	shark	1	0	4	stars	2	incorrect	0.791468073381111
94205	1	stim055_animate_human_faces_3.png	55	animate	human	faces	3	0	4	stars	2	incorrect	0.791468073381111
94255	1	stim002_animate_aquatic_crab_2.png	2	animate	aquatic	crab	2	0	4	stars	2	incorrect	0.791468073381111
94305	1	stim183_inanimate_tools_broom_3.png	183	inanimate	tools	broom	3	0	4	stars	2	incorrect	0.791468073381111
94355	1	stim121_inanimate_fruits_apple_1.png	121	inanimate	fruits	apple	1	0	4	stars	2	incorrect	0.791468073381111
94405	1	stim039_animate_bird_penguin_3.png	39	animate	bird	penguin	3	0	4	stars	2	incorrect	0.791468073381111
94455	1	stim009_animate_aquatic_seahorse_1.png	9	animate	aquatic	seahorse	1	0	4	stars	2	incorrect	0.791468073381111
94505	1	stim029_animate_bird_parrot_1.png	29	animate	bird	parrot	1	0	4	stars	2	incorrect	0.791468073381111
94555	1	stim006_animate_aquatic_fish_2.png	6	animate	aquatic	fish	2	0	4	stars	2	incorrect	0.791468073381111
94605	1	stim076_animate_insect_dragonfly_4.png	76	animate	insect	dragonfly	4	0	4	stars	2	incorrect	0.791468073381111
94655	1	stim028_animate_bird_duck_4.png	28	animate	bird	duck	4	0	4	stars	2	incorrect	0.791468073381111
94705	1	stim008_animate_aquatic_fish_4.png	8	animate	aquatic	fish	4	0	4	stars	2	incorrect	0.791468073381111
94755	1	stim184_inanimate_tools_broom_4.png	184	inanimate	tools	broom	4	0	4	stars	2	incorrect	0.791468073381111
94805	1	stim109_inanimate_clothing_jeans_1.png	109	inanimate	clothing	jeans	1	0	4	stars	2	incorrect	0.791468073381111
94855	1	stim147_inanimate_furniture_chair_3.png	147	inanimate	furniture	chair	3	0	4	stars	2	incorrect	0.791468073381111
94905	1	stim106_inanimate_clothing_hat_2.png	106	inanimate	clothing	hat	2	0	4	stars	2	incorrect	0.791468073381111
94955	1	stim200_inanimate_tools_wrench_4.png	200	inanimate	tools	wrench	4	0	4	stars	2	incorrect	0.791468073381111
95005	1	stim142_inanimate_furniture_bed_2.png	142	inanimate	furniture	bed	2	0	4	stars	2	incorrect	0.791468073381111
95055	1	stim101_inanimate_clothing_gloves_1.png	101	inanimate	clothing	gloves	1	0	4	stars	2	incorrect	0.791468073381111
95105	1	stim099_animate_mammal_rhino_3.png	99	animate	mammal	rhino	3	0	4	stars	2	incorrect	0.791468073381111
95155	1	stim061_animate_insect_ant_1.png	61	animate	insect	ant	1	0	4	stars	2	incorrect	0.791468073381111
95205	1	stim159_inanimate_furniture_table_3.png	159	inanimate	furniture	table	3	0	4	stars	2	incorrect	0.791468073381111
95255	1	stim128_inanimate_fruits_banana_4.png	128	inanimate	fruits	banana	4	0	4	stars	2	incorrect	0.791468073381111
95305	1	stim018_animate_aquatic_shrimp_2.png	18	animate	aquatic	shrimp	2	0	4	stars	2	incorrect	0.791468073381111
95355	1	stim007_animate_aquatic_fish_3.png	7	animate	aquatic	fish	3	0	4	stars	2	incorrect	0.791468073381111
95405	1	stim182_inanimate_tools_broom_2.png	182	inanimate	tools	broom	2	0	4	stars	2	incorrect	0.791468073381111
95455	1	stim047_animate_human_child_3.png	47	animate	human	child	3	0	4	stars	2	incorrect	0.791468073381111
95505	1	stim052_animate_human_clown_4.png	52	animate	human	clown	4	0	4	stars	2	incorrect	0.791468073381111
95555	1	stim066_animate_insect_bug_2.png	66	animate	insect	bug	2	0	4	stars	2	incorrect	0.791468073381111
95605	1	stim125_inanimate_fruits_banana_1.png	125	inanimate	fruits	banana	1	0	4	stars	2	incorrect	0.791468073381111
95655	1	stim077_animate_insect_grasshopper_1.png	77	animate	insect	grasshopper	1	0	4	stars	2	incorrect	0.791468073381111
95705	1	stim148_inanimate_furniture_chair_4.png	148	inanimate	furniture	chair	4	0	4	stars	2	incorrect	0.791468073381111
95755	1	stim030_animate_bird_parrot_2.png	30	animate	bird	parrot	2	0	4	stars	2	incorrect	0.791468073381111
95805	1	stim175_inanimate_plants_tree_3.png	175	inanimate	plants	tree	3	0	4	stars	2	incorrect	0.791468073381111
95855	1	stim001_animate_aquatic_crab_1.png	1	animate	aquatic	crab	1	0	4	stars	2	incorrect	0.791468073381111
95905	1	stim187_inanimate_tools_hammer_3.png	187	inanimate	tools	hammer	3	0	4	stars	2	incorrect	0.791468073381111
95955	1	stim143_inanimate_furniture_bed_3.png	143	inanimate	furniture	bed	3	0	4	stars	2	incorrect	0.791468073381111
96005	1	stim050_animate_human_clown_2.png	50	animate	human	clown	2	0	4	stars	2	incorrect	0.791468073381111
96055	1	stim091_animate_mammal_kangaroo_3.png	91	animate	mammal	kangaroo	3	0	4	stars	2	incorrect	0.791468073381111
96105	1	stim157_inanimate_furniture_table_1.png	157	inanimate	furniture	table	1	0	4	stars	2	incorrect	0.791468073381111
96155	1	stim098_animate_mammal_rhino_2.png	98	animate	mammal	rhino	2	0	4	stars	2	incorrect	0.791468073381111
96205	1	stim004_animate_aquatic_crab_4.png	4	animate	aquatic	crab	4	0	4	stars	2	incorrect	0.791468073381111
96255	1	stim161_inanimate_plants_bush_1.png	161	inanimate	plants	bush	1	0	4	stars	2	incorrect	0.791468073381111
96305	1	stim119_inanimate_clothing_socks_3.png	119	inanimate	clothing	socks	3	0	4	stars	2	incorrect	0.791468073381111
96355	1	stim172_inanimate_plants_sunflower_4.png	172	inanimate	plants	sunflower	4	0	4	stars	2	incorrect	0.791468073381111
96405	1	stim088_animate_mammal_giraffe_4.png	88	animate	mammal	giraffe	4	0	4	stars	2	incorrect	0.791468073381111
96455	1	stim081_animate_mammal_cow_1.png	81	animate	mammal	cow	1	0	4	stars	2	incorrect	0.791468073381111
96505	1	stim118_inanimate_clothing_socks_2.png	118	inanimate	clothing	socks	2	0	4	stars	2	incorrect	0.791468073381111
96555	1	stim158_inanimate_furniture_table_2.png	158	inanimate	furniture	table	2	0	4	stars	2	incorrect	0.791468073381111
96605	1	stim176_inanimate_plants_tree_4.png	176	inanimate	plants	tree	4	0	4	stars	2	incorrect	0.791468073381111
96655	1	stim179_inanimate_plants_tulip_3.png	179	inanimate	plants	tulip	3	0	4	stars	2	incorrect	0.791468073381111
96705	1	stim211_targets_shapes_star_3.png	211	targets	shapes	star	3	1	4	stars	2	incorrect	0.791468073381111
96755	1	stim051_animate_human_clown_3.png	51	animate	human	clown	3	0	4	stars	2	incorrect	0.791468073381111
96805	1	stim083_animate_mammal_cow_3.png	83	animate	mammal	cow	3	0	4	stars	2	incorrect	0.791468073381111
96855	1	stim149_inanimate_furniture_closet_1.png	149	inanimate	furniture	closet	1	0	4	stars	2	incorrect	0.791468073381111
96905	1	stim138_inanimate_fruits_strawberry_2.png	138	inanimate	fruits	strawberry	2	0	4	stars	2	incorrect	0.791468073381111
96955	1	stim146_inanimate_furniture_chair_2.png	146	inanimate	furniture	chair	2	0	4	stars	2	incorrect	0.791468073381111
97005	1	stim097_animate_mammal_rhino_1.png	97	animate	mammal	rhino	1	0	4	stars	2	incorrect	0.791468073381111
97055	1	stim031_animate_bird_parrot_3.png	31	animate	bird	parrot	3	0	4	stars	2	incorrect	0.791468073381111
97105	1	stim065_animate_insect_bug_1.png	65	animate	insect	bug	1	0	4	stars	2	incorrect	0.791468073381111
97155	1	stim080_animate_insect_grasshopper_4.png	80	animate	insect	grasshopper	4	0	4	stars	2	incorrect	0.791468073381111
97205	1	stim032_animate_bird_parrot_4.png	32	animate	bird	parrot	4	0	4	stars	2	incorrect	0.791468073381111
97255	1	stim019_animate_aquatic_shrimp_3.png	19	animate	aquatic	shrimp	3	0	4	stars	2	incorrect	0.791468073381111
97305	1	stim074_animate_insect_dragonfly_2.png	74	animate	insect	dragonfly	2	0	4	stars	2	incorrect	0.791468073381111
97355	1	stim191_inanimate_tools_pan_3.png	191	inanimate	tools	pan	3	0	4	stars	2	incorrect	0.791468073381111
97405	1	stim173_inanimate_plants_tree_1.png	173	inanimate	plants	tree	1	0	4	stars	2	incorrect	0.791468073381111
97455	1	stim005_animate_aquatic_fish_1.png	5	animate	aquatic	fish	1	0	4	stars	2	incorrect	0.791468073381111
97505	1	stim012_animate_aquatic_seahorse_4.png	12	animate	aquatic	seahorse	4	0	4	stars	2	incorrect	0.791468073381111
97555	1	stim177_inanimate_plants_tulip_1.png	177	inanimate	plants	tulip	1	0	4	stars	2	incorrect	0.791468073381111
97605	1	stim126_inanimate_fruits_banana_2.png	126	inanimate	fruits	banana	2	0	4	stars	2	incorrect	0.791468073381111
97655	1	stim044_animate_human_baby_4.png	44	animate	human	baby	4	0	4	stars	2	incorrect	0.791468073381111
97705	1	stim025_animate_bird_duck_1.png	25	animate	bird	duck	1	0	4	stars	2	incorrect	0.791468073381111
97755	1	stim079_animate_insect_grasshopper_3.png	79	animate	insect	grasshopper	3	0	4	stars	2	incorrect	0.791468073381111
97805	1	stim145_inanimate_furniture_chair_1.png	145	inanimate	furniture	chair	1	0	4	stars	2	incorrect	0.791468073381111
97855	1	stim093_animate_mammal_monkey_1.png	93	animate	mammal	monkey	1	0	4	stars	2	incorrect	0.791468073381111
97905	1	stim060_animate_human_sports_4.png	60	animate	human	sports	4	0	4	stars	2	incorrect	0.791468073381111
97955	1	stim139_inanimate_fruits_strawberry_3.png	139	inanimate	fruits	strawberry	3	0	4	stars	2	incorrect	0.791468073381111
98005	1	stim053_animate_human_faces_1.png	53	animate	human	faces	1	0	4	stars	2	incorrect	0.791468073381111
98055	1	stim195_inanimate_tools_scissors_3.png	195	inanimate	tools	scissors	3	0	4	stars	2	incorrect	0.791468073381111
98105	1	stim068_animate_insect_bug_4.png	68	animate	insect	bug	4	0	4	stars	2	incorrect	0.791468073381111
98155	1	stim089_animate_mammal_kangaroo_1.png	89	animate	mammal	kangaroo	1	0	4	stars	2	incorrect	0.791468073381111
98205	1	stim056_animate_human_faces_4.png	56	animate	human	faces	4	0	4	stars	2	incorrect	0.791468073381111
98255	1	stim033_animate_bird_peacock_1.png	33	animate	bird	peacock	1	0	4	stars	2	incorrect	0.791468073381111
98305	1	stim038_animate_bird_penguin_2.png	38	animate	bird	penguin	2	0	4	stars	2	incorrect	0.791468073381111
98355	1	stim021_animate_bird_chicken_1.png	21	animate	bird	chicken	1	0	4	stars	2	incorrect	0.791468073381111
98405	1	stim130_inanimate_fruits_grape_2.png	130	inanimate	fruits	grape	2	0	4	stars	2	incorrect	0.791468073381111
98455	1	stim023_animate_bird_chicken_3.png	23	animate	bird	chicken	3	0	4	stars	2	incorrect	0.791468073381111
98505	1	stim094_animate_mammal_monkey_2.png	94	animate	mammal	monkey	2	0	4	stars	2	incorrect	0.791468073381111
98555	1	stim049_animate_human_clown_1.png	49	animate	human	clown	1	0	4	stars	2	incorrect	0.791468073381111
98605	1	stim036_animate_bird_peacock_4.png	36	animate	bird	peacock	4	0	4	stars	2	incorrect	0.791468073381111
98655	1	stim067_animate_insect_bug_3.png	67	animate	insect	bug	3	0	4	stars	2	incorrect	0.791468073381111
98705	1	stim186_inanimate_tools_hammer_2.png	186	inanimate	tools	hammer	2	0	4	stars	2	incorrect	0.791468073381111
98755	1	stim035_animate_bird_peacock_3.png	35	animate	bird	peacock	3	0	4	stars	2	incorrect	0.791468073381111
98805	1	stim092_animate_mammal_kangaroo_4.png	92	animate	mammal	kangaroo	4	0	4	stars	2	incorrect	0.791468073381111
98855	1	stim124_inanimate_fruits_apple_4.png	124	inanimate	fruits	apple	4	0	4	stars	2	incorrect	0.791468073381111
98905	1	stim096_animate_mammal_monkey_4.png	96	animate	mammal	monkey	4	0	4	stars	2	incorrect	0.791468073381111
98955	1	stim180_inanimate_plants_tulip_4.png	180	inanimate	plants	tulip	4	0	4	stars	2	incorrect	0.791468073381111
99005	1	stim017_animate_aquatic_shrimp_1.png	17	animate	aquatic	shrimp	1	0	4	stars	2	incorrect	0.791468073381111
99055	1	stim020_animate_aquatic_shrimp_4.png	20	animate	aquatic	shrimp	4	0	4	stars	2	incorrect	0.791468073381111
99105	1	stim064_animate_insect_ant_4.png	64	animate	insect	ant	4	0	4	stars	2	incorrect	0.791468073381111
99155	1	stim156_inanimate_furniture_sofa_4.png	156	inanimate	furniture	sofa	4	0	4	stars	2	incorrect	0.791468073381111
99205	1	stim141_inanimate_furniture_bed_1.png	141	inanimate	furniture	bed	1	0	4	stars	2	incorrect	0.791468073381111
99255	1	stim165_inanimate_plants_cactus_1.png	165	inanimate	plants	cactus	1	0	4	stars	2	incorrect	0.791468073381111
99305	1	stim095_animate_mammal_monkey_3.png	95	animate	mammal	monkey	3	0	4	stars	2	incorrect	0.791468073381111
99355	1	stim108_inanimate_clothing_hat_4.png	108	inanimate	clothing	hat	4	0	4	stars	2	incorrect	0.791468073381111
99405	1	stim042_animate_human_baby_2.png	42	animate	human	baby	2	0	4	stars	2	incorrect	0.791468073381111
99455	1	stim003_animate_aquatic_crab_3.png	3	animate	aquatic	crab	3	0	4	stars	2	incorrect	0.791468073381111
99505	1	stim111_inanimate_clothing_jeans_3.png	111	inanimate	clothing	jeans	3	0	4	stars	2	incorrect	0.791468073381111
99555	1	stim075_animate_insect_dragonfly_3.png	75	animate	insect	dragonfly	3	0	4	stars	2	incorrect	0.791468073381111
99605	1	stim041_animate_human_baby_1.png	41	animate	human	baby	1	0	4	stars	2	incorrect	0.791468073381111
99655	1	stim131_inanimate_fruits_grape_3.png	131	inanimate	fruits	grape	3	0	4	stars	2	incorrect	0.791468073381111
99705	1	stim016_animate_aquatic_shark_4.png	16	animate	aquatic	shark	4	0	4	stars	2	incorrect	0.791468073381111
99755	1	stim015_animate_aquatic_shark_3.png	15	animate	aquatic	shark	3	0	4	stars	2	incorrect	0.791468073381111
99805	1	stim154_inanimate_furniture_sofa_2.png	154	inanimate	furniture	sofa	2	0	4	stars	2	incorrect	0.791468073381111
99855	1	stim178_inanimate_plants_tulip_2.png	178	inanimate	plants	tulip	2	0	4	stars	2	incorrect	0.791468073381111
99905	1	stim197_inanimate_tools_wrench_1.png	197	inanimate	tools	wrench	1	0	4	stars	2	incorrect	0.791468073381111
99955	1	stim104_inanimate_clothing_gloves_4.png	104	inanimate	clothing	gloves	4	0	4	stars	2	incorrect	0.791468073381111
100005	1	stim190_inanimate_tools_pan_2.png	190	inanimate	tools	pan	2	0	4	stars	2	incorrect	0.791468073381111
100055	1	stim107_inanimate_clothing_hat_3.png	107	inanimate	clothing	hat	3	0	4	stars	2	incorrect	0.791468073381111
100105	1	stim114_inanimate_clothing_shirt_2.png	114	inanimate	clothing	shirt	2	0	4	stars	2	incorrect	0.791468073381111
100155	1	stim167_inanimate_plants_cactus_3.png	167	inanimate	plants	cactus	3	0	4	stars	2	incorrect	0.791468073381111
100205	1	stim171_inanimate_plants_sunflower_3.png	171	inanimate	plants	sunflower	3	0	4	stars	2	incorrect	0.791468073381111
100255	1	stim078_animate_insect_grasshopper_2.png	78	animate	insect	grasshopper	2	0	4	stars	2	incorrect	0.791468073381111
100305	1	stim043_animate_human_baby_3.png	43	animate	human	baby	3	0	4	stars	2	incorrect	0.791468073381111
100355	1	stim027_animate_bird_duck_3.png	27	animate	bird	duck	3	0	4	stars	2	incorrect	0.791468073381111
100405	1	stim034_animate_bird_peacock_2.png	34	animate	bird	peacock	2	0	4	stars	2	incorrect	0.791468073381111
100455	1	stim026_animate_bird_duck_2.png	26	animate	bird	duck	2	0	4	stars	2	incorrect	0.791468073381111
100505	1	stim100_animate_mammal_rhino_4.png	100	animate	mammal	rhino	4	0	4	stars	2	incorrect	0.791468073381111
100555	1	stim137_inanimate_fruits_strawberry_1.png	137	inanimate	fruits	strawberry	1	0	4	stars	2	incorrect	0.791468073381111
100605	1	stim117_inanimate_clothing_socks_1.png	117	inanimate	clothing	socks	1	0	4	stars	2	incorrect	0.791468073381111
100655	1	stim082_animate_mammal_cow_2.png	82	animate	mammal	cow	2	0	4	stars	2	incorrect	0.791468073381111
100705	1	stim090_animate_mammal_kangaroo_2.png	90	animate	mammal	kangaroo	2	0	4	stars	2	incorrect	0.791468073381111
100755	1	stim192_inanimate_tools_pan_4.png	192	inanimate	tools	pan	4	0	4	stars	2	incorrect	0.791468073381111
100805	1	stim122_inanimate_fruits_apple_2.png	122	inanimate	fruits	apple	2	0	4	stars	2	incorrect	0.791468073381111
100855	1	stim133_inanimate_fruits_pineapple_1.png	133	inanimate	fruits	pineapple	1	0	4	stars	2	incorrect	0.791468073381111
100905	1	stim123_inanimate_fruits_apple_3.png	123	inanimate	fruits	apple	3	0	4	stars	2	incorrect	0.791468073381111
100955	1	stim168_inanimate_plants_cactus_4.png	168	inanimate	plants	cactus	4	0	4	stars	2	incorrect	0.791468073381111
101005	1	stim135_inanimate_fruits_pineapple_3.png	135	inanimate	fruits	pineapple	3	0	4	stars	2	incorrect	0.791468073381111
101055	1	stim163_inanimate_plants_bush_3.png	163	inanimate	plants	bush	3	0	4	stars	2	incorrect	0.791468073381111
101105	1	stim120_inanimate_clothing_socks_4.png	120	inanimate	clothing	socks	4	0	4	stars	2	incorrect	0.791468073381111
101155	1	stim162_inanimate_plants_bush_2.png	162	inanimate	plants	bush	2	0	4	stars	2	incorrect	0.791468073381111
101205	1	stim160_inanimate_furniture_table_4.png	160	inanimate	furniture	table	4	0	4	stars	2	incorrect	0.791468073381111
101255	1	stim073_animate_insect_dragonfly_1.png	73	animate	insect	dragonfly	1	0	4	stars	2	incorrect	0.791468073381111
101305	1	stim086_animate_mammal_giraffe_2.png	86	animate	mammal	giraffe	2	0	4	stars	2	incorrect	0.791468073381111
101355	1	stim134_inanimate_fruits_pineapple_2.png	134	inanimate	fruits	pineapple	2	0	4	stars	2	incorrect	0.791468073381111
101405	1	stim166_inanimate_plants_cactus_2.png	166	inanimate	plants	cactus	2	0	4	stars	2	incorrect	0.791468073381111
101455	1	stim185_inanimate_tools_hammer_1.png	185	inanimate	tools	hammer	1	0	4	stars	2	incorrect	0.791468073381111
106722	1	stim163_inanimate_plants_bush_3.png	163	inanimate	plants	bush	3	0	5	boats	1	incorrect	0.627474333392456
106772	1	stim116_inanimate_clothing_shirt_4.png	116	inanimate	clothing	shirt	4	0	5	boats	1	incorrect	0.627474333392456
106822	1	stim137_inanimate_fruits_strawberry_1.png	137	inanimate	fruits	strawberry	1	0	5	boats	1	incorrect	0.627474333392456
106872	1	stim055_animate_human_faces_3.png	55	animate	human	faces	3	0	5	boats	1	incorrect	0.627474333392456
106922	1	stim019_animate_aquatic_shrimp_3.png	19	animate	aquatic	shrimp	3	0	5	boats	1	incorrect	0.627474333392456
106972	1	stim095_animate_mammal_monkey_3.png	95	animate	mammal	monkey	3	0	5	boats	1	incorrect	0.627474333392456
107022	1	stim200_inanimate_tools_wrench_4.png	200	inanimate	tools	wrench	4	0	5	boats	1	incorrect	0.627474333392456
107072	1	stim150_inanimate_furniture_closet_2.png	150	inanimate	furniture	closet	2	0	5	boats	1	incorrect	0.627474333392456
107122	1	stim026_animate_bird_duck_2.png	26	animate	bird	duck	2	0	5	boats	1	incorrect	0.627474333392456
107172	1	stim107_inanimate_clothing_hat_3.png	107	inanimate	clothing	hat	3	0	5	boats	1	incorrect	0.627474333392456
107222	1	stim110_inanimate_clothing_jeans_2.png	110	inanimate	clothing	jeans	2	0	5	boats	1	incorrect	0.627474333392456
107272	1	stim197_inanimate_tools_wrench_1.png	197	inanimate	tools	wrench	1	0	5	boats	1	incorrect	0.627474333392456
107322	1	stim105_inanimate_clothing_hat_1.png	105	inanimate	clothing	hat	1	0	5	boats	1	incorrect	0.627474333392456
107372	1	stim117_inanimate_clothing_socks_1.png	117	inanimate	clothing	socks	1	0	5	boats	1	incorrect	0.627474333392456
107422	1	stim127_inanimate_fruits_banana_3.png	127	inanimate	fruits	banana	3	0	5	boats	1	incorrect	0.627474333392456
107472	1	stim071_animate_insect_butterfly_3.png	71	animate	insect	butterfly	3	0	5	boats	1	incorrect	0.627474333392456
107522	1	stim148_inanimate_furniture_chair_4.png	148	inanimate	furniture	chair	4	0	5	boats	1	incorrect	0.627474333392456
107572	1	stim111_inanimate_clothing_jeans_3.png	111	inanimate	clothing	jeans	3	0	5	boats	1	incorrect	0.627474333392456
107622	1	stim178_inanimate_plants_tulip_2.png	178	inanimate	plants	tulip	2	0	5	boats	1	incorrect	0.627474333392456
107672	1	stim015_animate_aquatic_shark_3.png	15	animate	aquatic	shark	3	0	5	boats	1	incorrect	0.627474333392456
107722	1	stim018_animate_aquatic_shrimp_2.png	18	animate	aquatic	shrimp	2	0	5	boats	1	incorrect	0.627474333392456
107772	1	stim196_inanimate_tools_scissors_4.png	196	inanimate	tools	scissors	4	0	5	boats	1	incorrect	0.627474333392456
107822	1	stim123_inanimate_fruits_apple_3.png	123	inanimate	fruits	apple	3	0	5	boats	1	incorrect	0.627474333392456
107872	1	stim088_animate_mammal_giraffe_4.png	88	animate	mammal	giraffe	4	0	5	boats	1	incorrect	0.627474333392456
107922	1	stim035_animate_bird_peacock_3.png	35	animate	bird	peacock	3	0	5	boats	1	incorrect	0.627474333392456
107972	1	stim138_inanimate_fruits_strawberry_2.png	138	inanimate	fruits	strawberry	2	0	5	boats	1	incorrect	0.627474333392456
108022	1	stim164_inanimate_plants_bush_4.png	164	inanimate	plants	bush	4	0	5	boats	1	incorrect	0.627474333392456
108072	1	stim195_inanimate_tools_scissors_3.png	195	inanimate	tools	scissors	3	0	5	boats	1	incorrect	0.627474333392456
108122	1	stim041_animate_human_baby_1.png	41	animate	human	baby	1	0	5	boats	1	incorrect	0.627474333392456
108172	1	stim159_inanimate_furniture_table_3.png	159	inanimate	furniture	table	3	0	5	boats	1	incorrect	0.627474333392456
108222	1	stim183_inanimate_tools_broom_3.png	183	inanimate	tools	broom	3	0	5	boats	1	incorrect	0.627474333392456
108272	1	stim169_inanimate_plants_sunflower_1.png	169	inanimate	plants	sunflower	1	0	5	boats	1	incorrect	0.627474333392456
108322	1	stim022_animate_bird_chicken_2.png	22	animate	bird	chicken	2	0	5	boats	1	incorrect	0.627474333392456
108372	1	stim098_animate_mammal_rhino_2.png	98	animate	mammal	rhino	2	0	5	boats	1	incorrect	0.627474333392456
108422	1	stim045_animate_human_child_1.png	45	animate	human	child	1	0	5	boats	1	incorrect	0.627474333392456
108472	1	stim089_animate_mammal_kangaroo_1.png	89	animate	mammal	kangaroo	1	0	5	boats	1	incorrect	0.627474333392456
108522	1	stim012_animate_aquatic_seahorse_4.png	12	animate	aquatic	seahorse	4	0	5	boats	1	incorrect	0.627474333392456
108572	1	stim054_animate_human_faces_2.png	54	animate	human	faces	2	0	5	boats	1	incorrect	0.627474333392456
108622	1	stim185_inanimate_tools_hammer_1.png	185	inanimate	tools	hammer	1	0	5	boats	1	incorrect	0.627474333392456
108672	1	stim161_inanimate_plants_bush_1.png	161	inanimate	plants	bush	1	0	5	boats	1	incorrect	0.627474333392456
108722	1	stim093_animate_mammal_monkey_1.png	93	animate	mammal	monkey	1	0	5	boats	1	incorrect	0.627474333392456
108772	1	stim103_inanimate_clothing_gloves_3.png	103	inanimate	clothing	gloves	3	0	5	boats	1	incorrect	0.627474333392456
108822	1	stim102_inanimate_clothing_gloves_2.png	102	inanimate	clothing	gloves	2	0	5	boats	1	incorrect	0.627474333392456
108872	1	stim121_inanimate_fruits_apple_1.png	121	inanimate	fruits	apple	1	0	5	boats	1	incorrect	0.627474333392456
108922	1	stim131_inanimate_fruits_grape_3.png	131	inanimate	fruits	grape	3	0	5	boats	1	incorrect	0.627474333392456
108972	1	stim077_animate_insect_grasshopper_1.png	77	animate	insect	grasshopper	1	0	5	boats	1	incorrect	0.627474333392456
109022	1	stim003_animate_aquatic_crab_3.png	3	animate	aquatic	crab	3	0	5	boats	1	incorrect	0.627474333392456
109072	1	stim038_animate_bird_penguin_2.png	38	animate	bird	penguin	2	0	5	boats	1	incorrect	0.627474333392456
109122	1	stim070_animate_insect_butterfly_2.png	70	animate	insect	butterfly	2	0	5	boats	1	incorrect	0.627474333392456
109172	1	stim115_inanimate_clothing_shirt_3.png	115	inanimate	clothing	shirt	3	0	5	boats	1	incorrect	0.627474333392456
109222	1	stim048_animate_human_child_4.png	48	animate	human	child	4	0	5	boats	1	incorrect	0.627474333392456
109272	1	stim011_animate_aquatic_seahorse_3.png	11	animate	aquatic	seahorse	3	0	5	boats	1	incorrect	0.627474333392456
109322	1	stim108_inanimate_clothing_hat_4.png	108	inanimate	clothing	hat	4	0	5	boats	1	incorrect	0.627474333392456
109372	1	stim192_inanimate_tools_pan_4.png	192	inanimate	tools	pan	4	0	5	boats	1	incorrect	0.627474333392456
109422	1	stim186_inanimate_tools_hammer_2.png	186	inanimate	tools	hammer	2	0	5	boats	1	incorrect	0.627474333392456
109472	1	stim118_inanimate_clothing_socks_2.png	118	inanimate	clothing	socks	2	0	5	boats	1	incorrect	0.627474333392456
109522	1	stim066_animate_insect_bug_2.png	66	animate	insect	bug	2	0	5	boats	1	incorrect	0.627474333392456
109572	1	stim073_animate_insect_dragonfly_1.png	73	animate	insect	dragonfly	1	0	5	boats	1	incorrect	0.627474333392456
109622	1	stim090_animate_mammal_kangaroo_2.png	90	animate	mammal	kangaroo	2	0	5	boats	1	incorrect	0.627474333392456
109672	1	stim199_inanimate_tools_wrench_3.png	199	inanimate	tools	wrench	3	0	5	boats	1	incorrect	0.627474333392456
109722	1	stim135_inanimate_fruits_pineapple_3.png	135	inanimate	fruits	pineapple	3	0	5	boats	1	incorrect	0.627474333392456
109772	1	stim092_animate_mammal_kangaroo_4.png	92	animate	mammal	kangaroo	4	0	5	boats	1	incorrect	0.627474333392456
109822	1	stim173_inanimate_plants_tree_1.png	173	inanimate	plants	tree	1	0	5	boats	1	incorrect	0.627474333392456
109872	1	stim156_inanimate_furniture_sofa_4.png	156	inanimate	furniture	sofa	4	0	5	boats	1	incorrect	0.627474333392456
109922	1	stim032_animate_bird_parrot_4.png	32	animate	bird	parrot	4	0	5	boats	1	incorrect	0.627474333392456
109972	1	stim001_animate_aquatic_crab_1.png	1	animate	aquatic	crab	1	0	5	boats	1	incorrect	0.627474333392456
110022	1	stim033_animate_bird_peacock_1.png	33	animate	bird	peacock	1	0	5	boats	1	incorrect	0.627474333392456
110072	1	stim087_animate_mammal_giraffe_3.png	87	animate	mammal	giraffe	3	0	5	boats	1	incorrect	0.627474333392456
110122	1	stim079_animate_insect_grasshopper_3.png	79	animate	insect	grasshopper	3	0	5	boats	1	incorrect	0.627474333392456
110172	1	stim083_animate_mammal_cow_3.png	83	animate	mammal	cow	3	0	5	boats	1	incorrect	0.627474333392456
110222	1	stim134_inanimate_fruits_pineapple_2.png	134	inanimate	fruits	pineapple	2	0	5	boats	1	incorrect	0.627474333392456
110272	1	stim170_inanimate_plants_sunflower_2.png	170	inanimate	plants	sunflower	2	0	5	boats	1	incorrect	0.627474333392456
110322	1	stim114_inanimate_clothing_shirt_2.png	114	inanimate	clothing	shirt	2	0	5	boats	1	incorrect	0.627474333392456
110372	1	stim007_animate_aquatic_fish_3.png	7	animate	aquatic	fish	3	0	5	boats	1	incorrect	0.627474333392456
110422	1	stim155_inanimate_furniture_sofa_3.png	155	inanimate	furniture	sofa	3	0	5	boats	1	incorrect	0.627474333392456
110472	1	stim154_inanimate_furniture_sofa_2.png	154	inanimate	furniture	sofa	2	0	5	boats	1	incorrect	0.627474333392456
110522	1	stim202_targets_object_boats_2.png	202	targets	object	boats	2	1	5	boats	1	incorrect	0.627474333392456
110572	1	stim056_animate_human_faces_4.png	56	animate	human	faces	4	0	5	boats	1	incorrect	0.627474333392456
110622	1	stim052_animate_human_clown_4.png	52	animate	human	clown	4	0	5	boats	1	incorrect	0.627474333392456
