onset	duration	stimulusname	stimulusnumber	levelA	levelB	levelC	withinexemplarnumber	istarget	trialnumber	condition	response	correct	rt
31938	1	stim050_animate_human_clown_2.png	50	animate	human	clown	2	0	1	stars	4	correct	0.776168525218964
31988	1	stim051_animate_human_clown_3.png	51	animate	human	clown	3	0	1	stars	4	correct	0.776168525218964
32038	1	stim163_inanimate_plants_bush_3.png	163	inanimate	plants	bush	3	0	1	stars	4	correct	0.776168525218964
32088	1	stim059_animate_human_sports_3.png	59	animate	human	sports	3	0	1	stars	4	correct	0.776168525218964
32138	1	stim140_inanimate_fruits_strawberry_4.png	140	inanimate	fruits	strawberry	4	0	1	stars	4	correct	0.776168525218964
32188	1	stim035_animate_bird_peacock_3.png	35	animate	bird	peacock	3	0	1	stars	4	correct	0.776168525218964
32237	1	stim081_animate_mammal_cow_1.png	81	animate	mammal	cow	1	0	1	stars	4	correct	0.776168525218964
32287	1	stim090_animate_mammal_kangaroo_2.png	90	animate	mammal	kangaroo	2	0	1	stars	4	correct	0.776168525218964
32337	1	stim118_inanimate_clothing_socks_2.png	118	inanimate	clothing	socks	2	0	1	stars	4	correct	0.776168525218964
32387	1	stim012_animate_aquatic_seahorse_4.png	12	animate	aquatic	seahorse	4	0	1	stars	4	correct	0.776168525218964
32437	1	stim083_animate_mammal_cow_3.png	83	animate	mammal	cow	3	0	1	stars	4	correct	0.776168525218964
32488	1	stim165_inanimate_plants_cactus_1.png	165	inanimate	plants	cactus	1	0	1	stars	4	correct	0.776168525218964
32538	1	stim074_animate_insect_dragonfly_2.png	74	animate	insect	dragonfly	2	0	1	stars	4	correct	0.776168525218964
32587	1	stim036_animate_bird_peacock_4.png	36	animate	bird	peacock	4	0	1	stars	4	correct	0.776168525218964
32637	1	stim031_animate_bird_parrot_3.png	31	animate	bird	parrot	3	0	1	stars	4	correct	0.776168525218964
32688	1	stim174_inanimate_plants_tree_2.png	174	inanimate	plants	tree	2	0	1	stars	4	correct	0.776168525218964
32738	1	stim057_animate_human_sports_1.png	57	animate	human	sports	1	0	1	stars	4	correct	0.776168525218964
32787	1	stim164_inanimate_plants_bush_4.png	164	inanimate	plants	bush	4	0	1	stars	4	correct	0.776168525218964
32838	1	stim040_animate_bird_penguin_4.png	40	animate	bird	penguin	4	0	1	stars	4	correct	0.776168525218964
32888	1	stim187_inanimate_tools_hammer_3.png	187	inanimate	tools	hammer	3	0	1	stars	4	correct	0.776168525218964
32937	1	stim189_inanimate_tools_pan_1.png	189	inanimate	tools	pan	1	0	1	stars	4	correct	0.776168525218964
32987	1	stim041_animate_human_baby_1.png	41	animate	human	baby	1	0	1	stars	4	correct	0.776168525218964
33037	1	stim056_animate_human_faces_4.png	56	animate	human	faces	4	0	1	stars	4	correct	0.776168525218964
33088	1	stim010_animate_aquatic_seahorse_2.png	10	animate	aquatic	seahorse	2	0	1	stars	4	correct	0.776168525218964
33138	1	stim022_animate_bird_chicken_2.png	22	animate	bird	chicken	2	0	1	stars	4	correct	0.776168525218964
33188	1	stim026_animate_bird_duck_2.png	26	animate	bird	duck	2	0	1	stars	4	correct	0.776168525218964
33238	1	stim114_inanimate_clothing_shirt_2.png	114	inanimate	clothing	shirt	2	0	1	stars	4	correct	0.776168525218964
33288	1	stim197_inanimate_tools_wrench_1.png	197	inanimate	tools	wrench	1	0	1	stars	4	correct	0.776168525218964
33338	1	stim049_animate_human_clown_1.png	49	animate	human	clown	1	0	1	stars	4	correct	0.776168525218964
33388	1	stim134_inanimate_fruits_pineapple_2.png	134	inanimate	fruits	pineapple	2	0	1	stars	4	correct	0.776168525218964
33438	1	stim130_inanimate_fruits_grape_2.png	130	inanimate	fruits	grape	2	0	1	stars	4	correct	0.776168525218964
33488	1	stim158_inanimate_furniture_table_2.png	158	inanimate	furniture	table	2	0	1	stars	4	correct	0.776168525218964
33538	1	stim062_animate_insect_ant_2.png	62	animate	insect	ant	2	0	1	stars	4	correct	0.776168525218964
33588	1	stim048_animate_human_child_4.png	48	animate	human	child	4	0	1	stars	4	correct	0.776168525218964
33638	1	stim027_animate_bird_duck_3.png	27	animate	bird	duck	3	0	1	stars	4	correct	0.776168525218964
33688	1	stim188_inanimate_tools_hammer_4.png	188	inanimate	tools	hammer	4	0	1	stars	4	correct	0.776168525218964
33738	1	stim169_inanimate_plants_sunflower_1.png	169	inanimate	plants	sunflower	1	0	1	stars	4	correct	0.776168525218964
33788	1	stim069_animate_insect_butterfly_1.png	69	animate	insect	butterfly	1	0	1	stars	4	correct	0.776168525218964
33838	1	stim032_animate_bird_parrot_4.png	32	animate	bird	parrot	4	0	1	stars	4	correct	0.776168525218964
33888	1	stim136_inanimate_fruits_pineapple_4.png	136	inanimate	fruits	pineapple	4	0	1	stars	4	correct	0.776168525218964
33938	1	stim107_inanimate_clothing_hat_3.png	107	inanimate	clothing	hat	3	0	1	stars	4	correct	0.776168525218964
33988	1	stim133_inanimate_fruits_pineapple_1.png	133	inanimate	fruits	pineapple	1	0	1	stars	4	correct	0.776168525218964
34038	1	stim135_inanimate_fruits_pineapple_3.png	135	inanimate	fruits	pineapple	3	0	1	stars	4	correct	0.776168525218964
34088	1	stim028_animate_bird_duck_4.png	28	animate	bird	duck	4	0	1	stars	4	correct	0.776168525218964
34138	1	stim029_animate_bird_parrot_1.png	29	animate	bird	parrot	1	0	1	stars	4	correct	0.776168525218964
34188	1	stim108_inanimate_clothing_hat_4.png	108	inanimate	clothing	hat	4	0	1	stars	4	correct	0.776168525218964
34238	1	stim153_inanimate_furniture_sofa_1.png	153	inanimate	furniture	sofa	1	0	1	stars	4	correct	0.776168525218964
34288	1	stim091_animate_mammal_kangaroo_3.png	91	animate	mammal	kangaroo	3	0	1	stars	4	correct	0.776168525218964
34338	1	stim141_inanimate_furniture_bed_1.png	141	inanimate	furniture	bed	1	0	1	stars	4	correct	0.776168525218964
34388	1	stim137_inanimate_fruits_strawberry_1.png	137	inanimate	fruits	strawberry	1	0	1	stars	4	correct	0.776168525218964
34438	1	stim147_inanimate_furniture_chair_3.png	147	inanimate	furniture	chair	3	0	1	stars	4	correct	0.776168525218964
34488	1	stim167_inanimate_plants_cactus_3.png	167	inanimate	plants	cactus	3	0	1	stars	4	correct	0.776168525218964
34538	1	stim084_animate_mammal_cow_4.png	84	animate	mammal	cow	4	0	1	stars	4	correct	0.776168525218964
34588	1	stim149_inanimate_furniture_closet_1.png	149	inanimate	furniture	closet	1	0	1	stars	4	correct	0.776168525218964
34638	1	stim200_inanimate_tools_wrench_4.png	200	inanimate	tools	wrench	4	0	1	stars	4	correct	0.776168525218964
34688	1	stim151_inanimate_furniture_closet_3.png	151	inanimate	furniture	closet	3	0	1	stars	4	correct	0.776168525218964
34738	1	stim186_inanimate_tools_hammer_2.png	186	inanimate	tools	hammer	2	0	1	stars	4	correct	0.776168525218964
34788	1	stim033_animate_bird_peacock_1.png	33	animate	bird	peacock	1	0	1	stars	4	correct	0.776168525218964
34838	1	stim024_animate_bird_chicken_4.png	24	animate	bird	chicken	4	0	1	stars	4	correct	0.776168525218964
34888	1	stim123_inanimate_fruits_apple_3.png	123	inanimate	fruits	apple	3	0	1	stars	4	correct	0.776168525218964
34938	1	stim213_targets_shapes_star_1.png	213	targets	shapes	star	1	1	1	stars	4	correct	0.776168525218964
34988	1	stim079_animate_insect_grasshopper_3.png	79	animate	insect	grasshopper	3	0	1	stars	4	correct	0.776168525218964
35038	1	stim037_animate_bird_penguin_1.png	37	animate	bird	penguin	1	0	1	stars	4	correct	0.776168525218964
35088	1	stim170_inanimate_plants_sunflower_2.png	170	inanimate	plants	sunflower	2	0	1	stars	4	correct	0.776168525218964
35138	1	stim139_inanimate_fruits_strawberry_3.png	139	inanimate	fruits	strawberry	3	0	1	stars	4	correct	0.776168525218964
35188	1	stim172_inanimate_plants_sunflower_4.png	172	inanimate	plants	sunflower	4	0	1	stars	4	correct	0.776168525218964
35238	1	stim195_inanimate_tools_scissors_3.png	195	inanimate	tools	scissors	3	0	1	stars	4	correct	0.776168525218964
35288	1	stim156_inanimate_furniture_sofa_4.png	156	inanimate	furniture	sofa	4	0	1	stars	4	correct	0.776168525218964
35338	1	stim196_inanimate_tools_scissors_4.png	196	inanimate	tools	scissors	4	0	1	stars	4	correct	0.776168525218964
35388	1	stim142_inanimate_furniture_bed_2.png	142	inanimate	furniture	bed	2	0	1	stars	4	correct	0.776168525218964
35438	1	stim017_animate_aquatic_shrimp_1.png	17	animate	aquatic	shrimp	1	0	1	stars	4	correct	0.776168525218964
35488	1	stim122_inanimate_fruits_apple_2.png	122	inanimate	fruits	apple	2	0	1	stars	4	correct	0.776168525218964
35538	1	stim183_inanimate_tools_broom_3.png	183	inanimate	tools	broom	3	0	1	stars	4	correct	0.776168525218964
35588	1	stim101_inanimate_clothing_gloves_1.png	101	inanimate	clothing	gloves	1	0	1	stars	4	correct	0.776168525218964
35638	1	stim179_inanimate_plants_tulip_3.png	179	inanimate	plants	tulip	3	0	1	stars	4	correct	0.776168525218964
35688	1	stim038_animate_bird_penguin_2.png	38	animate	bird	penguin	2	0	1	stars	4	correct	0.776168525218964
35738	1	stim131_inanimate_fruits_grape_3.png	131	inanimate	fruits	grape	3	0	1	stars	4	correct	0.776168525218964
35788	1	stim173_inanimate_plants_tree_1.png	173	inanimate	plants	tree	1	0	1	stars	4	correct	0.776168525218964
35838	1	stim086_animate_mammal_giraffe_2.png	86	animate	mammal	giraffe	2	0	1	stars	4	correct	0.776168525218964
35888	1	stim067_animate_insect_bug_3.png	67	animate	insect	bug	3	0	1	stars	4	correct	0.776168525218964
35938	1	stim102_inanimate_clothing_gloves_2.png	102	inanimate	clothing	gloves	2	0	1	stars	4	correct	0.776168525218964
35988	1	stim184_inanimate_tools_broom_4.png	184	inanimate	tools	broom	4	0	1	stars	4	correct	0.776168525218964
36038	1	stim182_inanimate_tools_broom_2.png	182	inanimate	tools	broom	2	0	1	stars	4	correct	0.776168525218964
36088	1	stim113_inanimate_clothing_shirt_1.png	113	inanimate	clothing	shirt	1	0	1	stars	4	correct	0.776168525218964
36138	1	stim181_inanimate_tools_broom_1.png	181	inanimate	tools	broom	1	0	1	stars	4	correct	0.776168525218964
36188	1	stim099_animate_mammal_rhino_3.png	99	animate	mammal	rhino	3	0	1	stars	4	correct	0.776168525218964
36238	1	stim216_targets_shapes_star_4.png	216	targets	shapes	star	4	1	1	stars	4	correct	0.776168525218964
36288	1	stim150_inanimate_furniture_closet_2.png	150	inanimate	furniture	closet	2	0	1	stars	4	correct	0.776168525218964
36338	1	stim094_animate_mammal_monkey_2.png	94	animate	mammal	monkey	2	0	1	stars	4	correct	0.776168525218964
36388	1	stim004_animate_aquatic_crab_4.png	4	animate	aquatic	crab	4	0	1	stars	4	correct	0.776168525218964
36438	1	stim144_inanimate_furniture_bed_4.png	144	inanimate	furniture	bed	4	0	1	stars	4	correct	0.776168525218964
36488	1	stim178_inanimate_plants_tulip_2.png	178	inanimate	plants	tulip	2	0	1	stars	4	correct	0.776168525218964
36538	1	stim191_inanimate_tools_pan_3.png	191	inanimate	tools	pan	3	0	1	stars	4	correct	0.776168525218964
36588	1	stim199_inanimate_tools_wrench_3.png	199	inanimate	tools	wrench	3	0	1	stars	4	correct	0.776168525218964
36638	1	stim132_inanimate_fruits_grape_4.png	132	inanimate	fruits	grape	4	0	1	stars	4	correct	0.776168525218964
36688	1	stim088_animate_mammal_giraffe_4.png	88	animate	mammal	giraffe	4	0	1	stars	4	correct	0.776168525218964
36738	1	stim193_inanimate_tools_scissors_1.png	193	inanimate	tools	scissors	1	0	1	stars	4	correct	0.776168525218964
36788	1	stim092_animate_mammal_kangaroo_4.png	92	animate	mammal	kangaroo	4	0	1	stars	4	correct	0.776168525218964
36838	1	stim075_animate_insect_dragonfly_3.png	75	animate	insect	dragonfly	3	0	1	stars	4	correct	0.776168525218964
36888	1	stim008_animate_aquatic_fish_4.png	8	animate	aquatic	fish	4	0	1	stars	4	correct	0.776168525218964
36938	1	stim044_animate_human_baby_4.png	44	animate	human	baby	4	0	1	stars	4	correct	0.776168525218964
36988	1	stim055_animate_human_faces_3.png	55	animate	human	faces	3	0	1	stars	4	correct	0.776168525218964
37038	1	stim176_inanimate_plants_tree_4.png	176	inanimate	plants	tree	4	0	1	stars	4	correct	0.776168525218964
37088	1	stim002_animate_aquatic_crab_2.png	2	animate	aquatic	crab	2	0	1	stars	4	correct	0.776168525218964
37138	1	stim124_inanimate_fruits_apple_4.png	124	inanimate	fruits	apple	4	0	1	stars	4	correct	0.776168525218964
37188	1	stim115_inanimate_clothing_shirt_3.png	115	inanimate	clothing	shirt	3	0	1	stars	4	correct	0.776168525218964
37238	1	stim011_animate_aquatic_seahorse_3.png	11	animate	aquatic	seahorse	3	0	1	stars	4	correct	0.776168525218964
37288	1	stim138_inanimate_fruits_strawberry_2.png	138	inanimate	fruits	strawberry	2	0	1	stars	4	correct	0.776168525218964
37338	1	stim014_animate_aquatic_shark_2.png	14	animate	aquatic	shark	2	0	1	stars	4	correct	0.776168525218964
37388	1	stim146_inanimate_furniture_chair_2.png	146	inanimate	furniture	chair	2	0	1	stars	4	correct	0.776168525218964
37438	1	stim106_inanimate_clothing_hat_2.png	106	inanimate	clothing	hat	2	0	1	stars	4	correct	0.776168525218964
37488	1	stim125_inanimate_fruits_banana_1.png	125	inanimate	fruits	banana	1	0	1	stars	4	correct	0.776168525218964
37538	1	stim068_animate_insect_bug_4.png	68	animate	insect	bug	4	0	1	stars	4	correct	0.776168525218964
37588	1	stim015_animate_aquatic_shark_3.png	15	animate	aquatic	shark	3	0	1	stars	4	correct	0.776168525218964
37638	1	stim093_animate_mammal_monkey_1.png	93	animate	mammal	monkey	1	0	1	stars	4	correct	0.776168525218964
37688	1	stim145_inanimate_furniture_chair_1.png	145	inanimate	furniture	chair	1	0	1	stars	4	correct	0.776168525218964
37738	1	stim023_animate_bird_chicken_3.png	23	animate	bird	chicken	3	0	1	stars	4	correct	0.776168525218964
37788	1	stim045_animate_human_child_1.png	45	animate	human	child	1	0	1	stars	4	correct	0.776168525218964
37838	1	stim171_inanimate_plants_sunflower_3.png	171	inanimate	plants	sunflower	3	0	1	stars	4	correct	0.776168525218964
37888	1	stim168_inanimate_plants_cactus_4.png	168	inanimate	plants	cactus	4	0	1	stars	4	correct	0.776168525218964
37938	1	stim104_inanimate_clothing_gloves_4.png	104	inanimate	clothing	gloves	4	0	1	stars	4	correct	0.776168525218964
37988	1	stim072_animate_insect_butterfly_4.png	72	animate	insect	butterfly	4	0	1	stars	4	correct	0.776168525218964
38038	1	stim021_animate_bird_chicken_1.png	21	animate	bird	chicken	1	0	1	stars	4	correct	0.776168525218964
38088	1	stim214_targets_shapes_star_2.png	214	targets	shapes	star	2	1	1	stars	4	correct	0.776168525218964
38138	1	stim046_animate_human_child_2.png	46	animate	human	child	2	0	1	stars	4	correct	0.776168525218964
38188	1	stim095_animate_mammal_monkey_3.png	95	animate	mammal	monkey	3	0	1	stars	4	correct	0.776168525218964
38238	1	stim077_animate_insect_grasshopper_1.png	77	animate	insect	grasshopper	1	0	1	stars	4	correct	0.776168525218964
38288	1	stim082_animate_mammal_cow_2.png	82	animate	mammal	cow	2	0	1	stars	4	correct	0.776168525218964
38338	1	stim003_animate_aquatic_crab_3.png	3	animate	aquatic	crab	3	0	1	stars	4	correct	0.776168525218964
38388	1	stim127_inanimate_fruits_banana_3.png	127	inanimate	fruits	banana	3	0	1	stars	4	correct	0.776168525218964
38438	1	stim155_inanimate_furniture_sofa_3.png	155	inanimate	furniture	sofa	3	0	1	stars	4	correct	0.776168525218964
38488	1	stim080_animate_insect_grasshopper_4.png	80	animate	insect	grasshopper	4	0	1	stars	4	correct	0.776168525218964
38538	1	stim058_animate_human_sports_2.png	58	animate	human	sports	2	0	1	stars	4	correct	0.776168525218964
38588	1	stim121_inanimate_fruits_apple_1.png	121	inanimate	fruits	apple	1	0	1	stars	4	correct	0.776168525218964
38638	1	stim129_inanimate_fruits_grape_1.png	129	inanimate	fruits	grape	1	0	1	stars	4	correct	0.776168525218964
38688	1	stim089_animate_mammal_kangaroo_1.png	89	animate	mammal	kangaroo	1	0	1	stars	4	correct	0.776168525218964
38738	1	stim194_inanimate_tools_scissors_2.png	194	inanimate	tools	scissors	2	0	1	stars	4	correct	0.776168525218964
38788	1	stim103_inanimate_clothing_gloves_3.png	103	inanimate	clothing	gloves	3	0	1	stars	4	correct	0.776168525218964
38838	1	stim148_inanimate_furniture_chair_4.png	148	inanimate	furniture	chair	4	0	1	stars	4	correct	0.776168525218964
38888	1	stim076_animate_insect_dragonfly_4.png	76	animate	insect	dragonfly	4	0	1	stars	4	correct	0.776168525218964
38938	1	stim119_inanimate_clothing_socks_3.png	119	inanimate	clothing	socks	3	0	1	stars	4	correct	0.776168525218964
38988	1	stim128_inanimate_fruits_banana_4.png	128	inanimate	fruits	banana	4	0	1	stars	4	correct	0.776168525218964
39038	1	stim210_targets_shapes_star_2.png	210	targets	shapes	star	2	1	1	stars	4	correct	0.776168525218964
39088	1	stim061_animate_insect_ant_1.png	61	animate	insect	ant	1	0	1	stars	4	correct	0.776168525218964
39138	1	stim161_inanimate_plants_bush_1.png	161	inanimate	plants	bush	1	0	1	stars	4	correct	0.776168525218964
39188	1	stim013_animate_aquatic_shark_1.png	13	animate	aquatic	shark	1	0	1	stars	4	correct	0.776168525218964
39238	1	stim005_animate_aquatic_fish_1.png	5	animate	aquatic	fish	1	0	1	stars	4	correct	0.776168525218964
39288	1	stim052_animate_human_clown_4.png	52	animate	human	clown	4	0	1	stars	4	correct	0.776168525218964
39338	1	stim180_inanimate_plants_tulip_4.png	180	inanimate	plants	tulip	4	0	1	stars	4	correct	0.776168525218964
39388	1	stim111_inanimate_clothing_jeans_3.png	111	inanimate	clothing	jeans	3	0	1	stars	4	correct	0.776168525218964
39438	1	stim007_animate_aquatic_fish_3.png	7	animate	aquatic	fish	3	0	1	stars	4	correct	0.776168525218964
39488	1	stim198_inanimate_tools_wrench_2.png	198	inanimate	tools	wrench	2	0	1	stars	4	correct	0.776168525218964
39538	1	stim039_animate_bird_penguin_3.png	39	animate	bird	penguin	3	0	1	stars	4	correct	0.776168525218964
39588	1	stim034_animate_bird_peacock_2.png	34	animate	bird	peacock	2	0	1	stars	4	correct	0.776168525218964
39638	1	stim053_animate_human_faces_1.png	53	animate	human	faces	1	0	1	stars	4	correct	0.776168525218964
39688	1	stim066_animate_insect_bug_2.png	66	animate	insect	bug	2	0	1	stars	4	correct	0.776168525218964
39738	1	stim060_animate_human_sports_4.png	60	animate	human	sports	4	0	1	stars	4	correct	0.776168525218964
39788	1	stim098_animate_mammal_rhino_2.png	98	animate	mammal	rhino	2	0	1	stars	4	correct	0.776168525218964
39838	1	stim054_animate_human_faces_2.png	54	animate	human	faces	2	0	1	stars	4	correct	0.776168525218964
39888	1	stim157_inanimate_furniture_table_1.png	157	inanimate	furniture	table	1	0	1	stars	4	correct	0.776168525218964
39938	1	stim162_inanimate_plants_bush_2.png	162	inanimate	plants	bush	2	0	1	stars	4	correct	0.776168525218964
39988	1	stim020_animate_aquatic_shrimp_4.png	20	animate	aquatic	shrimp	4	0	1	stars	4	correct	0.776168525218964
40038	1	stim019_animate_aquatic_shrimp_3.png	19	animate	aquatic	shrimp	3	0	1	stars	4	correct	0.776168525218964
40088	1	stim126_inanimate_fruits_banana_2.png	126	inanimate	fruits	banana	2	0	1	stars	4	correct	0.776168525218964
40138	1	stim025_animate_bird_duck_1.png	25	animate	bird	duck	1	0	1	stars	4	correct	0.776168525218964
40188	1	stim071_animate_insect_butterfly_3.png	71	animate	insect	butterfly	3	0	1	stars	4	correct	0.776168525218964
40238	1	stim175_inanimate_plants_tree_3.png	175	inanimate	plants	tree	3	0	1	stars	4	correct	0.776168525218964
40288	1	stim001_animate_aquatic_crab_1.png	1	animate	aquatic	crab	1	0	1	stars	4	correct	0.776168525218964
40338	1	stim105_inanimate_clothing_hat_1.png	105	inanimate	clothing	hat	1	0	1	stars	4	correct	0.776168525218964
40388	1	stim110_inanimate_clothing_jeans_2.png	110	inanimate	clothing	jeans	2	0	1	stars	4	correct	0.776168525218964
40438	1	stim030_animate_bird_parrot_2.png	30	animate	bird	parrot	2	0	1	stars	4	correct	0.776168525218964
40488	1	stim078_animate_insect_grasshopper_2.png	78	animate	insect	grasshopper	2	0	1	stars	4	correct	0.776168525218964
40538	1	stim018_animate_aquatic_shrimp_2.png	18	animate	aquatic	shrimp	2	0	1	stars	4	correct	0.776168525218964
40588	1	stim016_animate_aquatic_shark_4.png	16	animate	aquatic	shark	4	0	1	stars	4	correct	0.776168525218964
40638	1	stim177_inanimate_plants_tulip_1.png	177	inanimate	plants	tulip	1	0	1	stars	4	correct	0.776168525218964
40688	1	stim154_inanimate_furniture_sofa_2.png	154	inanimate	furniture	sofa	2	0	1	stars	4	correct	0.776168525218964
40738	1	stim073_animate_insect_dragonfly_1.png	73	animate	insect	dragonfly	1	0	1	stars	4	correct	0.776168525218964
40788	1	stim063_animate_insect_ant_3.png	63	animate	insect	ant	3	0	1	stars	4	correct	0.776168525218964
40838	1	stim070_animate_insect_butterfly_2.png	70	animate	insect	butterfly	2	0	1	stars	4	correct	0.776168525218964
40888	1	stim043_animate_human_baby_3.png	43	animate	human	baby	3	0	1	stars	4	correct	0.776168525218964
40938	1	stim006_animate_aquatic_fish_2.png	6	animate	aquatic	fish	2	0	1	stars	4	correct	0.776168525218964
40988	1	stim112_inanimate_clothing_jeans_4.png	112	inanimate	clothing	jeans	4	0	1	stars	4	correct	0.776168525218964
41038	1	stim085_animate_mammal_giraffe_1.png	85	animate	mammal	giraffe	1	0	1	stars	4	correct	0.776168525218964
41088	1	stim152_inanimate_furniture_closet_4.png	152	inanimate	furniture	closet	4	0	1	stars	4	correct	0.776168525218964
41138	1	stim087_animate_mammal_giraffe_3.png	87	animate	mammal	giraffe	3	0	1	stars	4	correct	0.776168525218964
41188	1	stim166_inanimate_plants_cactus_2.png	166	inanimate	plants	cactus	2	0	1	stars	4	correct	0.776168525218964
41238	1	stim064_animate_insect_ant_4.png	64	animate	insect	ant	4	0	1	stars	4	correct	0.776168525218964
41288	1	stim143_inanimate_furniture_bed_3.png	143	inanimate	furniture	bed	3	0	1	stars	4	correct	0.776168525218964
41338	1	stim185_inanimate_tools_hammer_1.png	185	inanimate	tools	hammer	1	0	1	stars	4	correct	0.776168525218964
41388	1	stim065_animate_insect_bug_1.png	65	animate	insect	bug	1	0	1	stars	4	correct	0.776168525218964
41438	1	stim192_inanimate_tools_pan_4.png	192	inanimate	tools	pan	4	0	1	stars	4	correct	0.776168525218964
41488	1	stim116_inanimate_clothing_shirt_4.png	116	inanimate	clothing	shirt	4	0	1	stars	4	correct	0.776168525218964
41538	1	stim160_inanimate_furniture_table_4.png	160	inanimate	furniture	table	4	0	1	stars	4	correct	0.776168525218964
41588	1	stim097_animate_mammal_rhino_1.png	97	animate	mammal	rhino	1	0	1	stars	4	correct	0.776168525218964
41638	1	stim096_animate_mammal_monkey_4.png	96	animate	mammal	monkey	4	0	1	stars	4	correct	0.776168525218964
41688	1	stim109_inanimate_clothing_jeans_1.png	109	inanimate	clothing	jeans	1	0	1	stars	4	correct	0.776168525218964
41738	1	stim042_animate_human_baby_2.png	42	animate	human	baby	2	0	1	stars	4	correct	0.776168525218964
41788	1	stim009_animate_aquatic_seahorse_1.png	9	animate	aquatic	seahorse	1	0	1	stars	4	correct	0.776168525218964
41838	1	stim120_inanimate_clothing_socks_4.png	120	inanimate	clothing	socks	4	0	1	stars	4	correct	0.776168525218964
41888	1	stim100_animate_mammal_rhino_4.png	100	animate	mammal	rhino	4	0	1	stars	4	correct	0.776168525218964
41938	1	stim159_inanimate_furniture_table_3.png	159	inanimate	furniture	table	3	0	1	stars	4	correct	0.776168525218964
41988	1	stim190_inanimate_tools_pan_2.png	190	inanimate	tools	pan	2	0	1	stars	4	correct	0.776168525218964
42038	1	stim047_animate_human_child_3.png	47	animate	human	child	3	0	1	stars	4	correct	0.776168525218964
42088	1	stim117_inanimate_clothing_socks_1.png	117	inanimate	clothing	socks	1	0	1	stars	4	correct	0.776168525218964
55171	1	stim040_animate_bird_penguin_4.png	40	animate	bird	penguin	4	0	2	stars	1	correct	0.714017767226323
55221	1	stim086_animate_mammal_giraffe_2.png	86	animate	mammal	giraffe	2	0	2	stars	1	correct	0.714017767226323
55271	1	stim093_animate_mammal_monkey_1.png	93	animate	mammal	monkey	1	0	2	stars	1	correct	0.714017767226323
55321	1	stim148_inanimate_furniture_chair_4.png	148	inanimate	furniture	chair	4	0	2	stars	1	correct	0.714017767226323
55371	1	stim130_inanimate_fruits_grape_2.png	130	inanimate	fruits	grape	2	0	2	stars	1	correct	0.714017767226323
55421	1	stim141_inanimate_furniture_bed_1.png	141	inanimate	furniture	bed	1	0	2	stars	1	correct	0.714017767226323
55471	1	stim143_inanimate_furniture_bed_3.png	143	inanimate	furniture	bed	3	0	2	stars	1	correct	0.714017767226323
55521	1	stim088_animate_mammal_giraffe_4.png	88	animate	mammal	giraffe	4	0	2	stars	1	correct	0.714017767226323
55571	1	stim004_animate_aquatic_crab_4.png	4	animate	aquatic	crab	4	0	2	stars	1	correct	0.714017767226323
55621	1	stim082_animate_mammal_cow_2.png	82	animate	mammal	cow	2	0	2	stars	1	correct	0.714017767226323
55671	1	stim056_animate_human_faces_4.png	56	animate	human	faces	4	0	2	stars	1	correct	0.714017767226323
55721	1	stim059_animate_human_sports_3.png	59	animate	human	sports	3	0	2	stars	1	correct	0.714017767226323
55771	1	stim101_inanimate_clothing_gloves_1.png	101	inanimate	clothing	gloves	1	0	2	stars	1	correct	0.714017767226323
55821	1	stim016_animate_aquatic_shark_4.png	16	animate	aquatic	shark	4	0	2	stars	1	correct	0.714017767226323
55871	1	stim104_inanimate_clothing_gloves_4.png	104	inanimate	clothing	gloves	4	0	2	stars	1	correct	0.714017767226323
55921	1	stim189_inanimate_tools_pan_1.png	189	inanimate	tools	pan	1	0	2	stars	1	correct	0.714017767226323
55971	1	stim162_inanimate_plants_bush_2.png	162	inanimate	plants	bush	2	0	2	stars	1	correct	0.714017767226323
56021	1	stim098_animate_mammal_rhino_2.png	98	animate	mammal	rhino	2	0	2	stars	1	correct	0.714017767226323
56071	1	stim180_inanimate_plants_tulip_4.png	180	inanimate	plants	tulip	4	0	2	stars	1	correct	0.714017767226323
56121	1	stim007_animate_aquatic_fish_3.png	7	animate	aquatic	fish	3	0	2	stars	1	correct	0.714017767226323
56171	1	stim134_inanimate_fruits_pineapple_2.png	134	inanimate	fruits	pineapple	2	0	2	stars	1	correct	0.714017767226323
56221	1	stim069_animate_insect_butterfly_1.png	69	animate	insect	butterfly	1	0	2	stars	1	correct	0.714017767226323
56271	1	stim139_inanimate_fruits_strawberry_3.png	139	inanimate	fruits	strawberry	3	0	2	stars	1	correct	0.714017767226323
56321	1	stim094_animate_mammal_monkey_2.png	94	animate	mammal	monkey	2	0	2	stars	1	correct	0.714017767226323
56371	1	stim099_animate_mammal_rhino_3.png	99	animate	mammal	rhino	3	0	2	stars	1	correct	0.714017767226323
56421	1	stim073_animate_insect_dragonfly_1.png	73	animate	insect	dragonfly	1	0	2	stars	1	correct	0.714017767226323
56471	1	stim115_inanimate_clothing_shirt_3.png	115	inanimate	clothing	shirt	3	0	2	stars	1	correct	0.714017767226323
56521	1	stim151_inanimate_furniture_closet_3.png	151	inanimate	furniture	closet	3	0	2	stars	1	correct	0.714017767226323
56571	1	stim025_animate_bird_duck_1.png	25	animate	bird	duck	1	0	2	stars	1	correct	0.714017767226323
56621	1	stim142_inanimate_furniture_bed_2.png	142	inanimate	furniture	bed	2	0	2	stars	1	correct	0.714017767226323
56671	1	stim168_inanimate_plants_cactus_4.png	168	inanimate	plants	cactus	4	0	2	stars	1	correct	0.714017767226323
56721	1	stim062_animate_insect_ant_2.png	62	animate	insect	ant	2	0	2	stars	1	correct	0.714017767226323
56771	1	stim195_inanimate_tools_scissors_3.png	195	inanimate	tools	scissors	3	0	2	stars	1	correct	0.714017767226323
56821	1	stim097_animate_mammal_rhino_1.png	97	animate	mammal	rhino	1	0	2	stars	1	correct	0.714017767226323
56871	1	stim001_animate_aquatic_crab_1.png	1	animate	aquatic	crab	1	0	2	stars	1	correct	0.714017767226323
56921	1	stim113_inanimate_clothing_shirt_1.png	113	inanimate	clothing	shirt	1	0	2	stars	1	correct	0.714017767226323
56971	1	stim084_animate_mammal_cow_4.png	84	animate	mammal	cow	4	0	2	stars	1	correct	0.714017767226323
57021	1	stim128_inanimate_fruits_banana_4.png	128	inanimate	fruits	banana	4	0	2	stars	1	correct	0.714017767226323
57071	1	stim019_animate_aquatic_shrimp_3.png	19	animate	aquatic	shrimp	3	0	2	stars	1	correct	0.714017767226323
57121	1	stim123_inanimate_fruits_apple_3.png	123	inanimate	fruits	apple	3	0	2	stars	1	correct	0.714017767226323
57171	1	stim181_inanimate_tools_broom_1.png	181	inanimate	tools	broom	1	0	2	stars	1	correct	0.714017767226323
57221	1	stim076_animate_insect_dragonfly_4.png	76	animate	insect	dragonfly	4	0	2	stars	1	correct	0.714017767226323
57271	1	stim033_animate_bird_peacock_1.png	33	animate	bird	peacock	1	0	2	stars	1	correct	0.714017767226323
57321	1	stim175_inanimate_plants_tree_3.png	175	inanimate	plants	tree	3	0	2	stars	1	correct	0.714017767226323
57371	1	stim092_animate_mammal_kangaroo_4.png	92	animate	mammal	kangaroo	4	0	2	stars	1	correct	0.714017767226323
57421	1	stim146_inanimate_furniture_chair_2.png	146	inanimate	furniture	chair	2	0	2	stars	1	correct	0.714017767226323
57471	1	stim049_animate_human_clown_1.png	49	animate	human	clown	1	0	2	stars	1	correct	0.714017767226323
57521	1	stim199_inanimate_tools_wrench_3.png	199	inanimate	tools	wrench	3	0	2	stars	1	correct	0.714017767226323
57571	1	stim197_inanimate_tools_wrench_1.png	197	inanimate	tools	wrench	1	0	2	stars	1	correct	0.714017767226323
57621	1	stim046_animate_human_child_2.png	46	animate	human	child	2	0	2	stars	1	correct	0.714017767226323
57671	1	stim110_inanimate_clothing_jeans_2.png	110	inanimate	clothing	jeans	2	0	2	stars	1	correct	0.714017767226323
57721	1	stim063_animate_insect_ant_3.png	63	animate	insect	ant	3	0	2	stars	1	correct	0.714017767226323
57771	1	stim161_inanimate_plants_bush_1.png	161	inanimate	plants	bush	1	0	2	stars	1	correct	0.714017767226323
57821	1	stim192_inanimate_tools_pan_4.png	192	inanimate	tools	pan	4	0	2	stars	1	correct	0.714017767226323
57871	1	stim156_inanimate_furniture_sofa_4.png	156	inanimate	furniture	sofa	4	0	2	stars	1	correct	0.714017767226323
57921	1	stim191_inanimate_tools_pan_3.png	191	inanimate	tools	pan	3	0	2	stars	1	correct	0.714017767226323
57971	1	stim035_animate_bird_peacock_3.png	35	animate	bird	peacock	3	0	2	stars	1	correct	0.714017767226323
58021	1	stim153_inanimate_furniture_sofa_1.png	153	inanimate	furniture	sofa	1	0	2	stars	1	correct	0.714017767226323
58071	1	stim018_animate_aquatic_shrimp_2.png	18	animate	aquatic	shrimp	2	0	2	stars	1	correct	0.714017767226323
58121	1	stim177_inanimate_plants_tulip_1.png	177	inanimate	plants	tulip	1	0	2	stars	1	correct	0.714017767226323
58171	1	stim100_animate_mammal_rhino_4.png	100	animate	mammal	rhino	4	0	2	stars	1	correct	0.714017767226323
58221	1	stim166_inanimate_plants_cactus_2.png	166	inanimate	plants	cactus	2	0	2	stars	1	correct	0.714017767226323
58271	1	stim027_animate_bird_duck_3.png	27	animate	bird	duck	3	0	2	stars	1	correct	0.714017767226323
58321	1	stim021_animate_bird_chicken_1.png	21	animate	bird	chicken	1	0	2	stars	1	correct	0.714017767226323
58371	1	stim121_inanimate_fruits_apple_1.png	121	inanimate	fruits	apple	1	0	2	stars	1	correct	0.714017767226323
58421	1	stim159_inanimate_furniture_table_3.png	159	inanimate	furniture	table	3	0	2	stars	1	correct	0.714017767226323
58471	1	stim009_animate_aquatic_seahorse_1.png	9	animate	aquatic	seahorse	1	0	2	stars	1	correct	0.714017767226323
58521	1	stim176_inanimate_plants_tree_4.png	176	inanimate	plants	tree	4	0	2	stars	1	correct	0.714017767226323
58571	1	stim005_animate_aquatic_fish_1.png	5	animate	aquatic	fish	1	0	2	stars	1	correct	0.714017767226323
58621	1	stim010_animate_aquatic_seahorse_2.png	10	animate	aquatic	seahorse	2	0	2	stars	1	correct	0.714017767226323
58671	1	stim048_animate_human_child_4.png	48	animate	human	child	4	0	2	stars	1	correct	0.714017767226323
58721	1	stim186_inanimate_tools_hammer_2.png	186	inanimate	tools	hammer	2	0	2	stars	1	correct	0.714017767226323
58771	1	stim042_animate_human_baby_2.png	42	animate	human	baby	2	0	2	stars	1	correct	0.714017767226323
58821	1	stim080_animate_insect_grasshopper_4.png	80	animate	insect	grasshopper	4	0	2	stars	1	correct	0.714017767226323
58871	1	stim002_animate_aquatic_crab_2.png	2	animate	aquatic	crab	2	0	2	stars	1	correct	0.714017767226323
58921	1	stim183_inanimate_tools_broom_3.png	183	inanimate	tools	broom	3	0	2	stars	1	correct	0.714017767226323
58971	1	stim163_inanimate_plants_bush_3.png	163	inanimate	plants	bush	3	0	2	stars	1	correct	0.714017767226323
59021	1	stim188_inanimate_tools_hammer_4.png	188	inanimate	tools	hammer	4	0	2	stars	1	correct	0.714017767226323
59071	1	stim043_animate_human_baby_3.png	43	animate	human	baby	3	0	2	stars	1	correct	0.714017767226323
59121	1	stim108_inanimate_clothing_hat_4.png	108	inanimate	clothing	hat	4	0	2	stars	1	correct	0.714017767226323
59171	1	stim060_animate_human_sports_4.png	60	animate	human	sports	4	0	2	stars	1	correct	0.714017767226323
59221	1	stim034_animate_bird_peacock_2.png	34	animate	bird	peacock	2	0	2	stars	1	correct	0.714017767226323
59271	1	stim030_animate_bird_parrot_2.png	30	animate	bird	parrot	2	0	2	stars	1	correct	0.714017767226323
59321	1	stim057_animate_human_sports_1.png	57	animate	human	sports	1	0	2	stars	1	correct	0.714017767226323
59371	1	stim172_inanimate_plants_sunflower_4.png	172	inanimate	plants	sunflower	4	0	2	stars	1	correct	0.714017767226323
59421	1	stim178_inanimate_plants_tulip_2.png	178	inanimate	plants	tulip	2	0	2	stars	1	correct	0.714017767226323
59471	1	stim090_animate_mammal_kangaroo_2.png	90	animate	mammal	kangaroo	2	0	2	stars	1	correct	0.714017767226323
59521	1	stim067_animate_insect_bug_3.png	67	animate	insect	bug	3	0	2	stars	1	correct	0.714017767226323
59571	1	stim133_inanimate_fruits_pineapple_1.png	133	inanimate	fruits	pineapple	1	0	2	stars	1	correct	0.714017767226323
59621	1	stim006_animate_aquatic_fish_2.png	6	animate	aquatic	fish	2	0	2	stars	1	correct	0.714017767226323
59671	1	stim200_inanimate_tools_wrench_4.png	200	inanimate	tools	wrench	4	0	2	stars	1	correct	0.714017767226323
59721	1	stim173_inanimate_plants_tree_1.png	173	inanimate	plants	tree	1	0	2	stars	1	correct	0.714017767226323
59771	1	stim179_inanimate_plants_tulip_3.png	179	inanimate	plants	tulip	3	0	2	stars	1	correct	0.714017767226323
59821	1	stim013_animate_aquatic_shark_1.png	13	animate	aquatic	shark	1	0	2	stars	1	correct	0.714017767226323
59871	1	stim058_animate_human_sports_2.png	58	animate	human	sports	2	0	2	stars	1	correct	0.714017767226323
59921	1	stim095_animate_mammal_monkey_3.png	95	animate	mammal	monkey	3	0	2	stars	1	correct	0.714017767226323
59971	1	stim137_inanimate_fruits_strawberry_1.png	137	inanimate	fruits	strawberry	1	0	2	stars	1	correct	0.714017767226323
60021	1	stim170_inanimate_plants_sunflower_2.png	170	inanimate	plants	sunflower	2	0	2	stars	1	correct	0.714017767226323
60071	1	stim154_inanimate_furniture_sofa_2.png	154	inanimate	furniture	sofa	2	0	2	stars	1	correct	0.714017767226323
60121	1	stim015_animate_aquatic_shark_3.png	15	animate	aquatic	shark	3	0	2	stars	1	correct	0.714017767226323
60171	1	stim031_animate_bird_parrot_3.png	31	animate	bird	parrot	3	0	2	stars	1	correct	0.714017767226323
60221	1	stim135_inanimate_fruits_pineapple_3.png	135	inanimate	fruits	pineapple	3	0	2	stars	1	correct	0.714017767226323
60271	1	stim211_targets_shapes_star_3.png	211	targets	shapes	star	3	1	2	stars	1	correct	0.714017767226323
60321	1	stim106_inanimate_clothing_hat_2.png	106	inanimate	clothing	hat	2	0	2	stars	1	correct	0.714017767226323
60371	1	stim061_animate_insect_ant_1.png	61	animate	insect	ant	1	0	2	stars	1	correct	0.714017767226323
60421	1	stim036_animate_bird_peacock_4.png	36	animate	bird	peacock	4	0	2	stars	1	correct	0.714017767226323
60471	1	stim145_inanimate_furniture_chair_1.png	145	inanimate	furniture	chair	1	0	2	stars	1	correct	0.714017767226323
60521	1	stim124_inanimate_fruits_apple_4.png	124	inanimate	fruits	apple	4	0	2	stars	1	correct	0.714017767226323
60571	1	stim068_animate_insect_bug_4.png	68	animate	insect	bug	4	0	2	stars	1	correct	0.714017767226323
60621	1	stim028_animate_bird_duck_4.png	28	animate	bird	duck	4	0	2	stars	1	correct	0.714017767226323
60671	1	stim017_animate_aquatic_shrimp_1.png	17	animate	aquatic	shrimp	1	0	2	stars	1	correct	0.714017767226323
60721	1	stim079_animate_insect_grasshopper_3.png	79	animate	insect	grasshopper	3	0	2	stars	1	correct	0.714017767226323
60771	1	stim129_inanimate_fruits_grape_1.png	129	inanimate	fruits	grape	1	0	2	stars	1	correct	0.714017767226323
60821	1	stim160_inanimate_furniture_table_4.png	160	inanimate	furniture	table	4	0	2	stars	1	correct	0.714017767226323
60871	1	stim071_animate_insect_butterfly_3.png	71	animate	insect	butterfly	3	0	2	stars	1	correct	0.714017767226323
60921	1	stim045_animate_human_child_1.png	45	animate	human	child	1	0	2	stars	1	correct	0.714017767226323
60971	1	stim155_inanimate_furniture_sofa_3.png	155	inanimate	furniture	sofa	3	0	2	stars	1	correct	0.714017767226323
61021	1	stim171_inanimate_plants_sunflower_3.png	171	inanimate	plants	sunflower	3	0	2	stars	1	correct	0.714017767226323
61071	1	stim078_animate_insect_grasshopper_2.png	78	animate	insect	grasshopper	2	0	2	stars	1	correct	0.714017767226323
61121	1	stim198_inanimate_tools_wrench_2.png	198	inanimate	tools	wrench	2	0	2	stars	1	correct	0.714017767226323
61171	1	stim047_animate_human_child_3.png	47	animate	human	child	3	0	2	stars	1	correct	0.714017767226323
61221	1	stim131_inanimate_fruits_grape_3.png	131	inanimate	fruits	grape	3	0	2	stars	1	correct	0.714017767226323
61271	1	stim152_inanimate_furniture_closet_4.png	152	inanimate	furniture	closet	4	0	2	stars	1	correct	0.714017767226323
61322	1	stim091_animate_mammal_kangaroo_3.png	91	animate	mammal	kangaroo	3	0	2	stars	1	correct	0.714017767226323
61371	1	stim054_animate_human_faces_2.png	54	animate	human	faces	2	0	2	stars	1	correct	0.714017767226323
61422	1	stim096_animate_mammal_monkey_4.png	96	animate	mammal	monkey	4	0	2	stars	1	correct	0.714017767226323
61471	1	stim107_inanimate_clothing_hat_3.png	107	inanimate	clothing	hat	3	0	2	stars	1	correct	0.714017767226323
61521	1	stim041_animate_human_baby_1.png	41	animate	human	baby	1	0	2	stars	1	correct	0.714017767226323
61571	1	stim150_inanimate_furniture_closet_2.png	150	inanimate	furniture	closet	2	0	2	stars	1	correct	0.714017767226323
61621	1	stim051_animate_human_clown_3.png	51	animate	human	clown	3	0	2	stars	1	correct	0.714017767226323
61671	1	stim003_animate_aquatic_crab_3.png	3	animate	aquatic	crab	3	0	2	stars	1	correct	0.714017767226323
61722	1	stim026_animate_bird_duck_2.png	26	animate	bird	duck	2	0	2	stars	1	correct	0.714017767226323
61772	1	stim112_inanimate_clothing_jeans_4.png	112	inanimate	clothing	jeans	4	0	2	stars	1	correct	0.714017767226323
61821	1	stim085_animate_mammal_giraffe_1.png	85	animate	mammal	giraffe	1	0	2	stars	1	correct	0.714017767226323
61871	1	stim105_inanimate_clothing_hat_1.png	105	inanimate	clothing	hat	1	0	2	stars	1	correct	0.714017767226323
61922	1	stim118_inanimate_clothing_socks_2.png	118	inanimate	clothing	socks	2	0	2	stars	1	correct	0.714017767226323
61972	1	stim074_animate_insect_dragonfly_2.png	74	animate	insect	dragonfly	2	0	2	stars	1	correct	0.714017767226323
62022	1	stim032_animate_bird_parrot_4.png	32	animate	bird	parrot	4	0	2	stars	1	correct	0.714017767226323
62071	1	stim119_inanimate_clothing_socks_3.png	119	inanimate	clothing	socks	3	0	2	stars	1	correct	0.714017767226323
62122	1	stim126_inanimate_fruits_banana_2.png	126	inanimate	fruits	banana	2	0	2	stars	1	correct	0.714017767226323
62172	1	stim193_inanimate_tools_scissors_1.png	193	inanimate	tools	scissors	1	0	2	stars	1	correct	0.714017767226323
62222	1	stim052_animate_human_clown_4.png	52	animate	human	clown	4	0	2	stars	1	correct	0.714017767226323
62272	1	stim132_inanimate_fruits_grape_4.png	132	inanimate	fruits	grape	4	0	2	stars	1	correct	0.714017767226323
62322	1	stim070_animate_insect_butterfly_2.png	70	animate	insect	butterfly	2	0	2	stars	1	correct	0.714017767226323
62372	1	stim039_animate_bird_penguin_3.png	39	animate	bird	penguin	3	0	2	stars	1	correct	0.714017767226323
62421	1	stim196_inanimate_tools_scissors_4.png	196	inanimate	tools	scissors	4	0	2	stars	1	correct	0.714017767226323
62471	1	stim065_animate_insect_bug_1.png	65	animate	insect	bug	1	0	2	stars	1	correct	0.714017767226323
62521	1	stim114_inanimate_clothing_shirt_2.png	114	inanimate	clothing	shirt	2	0	2	stars	1	correct	0.714017767226323
62572	1	stim165_inanimate_plants_cactus_1.png	165	inanimate	plants	cactus	1	0	2	stars	1	correct	0.714017767226323
62622	1	stim012_animate_aquatic_seahorse_4.png	12	animate	aquatic	seahorse	4	0	2	stars	1	correct	0.714017767226323
62672	1	stim011_animate_aquatic_seahorse_3.png	11	animate	aquatic	seahorse	3	0	2	stars	1	correct	0.714017767226323
62722	1	stim167_inanimate_plants_cactus_3.png	167	inanimate	plants	cactus	3	0	2	stars	1	correct	0.714017767226323
62772	1	stim125_inanimate_fruits_banana_1.png	125	inanimate	fruits	banana	1	0	2	stars	1	correct	0.714017767226323
62822	1	stim020_animate_aquatic_shrimp_4.png	20	animate	aquatic	shrimp	4	0	2	stars	1	correct	0.714017767226323
62872	1	stim014_animate_aquatic_shark_2.png	14	animate	aquatic	shark	2	0	2	stars	1	correct	0.714017767226323
62922	1	stim194_inanimate_tools_scissors_2.png	194	inanimate	tools	scissors	2	0	2	stars	1	correct	0.714017767226323
62972	1	stim055_animate_human_faces_3.png	55	animate	human	faces	3	0	2	stars	1	correct	0.714017767226323
63022	1	stim185_inanimate_tools_hammer_1.png	185	inanimate	tools	hammer	1	0	2	stars	1	correct	0.714017767226323
63072	1	stim044_animate_human_baby_4.png	44	animate	human	baby	4	0	2	stars	1	correct	0.714017767226323
63122	1	stim064_animate_insect_ant_4.png	64	animate	insect	ant	4	0	2	stars	1	correct	0.714017767226323
63172	1	stim127_inanimate_fruits_banana_3.png	127	inanimate	fruits	banana	3	0	2	stars	1	correct	0.714017767226323
63222	1	stim116_inanimate_clothing_shirt_4.png	116	inanimate	clothing	shirt	4	0	2	stars	1	correct	0.714017767226323
63272	1	stim109_inanimate_clothing_jeans_1.png	109	inanimate	clothing	jeans	1	0	2	stars	1	correct	0.714017767226323
63321	1	stim077_animate_insect_grasshopper_1.png	77	animate	insect	grasshopper	1	0	2	stars	1	correct	0.714017767226323
63372	1	stim102_inanimate_clothing_gloves_2.png	102	inanimate	clothing	gloves	2	0	2	stars	1	correct	0.714017767226323
63422	1	stim144_inanimate_furniture_bed_4.png	144	inanimate	furniture	bed	4	0	2	stars	1	correct	0.714017767226323
63472	1	stim169_inanimate_plants_sunflower_1.png	169	inanimate	plants	sunflower	1	0	2	stars	1	correct	0.714017767226323
63522	1	stim164_inanimate_plants_bush_4.png	164	inanimate	plants	bush	4	0	2	stars	1	correct	0.714017767226323
63572	1	stim008_animate_aquatic_fish_4.png	8	animate	aquatic	fish	4	0	2	stars	1	correct	0.714017767226323
63622	1	stim149_inanimate_furniture_closet_1.png	149	inanimate	furniture	closet	1	0	2	stars	1	correct	0.714017767226323
63672	1	stim147_inanimate_furniture_chair_3.png	147	inanimate	furniture	chair	3	0	2	stars	1	correct	0.714017767226323
63722	1	stim158_inanimate_furniture_table_2.png	158	inanimate	furniture	table	2	0	2	stars	1	correct	0.714017767226323
63772	1	stim037_animate_bird_penguin_1.png	37	animate	bird	penguin	1	0	2	stars	1	correct	0.714017767226323
63822	1	stim103_inanimate_clothing_gloves_3.png	103	inanimate	clothing	gloves	3	0	2	stars	1	correct	0.714017767226323
63872	1	stim038_animate_bird_penguin_2.png	38	animate	bird	penguin	2	0	2	stars	1	correct	0.714017767226323
63922	1	stim157_inanimate_furniture_table_1.png	157	inanimate	furniture	table	1	0	2	stars	1	correct	0.714017767226323
63972	1	stim182_inanimate_tools_broom_2.png	182	inanimate	tools	broom	2	0	2	stars	1	correct	0.714017767226323
64022	1	stim075_animate_insect_dragonfly_3.png	75	animate	insect	dragonfly	3	0	2	stars	1	correct	0.714017767226323
64072	1	stim184_inanimate_tools_broom_4.png	184	inanimate	tools	broom	4	0	2	stars	1	correct	0.714017767226323
64122	1	stim024_animate_bird_chicken_4.png	24	animate	bird	chicken	4	0	2	stars	1	correct	0.714017767226323
64172	1	stim081_animate_mammal_cow_1.png	81	animate	mammal	cow	1	0	2	stars	1	correct	0.714017767226323
64222	1	stim029_animate_bird_parrot_1.png	29	animate	bird	parrot	1	0	2	stars	1	correct	0.714017767226323
64272	1	stim066_animate_insect_bug_2.png	66	animate	insect	bug	2	0	2	stars	1	correct	0.714017767226323
64322	1	stim111_inanimate_clothing_jeans_3.png	111	inanimate	clothing	jeans	3	0	2	stars	1	correct	0.714017767226323
64372	1	stim083_animate_mammal_cow_3.png	83	animate	mammal	cow	3	0	2	stars	1	correct	0.714017767226323
64422	1	stim023_animate_bird_chicken_3.png	23	animate	bird	chicken	3	0	2	stars	1	correct	0.714017767226323
64472	1	stim117_inanimate_clothing_socks_1.png	117	inanimate	clothing	socks	1	0	2	stars	1	correct	0.714017767226323
64522	1	stim072_animate_insect_butterfly_4.png	72	animate	insect	butterfly	4	0	2	stars	1	correct	0.714017767226323
64572	1	stim120_inanimate_clothing_socks_4.png	120	inanimate	clothing	socks	4	0	2	stars	1	correct	0.714017767226323
64622	1	stim087_animate_mammal_giraffe_3.png	87	animate	mammal	giraffe	3	0	2	stars	1	correct	0.714017767226323
64672	1	stim136_inanimate_fruits_pineapple_4.png	136	inanimate	fruits	pineapple	4	0	2	stars	1	correct	0.714017767226323
64722	1	stim174_inanimate_plants_tree_2.png	174	inanimate	plants	tree	2	0	2	stars	1	correct	0.714017767226323
64772	1	stim122_inanimate_fruits_apple_2.png	122	inanimate	fruits	apple	2	0	2	stars	1	correct	0.714017767226323
64822	1	stim050_animate_human_clown_2.png	50	animate	human	clown	2	0	2	stars	1	correct	0.714017767226323
64872	1	stim022_animate_bird_chicken_2.png	22	animate	bird	chicken	2	0	2	stars	1	correct	0.714017767226323
64922	1	stim190_inanimate_tools_pan_2.png	190	inanimate	tools	pan	2	0	2	stars	1	correct	0.714017767226323
64972	1	stim140_inanimate_fruits_strawberry_4.png	140	inanimate	fruits	strawberry	4	0	2	stars	1	correct	0.714017767226323
65022	1	stim089_animate_mammal_kangaroo_1.png	89	animate	mammal	kangaroo	1	0	2	stars	1	correct	0.714017767226323
65072	1	stim053_animate_human_faces_1.png	53	animate	human	faces	1	0	2	stars	1	correct	0.714017767226323
65122	1	stim187_inanimate_tools_hammer_3.png	187	inanimate	tools	hammer	3	0	2	stars	1	correct	0.714017767226323
65172	1	stim138_inanimate_fruits_strawberry_2.png	138	inanimate	fruits	strawberry	2	0	2	stars	1	correct	0.714017767226323
78289	1	stim186_inanimate_tools_hammer_2.png	186	inanimate	tools	hammer	2	0	3	stars	3	correct	0.954137926455587
78339	1	stim181_inanimate_tools_broom_1.png	181	inanimate	tools	broom	1	0	3	stars	3	correct	0.954137926455587
78389	1	stim170_inanimate_plants_sunflower_2.png	170	inanimate	plants	sunflower	2	0	3	stars	3	correct	0.954137926455587
78439	1	stim100_animate_mammal_rhino_4.png	100	animate	mammal	rhino	4	0	3	stars	3	correct	0.954137926455587
78489	1	stim044_animate_human_baby_4.png	44	animate	human	baby	4	0	3	stars	3	correct	0.954137926455587
78539	1	stim147_inanimate_furniture_chair_3.png	147	inanimate	furniture	chair	3	0	3	stars	3	correct	0.954137926455587
78589	1	stim058_animate_human_sports_2.png	58	animate	human	sports	2	0	3	stars	3	correct	0.954137926455587
78639	1	stim176_inanimate_plants_tree_4.png	176	inanimate	plants	tree	4	0	3	stars	3	correct	0.954137926455587
78689	1	stim045_animate_human_child_1.png	45	animate	human	child	1	0	3	stars	3	correct	0.954137926455587
78739	1	stim056_animate_human_faces_4.png	56	animate	human	faces	4	0	3	stars	3	correct	0.954137926455587
78789	1	stim006_animate_aquatic_fish_2.png	6	animate	aquatic	fish	2	0	3	stars	3	correct	0.954137926455587
78839	1	stim142_inanimate_furniture_bed_2.png	142	inanimate	furniture	bed	2	0	3	stars	3	correct	0.954137926455587
78889	1	stim040_animate_bird_penguin_4.png	40	animate	bird	penguin	4	0	3	stars	3	correct	0.954137926455587
78939	1	stim178_inanimate_plants_tulip_2.png	178	inanimate	plants	tulip	2	0	3	stars	3	correct	0.954137926455587
78989	1	stim187_inanimate_tools_hammer_3.png	187	inanimate	tools	hammer	3	0	3	stars	3	correct	0.954137926455587
79039	1	stim050_animate_human_clown_2.png	50	animate	human	clown	2	0	3	stars	3	correct	0.954137926455587
79089	1	stim199_inanimate_tools_wrench_3.png	199	inanimate	tools	wrench	3	0	3	stars	3	correct	0.954137926455587
79139	1	stim086_animate_mammal_giraffe_2.png	86	animate	mammal	giraffe	2	0	3	stars	3	correct	0.954137926455587
79189	1	stim081_animate_mammal_cow_1.png	81	animate	mammal	cow	1	0	3	stars	3	correct	0.954137926455587
79239	1	stim101_inanimate_clothing_gloves_1.png	101	inanimate	clothing	gloves	1	0	3	stars	3	correct	0.954137926455587
79289	1	stim130_inanimate_fruits_grape_2.png	130	inanimate	fruits	grape	2	0	3	stars	3	correct	0.954137926455587
79339	1	stim117_inanimate_clothing_socks_1.png	117	inanimate	clothing	socks	1	0	3	stars	3	correct	0.954137926455587
79389	1	stim113_inanimate_clothing_shirt_1.png	113	inanimate	clothing	shirt	1	0	3	stars	3	correct	0.954137926455587
79439	1	stim041_animate_human_baby_1.png	41	animate	human	baby	1	0	3	stars	3	correct	0.954137926455587
79489	1	stim191_inanimate_tools_pan_3.png	191	inanimate	tools	pan	3	0	3	stars	3	correct	0.954137926455587
79539	1	stim091_animate_mammal_kangaroo_3.png	91	animate	mammal	kangaroo	3	0	3	stars	3	correct	0.954137926455587
79589	1	stim018_animate_aquatic_shrimp_2.png	18	animate	aquatic	shrimp	2	0	3	stars	3	correct	0.954137926455587
79639	1	stim137_inanimate_fruits_strawberry_1.png	137	inanimate	fruits	strawberry	1	0	3	stars	3	correct	0.954137926455587
79689	1	stim048_animate_human_child_4.png	48	animate	human	child	4	0	3	stars	3	correct	0.954137926455587
79739	1	stim165_inanimate_plants_cactus_1.png	165	inanimate	plants	cactus	1	0	3	stars	3	correct	0.954137926455587
79789	1	stim109_inanimate_clothing_jeans_1.png	109	inanimate	clothing	jeans	1	0	3	stars	3	correct	0.954137926455587
79839	1	stim105_inanimate_clothing_hat_1.png	105	inanimate	clothing	hat	1	0	3	stars	3	correct	0.954137926455587
79889	1	stim008_animate_aquatic_fish_4.png	8	animate	aquatic	fish	4	0	3	stars	3	correct	0.954137926455587
79939	1	stim158_inanimate_furniture_table_2.png	158	inanimate	furniture	table	2	0	3	stars	3	correct	0.954137926455587
79989	1	stim190_inanimate_tools_pan_2.png	190	inanimate	tools	pan	2	0	3	stars	3	correct	0.954137926455587
80039	1	stim042_animate_human_baby_2.png	42	animate	human	baby	2	0	3	stars	3	correct	0.954137926455587
80089	1	stim053_animate_human_faces_1.png	53	animate	human	faces	1	0	3	stars	3	correct	0.954137926455587
80139	1	stim083_animate_mammal_cow_3.png	83	animate	mammal	cow	3	0	3	stars	3	correct	0.954137926455587
80189	1	stim144_inanimate_furniture_bed_4.png	144	inanimate	furniture	bed	4	0	3	stars	3	correct	0.954137926455587
80239	1	stim099_animate_mammal_rhino_3.png	99	animate	mammal	rhino	3	0	3	stars	3	correct	0.954137926455587
80289	1	stim163_inanimate_plants_bush_3.png	163	inanimate	plants	bush	3	0	3	stars	3	correct	0.954137926455587
80339	1	stim039_animate_bird_penguin_3.png	39	animate	bird	penguin	3	0	3	stars	3	correct	0.954137926455587
80389	1	stim193_inanimate_tools_scissors_1.png	193	inanimate	tools	scissors	1	0	3	stars	3	correct	0.954137926455587
80439	1	stim076_animate_insect_dragonfly_4.png	76	animate	insect	dragonfly	4	0	3	stars	3	correct	0.954137926455587
80489	1	stim128_inanimate_fruits_banana_4.png	128	inanimate	fruits	banana	4	0	3	stars	3	correct	0.954137926455587
80539	1	stim141_inanimate_furniture_bed_1.png	141	inanimate	furniture	bed	1	0	3	stars	3	correct	0.954137926455587
80589	1	stim009_animate_aquatic_seahorse_1.png	9	animate	aquatic	seahorse	1	0	3	stars	3	correct	0.954137926455587
80639	1	stim036_animate_bird_peacock_4.png	36	animate	bird	peacock	4	0	3	stars	3	correct	0.954137926455587
80689	1	stim135_inanimate_fruits_pineapple_3.png	135	inanimate	fruits	pineapple	3	0	3	stars	3	correct	0.954137926455587
80739	1	stim060_animate_human_sports_4.png	60	animate	human	sports	4	0	3	stars	3	correct	0.954137926455587
80789	1	stim126_inanimate_fruits_banana_2.png	126	inanimate	fruits	banana	2	0	3	stars	3	correct	0.954137926455587
80839	1	stim200_inanimate_tools_wrench_4.png	200	inanimate	tools	wrench	4	0	3	stars	3	correct	0.954137926455587
80889	1	stim106_inanimate_clothing_hat_2.png	106	inanimate	clothing	hat	2	0	3	stars	3	correct	0.954137926455587
80939	1	stim034_animate_bird_peacock_2.png	34	animate	bird	peacock	2	0	3	stars	3	correct	0.954137926455587
80989	1	stim124_inanimate_fruits_apple_4.png	124	inanimate	fruits	apple	4	0	3	stars	3	correct	0.954137926455587
81039	1	stim185_inanimate_tools_hammer_1.png	185	inanimate	tools	hammer	1	0	3	stars	3	correct	0.954137926455587
81089	1	stim084_animate_mammal_cow_4.png	84	animate	mammal	cow	4	0	3	stars	3	correct	0.954137926455587
81139	1	stim210_targets_shapes_star_2.png	210	targets	shapes	star	2	1	3	stars	3	correct	0.954137926455587
81189	1	stim011_animate_aquatic_seahorse_3.png	11	animate	aquatic	seahorse	3	0	3	stars	3	correct	0.954137926455587
81239	1	stim030_animate_bird_parrot_2.png	30	animate	bird	parrot	2	0	3	stars	3	correct	0.954137926455587
81289	1	stim148_inanimate_furniture_chair_4.png	148	inanimate	furniture	chair	4	0	3	stars	3	correct	0.954137926455587
81339	1	stim183_inanimate_tools_broom_3.png	183	inanimate	tools	broom	3	0	3	stars	3	correct	0.954137926455587
81389	1	stim025_animate_bird_duck_1.png	25	animate	bird	duck	1	0	3	stars	3	correct	0.954137926455587
81439	1	stim094_animate_mammal_monkey_2.png	94	animate	mammal	monkey	2	0	3	stars	3	correct	0.954137926455587
81489	1	stim192_inanimate_tools_pan_4.png	192	inanimate	tools	pan	4	0	3	stars	3	correct	0.954137926455587
81539	1	stim073_animate_insect_dragonfly_1.png	73	animate	insect	dragonfly	1	0	3	stars	3	correct	0.954137926455587
81589	1	stim090_animate_mammal_kangaroo_2.png	90	animate	mammal	kangaroo	2	0	3	stars	3	correct	0.954137926455587
81639	1	stim096_animate_mammal_monkey_4.png	96	animate	mammal	monkey	4	0	3	stars	3	correct	0.954137926455587
81689	1	stim085_animate_mammal_giraffe_1.png	85	animate	mammal	giraffe	1	0	3	stars	3	correct	0.954137926455587
81739	1	stim159_inanimate_furniture_table_3.png	159	inanimate	furniture	table	3	0	3	stars	3	correct	0.954137926455587
81789	1	stim153_inanimate_furniture_sofa_1.png	153	inanimate	furniture	sofa	1	0	3	stars	3	correct	0.954137926455587
81839	1	stim037_animate_bird_penguin_1.png	37	animate	bird	penguin	1	0	3	stars	3	correct	0.954137926455587
81889	1	stim160_inanimate_furniture_table_4.png	160	inanimate	furniture	table	4	0	3	stars	3	correct	0.954137926455587
81939	1	stim019_animate_aquatic_shrimp_3.png	19	animate	aquatic	shrimp	3	0	3	stars	3	correct	0.954137926455587
81989	1	stim072_animate_insect_butterfly_4.png	72	animate	insect	butterfly	4	0	3	stars	3	correct	0.954137926455587
82039	1	stim022_animate_bird_chicken_2.png	22	animate	bird	chicken	2	0	3	stars	3	correct	0.954137926455587
82089	1	stim035_animate_bird_peacock_3.png	35	animate	bird	peacock	3	0	3	stars	3	correct	0.954137926455587
82139	1	stim161_inanimate_plants_bush_1.png	161	inanimate	plants	bush	1	0	3	stars	3	correct	0.954137926455587
82189	1	stim023_animate_bird_chicken_3.png	23	animate	bird	chicken	3	0	3	stars	3	correct	0.954137926455587
82239	1	stim031_animate_bird_parrot_3.png	31	animate	bird	parrot	3	0	3	stars	3	correct	0.954137926455587
82289	1	stim054_animate_human_faces_2.png	54	animate	human	faces	2	0	3	stars	3	correct	0.954137926455587
82339	1	stim177_inanimate_plants_tulip_1.png	177	inanimate	plants	tulip	1	0	3	stars	3	correct	0.954137926455587
82389	1	stim150_inanimate_furniture_closet_2.png	150	inanimate	furniture	closet	2	0	3	stars	3	correct	0.954137926455587
82439	1	stim145_inanimate_furniture_chair_1.png	145	inanimate	furniture	chair	1	0	3	stars	3	correct	0.954137926455587
82489	1	stim171_inanimate_plants_sunflower_3.png	171	inanimate	plants	sunflower	3	0	3	stars	3	correct	0.954137926455587
82539	1	stim055_animate_human_faces_3.png	55	animate	human	faces	3	0	3	stars	3	correct	0.954137926455587
82589	1	stim129_inanimate_fruits_grape_1.png	129	inanimate	fruits	grape	1	0	3	stars	3	correct	0.954137926455587
82639	1	stim020_animate_aquatic_shrimp_4.png	20	animate	aquatic	shrimp	4	0	3	stars	3	correct	0.954137926455587
82689	1	stim047_animate_human_child_3.png	47	animate	human	child	3	0	3	stars	3	correct	0.954137926455587
82739	1	stim146_inanimate_furniture_chair_2.png	146	inanimate	furniture	chair	2	0	3	stars	3	correct	0.954137926455587
82789	1	stim136_inanimate_fruits_pineapple_4.png	136	inanimate	fruits	pineapple	4	0	3	stars	3	correct	0.954137926455587
82839	1	stim078_animate_insect_grasshopper_2.png	78	animate	insect	grasshopper	2	0	3	stars	3	correct	0.954137926455587
82889	1	stim125_inanimate_fruits_banana_1.png	125	inanimate	fruits	banana	1	0	3	stars	3	correct	0.954137926455587
82939	1	stim010_animate_aquatic_seahorse_2.png	10	animate	aquatic	seahorse	2	0	3	stars	3	correct	0.954137926455587
82989	1	stim068_animate_insect_bug_4.png	68	animate	insect	bug	4	0	3	stars	3	correct	0.954137926455587
83039	1	stim169_inanimate_plants_sunflower_1.png	169	inanimate	plants	sunflower	1	0	3	stars	3	correct	0.954137926455587
83089	1	stim121_inanimate_fruits_apple_1.png	121	inanimate	fruits	apple	1	0	3	stars	3	correct	0.954137926455587
83139	1	stim089_animate_mammal_kangaroo_1.png	89	animate	mammal	kangaroo	1	0	3	stars	3	correct	0.954137926455587
83189	1	stim067_animate_insect_bug_3.png	67	animate	insect	bug	3	0	3	stars	3	correct	0.954137926455587
83239	1	stim064_animate_insect_ant_4.png	64	animate	insect	ant	4	0	3	stars	3	correct	0.954137926455587
83289	1	stim215_targets_shapes_star_3.png	215	targets	shapes	star	3	1	3	stars	3	correct	0.954137926455587
83339	1	stim092_animate_mammal_kangaroo_4.png	92	animate	mammal	kangaroo	4	0	3	stars	3	correct	0.954137926455587
83389	1	stim043_animate_human_baby_3.png	43	animate	human	baby	3	0	3	stars	3	correct	0.954137926455587
83439	1	stim122_inanimate_fruits_apple_2.png	122	inanimate	fruits	apple	2	0	3	stars	3	correct	0.954137926455587
83489	1	stim038_animate_bird_penguin_2.png	38	animate	bird	penguin	2	0	3	stars	3	correct	0.954137926455587
83539	1	stim088_animate_mammal_giraffe_4.png	88	animate	mammal	giraffe	4	0	3	stars	3	correct	0.954137926455587
83589	1	stim115_inanimate_clothing_shirt_3.png	115	inanimate	clothing	shirt	3	0	3	stars	3	correct	0.954137926455587
83639	1	stim049_animate_human_clown_1.png	49	animate	human	clown	1	0	3	stars	3	correct	0.954137926455587
83689	1	stim001_animate_aquatic_crab_1.png	1	animate	aquatic	crab	1	0	3	stars	3	correct	0.954137926455587
83739	1	stim157_inanimate_furniture_table_1.png	157	inanimate	furniture	table	1	0	3	stars	3	correct	0.954137926455587
83789	1	stim167_inanimate_plants_cactus_3.png	167	inanimate	plants	cactus	3	0	3	stars	3	correct	0.954137926455587
83839	1	stim075_animate_insect_dragonfly_3.png	75	animate	insect	dragonfly	3	0	3	stars	3	correct	0.954137926455587
83889	1	stim151_inanimate_furniture_closet_3.png	151	inanimate	furniture	closet	3	0	3	stars	3	correct	0.954137926455587
83939	1	stim029_animate_bird_parrot_1.png	29	animate	bird	parrot	1	0	3	stars	3	correct	0.954137926455587
83989	1	stim175_inanimate_plants_tree_3.png	175	inanimate	plants	tree	3	0	3	stars	3	correct	0.954137926455587
84039	1	stim063_animate_insect_ant_3.png	63	animate	insect	ant	3	0	3	stars	3	correct	0.954137926455587
84089	1	stim162_inanimate_plants_bush_2.png	162	inanimate	plants	bush	2	0	3	stars	3	correct	0.954137926455587
84139	1	stim172_inanimate_plants_sunflower_4.png	172	inanimate	plants	sunflower	4	0	3	stars	3	correct	0.954137926455587
84189	1	stim082_animate_mammal_cow_2.png	82	animate	mammal	cow	2	0	3	stars	3	correct	0.954137926455587
84239	1	stim120_inanimate_clothing_socks_4.png	120	inanimate	clothing	socks	4	0	3	stars	3	correct	0.954137926455587
84289	1	stim021_animate_bird_chicken_1.png	21	animate	bird	chicken	1	0	3	stars	3	correct	0.954137926455587
84339	1	stim198_inanimate_tools_wrench_2.png	198	inanimate	tools	wrench	2	0	3	stars	3	correct	0.954137926455587
84389	1	stim098_animate_mammal_rhino_2.png	98	animate	mammal	rhino	2	0	3	stars	3	correct	0.954137926455587
84439	1	stim168_inanimate_plants_cactus_4.png	168	inanimate	plants	cactus	4	0	3	stars	3	correct	0.954137926455587
84489	1	stim139_inanimate_fruits_strawberry_3.png	139	inanimate	fruits	strawberry	3	0	3	stars	3	correct	0.954137926455587
84539	1	stim104_inanimate_clothing_gloves_4.png	104	inanimate	clothing	gloves	4	0	3	stars	3	correct	0.954137926455587
84589	1	stim087_animate_mammal_giraffe_3.png	87	animate	mammal	giraffe	3	0	3	stars	3	correct	0.954137926455587
84639	1	stim014_animate_aquatic_shark_2.png	14	animate	aquatic	shark	2	0	3	stars	3	correct	0.954137926455587
84689	1	stim195_inanimate_tools_scissors_3.png	195	inanimate	tools	scissors	3	0	3	stars	3	correct	0.954137926455587
84739	1	stim015_animate_aquatic_shark_3.png	15	animate	aquatic	shark	3	0	3	stars	3	correct	0.954137926455587
84789	1	stim016_animate_aquatic_shark_4.png	16	animate	aquatic	shark	4	0	3	stars	3	correct	0.954137926455587
84839	1	stim070_animate_insect_butterfly_2.png	70	animate	insect	butterfly	2	0	3	stars	3	correct	0.954137926455587
84889	1	stim097_animate_mammal_rhino_1.png	97	animate	mammal	rhino	1	0	3	stars	3	correct	0.954137926455587
84939	1	stim188_inanimate_tools_hammer_4.png	188	inanimate	tools	hammer	4	0	3	stars	3	correct	0.954137926455587
84989	1	stim103_inanimate_clothing_gloves_3.png	103	inanimate	clothing	gloves	3	0	3	stars	3	correct	0.954137926455587
85039	1	stim108_inanimate_clothing_hat_4.png	108	inanimate	clothing	hat	4	0	3	stars	3	correct	0.954137926455587
85089	1	stim012_animate_aquatic_seahorse_4.png	12	animate	aquatic	seahorse	4	0	3	stars	3	correct	0.954137926455587
85139	1	stim194_inanimate_tools_scissors_2.png	194	inanimate	tools	scissors	2	0	3	stars	3	correct	0.954137926455587
85189	1	stim164_inanimate_plants_bush_4.png	164	inanimate	plants	bush	4	0	3	stars	3	correct	0.954137926455587
85239	1	stim197_inanimate_tools_wrench_1.png	197	inanimate	tools	wrench	1	0	3	stars	3	correct	0.954137926455587
85289	1	stim017_animate_aquatic_shrimp_1.png	17	animate	aquatic	shrimp	1	0	3	stars	3	correct	0.954137926455587
85339	1	stim003_animate_aquatic_crab_3.png	3	animate	aquatic	crab	3	0	3	stars	3	correct	0.954137926455587
85389	1	stim046_animate_human_child_2.png	46	animate	human	child	2	0	3	stars	3	correct	0.954137926455587
85439	1	stim152_inanimate_furniture_closet_4.png	152	inanimate	furniture	closet	4	0	3	stars	3	correct	0.954137926455587
85489	1	stim024_animate_bird_chicken_4.png	24	animate	bird	chicken	4	0	3	stars	3	correct	0.954137926455587
85539	1	stim214_targets_shapes_star_2.png	214	targets	shapes	star	2	1	3	stars	3	correct	0.954137926455587
85589	1	stim026_animate_bird_duck_2.png	26	animate	bird	duck	2	0	3	stars	3	correct	0.954137926455587
85639	1	stim133_inanimate_fruits_pineapple_1.png	133	inanimate	fruits	pineapple	1	0	3	stars	3	correct	0.954137926455587
85689	1	stim069_animate_insect_butterfly_1.png	69	animate	insect	butterfly	1	0	3	stars	3	correct	0.954137926455587
85739	1	stim149_inanimate_furniture_closet_1.png	149	inanimate	furniture	closet	1	0	3	stars	3	correct	0.954137926455587
85789	1	stim156_inanimate_furniture_sofa_4.png	156	inanimate	furniture	sofa	4	0	3	stars	3	correct	0.954137926455587
85839	1	stim132_inanimate_fruits_grape_4.png	132	inanimate	fruits	grape	4	0	3	stars	3	correct	0.954137926455587
85889	1	stim062_animate_insect_ant_2.png	62	animate	insect	ant	2	0	3	stars	3	correct	0.954137926455587
85939	1	stim002_animate_aquatic_crab_2.png	2	animate	aquatic	crab	2	0	3	stars	3	correct	0.954137926455587
85989	1	stim154_inanimate_furniture_sofa_2.png	154	inanimate	furniture	sofa	2	0	3	stars	3	correct	0.954137926455587
86039	1	stim138_inanimate_fruits_strawberry_2.png	138	inanimate	fruits	strawberry	2	0	3	stars	3	correct	0.954137926455587
86089	1	stim005_animate_aquatic_fish_1.png	5	animate	aquatic	fish	1	0	3	stars	3	correct	0.954137926455587
86139	1	stim102_inanimate_clothing_gloves_2.png	102	inanimate	clothing	gloves	2	0	3	stars	3	correct	0.954137926455587
86189	1	stim114_inanimate_clothing_shirt_2.png	114	inanimate	clothing	shirt	2	0	3	stars	3	correct	0.954137926455587
86239	1	stim173_inanimate_plants_tree_1.png	173	inanimate	plants	tree	1	0	3	stars	3	correct	0.954137926455587
86289	1	stim051_animate_human_clown_3.png	51	animate	human	clown	3	0	3	stars	3	correct	0.954137926455587
86339	1	stim004_animate_aquatic_crab_4.png	4	animate	aquatic	crab	4	0	3	stars	3	correct	0.954137926455587
86389	1	stim182_inanimate_tools_broom_2.png	182	inanimate	tools	broom	2	0	3	stars	3	correct	0.954137926455587
86439	1	stim033_animate_bird_peacock_1.png	33	animate	bird	peacock	1	0	3	stars	3	correct	0.954137926455587
86489	1	stim189_inanimate_tools_pan_1.png	189	inanimate	tools	pan	1	0	3	stars	3	correct	0.954137926455587
86539	1	stim166_inanimate_plants_cactus_2.png	166	inanimate	plants	cactus	2	0	3	stars	3	correct	0.954137926455587
86589	1	stim119_inanimate_clothing_socks_3.png	119	inanimate	clothing	socks	3	0	3	stars	3	correct	0.954137926455587
86639	1	stim079_animate_insect_grasshopper_3.png	79	animate	insect	grasshopper	3	0	3	stars	3	correct	0.954137926455587
86689	1	stim131_inanimate_fruits_grape_3.png	131	inanimate	fruits	grape	3	0	3	stars	3	correct	0.954137926455587
86739	1	stim065_animate_insect_bug_1.png	65	animate	insect	bug	1	0	3	stars	3	correct	0.954137926455587
86789	1	stim111_inanimate_clothing_jeans_3.png	111	inanimate	clothing	jeans	3	0	3	stars	3	correct	0.954137926455587
86839	1	stim140_inanimate_fruits_strawberry_4.png	140	inanimate	fruits	strawberry	4	0	3	stars	3	correct	0.954137926455587
86889	1	stim174_inanimate_plants_tree_2.png	174	inanimate	plants	tree	2	0	3	stars	3	correct	0.954137926455587
86939	1	stim196_inanimate_tools_scissors_4.png	196	inanimate	tools	scissors	4	0	3	stars	3	correct	0.954137926455587
86989	1	stim112_inanimate_clothing_jeans_4.png	112	inanimate	clothing	jeans	4	0	3	stars	3	correct	0.954137926455587
87039	1	stim066_animate_insect_bug_2.png	66	animate	insect	bug	2	0	3	stars	3	correct	0.954137926455587
87089	1	stim074_animate_insect_dragonfly_2.png	74	animate	insect	dragonfly	2	0	3	stars	3	correct	0.954137926455587
87139	1	stim061_animate_insect_ant_1.png	61	animate	insect	ant	1	0	3	stars	3	correct	0.954137926455587
87189	1	stim077_animate_insect_grasshopper_1.png	77	animate	insect	grasshopper	1	0	3	stars	3	correct	0.954137926455587
87239	1	stim179_inanimate_plants_tulip_3.png	179	inanimate	plants	tulip	3	0	3	stars	3	correct	0.954137926455587
87289	1	stim155_inanimate_furniture_sofa_3.png	155	inanimate	furniture	sofa	3	0	3	stars	3	correct	0.954137926455587
87339	1	stim134_inanimate_fruits_pineapple_2.png	134	inanimate	fruits	pineapple	2	0	3	stars	3	correct	0.954137926455587
87389	1	stim127_inanimate_fruits_banana_3.png	127	inanimate	fruits	banana	3	0	3	stars	3	correct	0.954137926455587
87439	1	stim032_animate_bird_parrot_4.png	32	animate	bird	parrot	4	0	3	stars	3	correct	0.954137926455587
87489	1	stim071_animate_insect_butterfly_3.png	71	animate	insect	butterfly	3	0	3	stars	3	correct	0.954137926455587
87539	1	stim095_animate_mammal_monkey_3.png	95	animate	mammal	monkey	3	0	3	stars	3	correct	0.954137926455587
87589	1	stim080_animate_insect_grasshopper_4.png	80	animate	insect	grasshopper	4	0	3	stars	3	correct	0.954137926455587
87639	1	stim059_animate_human_sports_3.png	59	animate	human	sports	3	0	3	stars	3	correct	0.954137926455587
87689	1	stim143_inanimate_furniture_bed_3.png	143	inanimate	furniture	bed	3	0	3	stars	3	correct	0.954137926455587
87739	1	stim107_inanimate_clothing_hat_3.png	107	inanimate	clothing	hat	3	0	3	stars	3	correct	0.954137926455587
87789	1	stim184_inanimate_tools_broom_4.png	184	inanimate	tools	broom	4	0	3	stars	3	correct	0.954137926455587
87839	1	stim013_animate_aquatic_shark_1.png	13	animate	aquatic	shark	1	0	3	stars	3	correct	0.954137926455587
87889	1	stim093_animate_mammal_monkey_1.png	93	animate	mammal	monkey	1	0	3	stars	3	correct	0.954137926455587
87939	1	stim110_inanimate_clothing_jeans_2.png	110	inanimate	clothing	jeans	2	0	3	stars	3	correct	0.954137926455587
87989	1	stim028_animate_bird_duck_4.png	28	animate	bird	duck	4	0	3	stars	3	correct	0.954137926455587
88039	1	stim116_inanimate_clothing_shirt_4.png	116	inanimate	clothing	shirt	4	0	3	stars	3	correct	0.954137926455587
88089	1	stim180_inanimate_plants_tulip_4.png	180	inanimate	plants	tulip	4	0	3	stars	3	correct	0.954137926455587
88139	1	stim052_animate_human_clown_4.png	52	animate	human	clown	4	0	3	stars	3	correct	0.954137926455587
88189	1	stim118_inanimate_clothing_socks_2.png	118	inanimate	clothing	socks	2	0	3	stars	3	correct	0.954137926455587
88239	1	stim007_animate_aquatic_fish_3.png	7	animate	aquatic	fish	3	0	3	stars	3	correct	0.954137926455587
88289	1	stim057_animate_human_sports_1.png	57	animate	human	sports	1	0	3	stars	3	correct	0.954137926455587
88339	1	stim123_inanimate_fruits_apple_3.png	123	inanimate	fruits	apple	3	0	3	stars	3	correct	0.954137926455587
88389	1	stim027_animate_bird_duck_3.png	27	animate	bird	duck	3	0	3	stars	3	correct	0.954137926455587
92039	1	stim035_animate_bird_peacock_3.png	35	animate	bird	peacock	3	0	4	stars	3	incorrect	0.728622701950371
92089	1	stim121_inanimate_fruits_apple_1.png	121	inanimate	fruits	apple	1	0	4	stars	3	incorrect	0.728622701950371
92139	1	stim145_inanimate_furniture_chair_1.png	145	inanimate	furniture	chair	1	0	4	stars	3	incorrect	0.728622701950371
92189	1	stim024_animate_bird_chicken_4.png	24	animate	bird	chicken	4	0	4	stars	3	incorrect	0.728622701950371
92239	1	stim124_inanimate_fruits_apple_4.png	124	inanimate	fruits	apple	4	0	4	stars	3	incorrect	0.728622701950371
92289	1	stim058_animate_human_sports_2.png	58	animate	human	sports	2	0	4	stars	3	incorrect	0.728622701950371
92339	1	stim102_inanimate_clothing_gloves_2.png	102	inanimate	clothing	gloves	2	0	4	stars	3	incorrect	0.728622701950371
92389	1	stim163_inanimate_plants_bush_3.png	163	inanimate	plants	bush	3	0	4	stars	3	incorrect	0.728622701950371
92439	1	stim012_animate_aquatic_seahorse_4.png	12	animate	aquatic	seahorse	4	0	4	stars	3	incorrect	0.728622701950371
92489	1	stim173_inanimate_plants_tree_1.png	173	inanimate	plants	tree	1	0	4	stars	3	incorrect	0.728622701950371
92539	1	stim139_inanimate_fruits_strawberry_3.png	139	inanimate	fruits	strawberry	3	0	4	stars	3	incorrect	0.728622701950371
92589	1	stim033_animate_bird_peacock_1.png	33	animate	bird	peacock	1	0	4	stars	3	incorrect	0.728622701950371
92639	1	stim085_animate_mammal_giraffe_1.png	85	animate	mammal	giraffe	1	0	4	stars	3	incorrect	0.728622701950371
92689	1	stim072_animate_insect_butterfly_4.png	72	animate	insect	butterfly	4	0	4	stars	3	incorrect	0.728622701950371
92739	1	stim165_inanimate_plants_cactus_1.png	165	inanimate	plants	cactus	1	0	4	stars	3	incorrect	0.728622701950371
92789	1	stim070_animate_insect_butterfly_2.png	70	animate	insect	butterfly	2	0	4	stars	3	incorrect	0.728622701950371
92839	1	stim087_animate_mammal_giraffe_3.png	87	animate	mammal	giraffe	3	0	4	stars	3	incorrect	0.728622701950371
92889	1	stim164_inanimate_plants_bush_4.png	164	inanimate	plants	bush	4	0	4	stars	3	incorrect	0.728622701950371
92939	1	stim004_animate_aquatic_crab_4.png	4	animate	aquatic	crab	4	0	4	stars	3	incorrect	0.728622701950371
92989	1	stim066_animate_insect_bug_2.png	66	animate	insect	bug	2	0	4	stars	3	incorrect	0.728622701950371
93039	1	stim016_animate_aquatic_shark_4.png	16	animate	aquatic	shark	4	0	4	stars	3	incorrect	0.728622701950371
93089	1	stim160_inanimate_furniture_table_4.png	160	inanimate	furniture	table	4	0	4	stars	3	incorrect	0.728622701950371
93139	1	stim134_inanimate_fruits_pineapple_2.png	134	inanimate	fruits	pineapple	2	0	4	stars	3	incorrect	0.728622701950371
93189	1	stim197_inanimate_tools_wrench_1.png	197	inanimate	tools	wrench	1	0	4	stars	3	incorrect	0.728622701950371
93239	1	stim200_inanimate_tools_wrench_4.png	200	inanimate	tools	wrench	4	0	4	stars	3	incorrect	0.728622701950371
93289	1	stim050_animate_human_clown_2.png	50	animate	human	clown	2	0	4	stars	3	incorrect	0.728622701950371
93339	1	stim075_animate_insect_dragonfly_3.png	75	animate	insect	dragonfly	3	0	4	stars	3	incorrect	0.728622701950371
93389	1	stim112_inanimate_clothing_jeans_4.png	112	inanimate	clothing	jeans	4	0	4	stars	3	incorrect	0.728622701950371
93439	1	stim193_inanimate_tools_scissors_1.png	193	inanimate	tools	scissors	1	0	4	stars	3	incorrect	0.728622701950371
93489	1	stim161_inanimate_plants_bush_1.png	161	inanimate	plants	bush	1	0	4	stars	3	incorrect	0.728622701950371
93539	1	stim147_inanimate_furniture_chair_3.png	147	inanimate	furniture	chair	3	0	4	stars	3	incorrect	0.728622701950371
93589	1	stim146_inanimate_furniture_chair_2.png	146	inanimate	furniture	chair	2	0	4	stars	3	incorrect	0.728622701950371
93639	1	stim183_inanimate_tools_broom_3.png	183	inanimate	tools	broom	3	0	4	stars	3	incorrect	0.728622701950371
93689	1	stim156_inanimate_furniture_sofa_4.png	156	inanimate	furniture	sofa	4	0	4	stars	3	incorrect	0.728622701950371
93739	1	stim157_inanimate_furniture_table_1.png	157	inanimate	furniture	table	1	0	4	stars	3	incorrect	0.728622701950371
93789	1	stim154_inanimate_furniture_sofa_2.png	154	inanimate	furniture	sofa	2	0	4	stars	3	incorrect	0.728622701950371
93839	1	stim095_animate_mammal_monkey_3.png	95	animate	mammal	monkey	3	0	4	stars	3	incorrect	0.728622701950371
93889	1	stim027_animate_bird_duck_3.png	27	animate	bird	duck	3	0	4	stars	3	incorrect	0.728622701950371
93939	1	stim063_animate_insect_ant_3.png	63	animate	insect	ant	3	0	4	stars	3	incorrect	0.728622701950371
93989	1	stim064_animate_insect_ant_4.png	64	animate	insect	ant	4	0	4	stars	3	incorrect	0.728622701950371
94039	1	stim044_animate_human_baby_4.png	44	animate	human	baby	4	0	4	stars	3	incorrect	0.728622701950371
94089	1	stim150_inanimate_furniture_closet_2.png	150	inanimate	furniture	closet	2	0	4	stars	3	incorrect	0.728622701950371
94139	1	stim093_animate_mammal_monkey_1.png	93	animate	mammal	monkey	1	0	4	stars	3	incorrect	0.728622701950371
94189	1	stim030_animate_bird_parrot_2.png	30	animate	bird	parrot	2	0	4	stars	3	incorrect	0.728622701950371
94239	1	stim149_inanimate_furniture_closet_1.png	149	inanimate	furniture	closet	1	0	4	stars	3	incorrect	0.728622701950371
94289	1	stim172_inanimate_plants_sunflower_4.png	172	inanimate	plants	sunflower	4	0	4	stars	3	incorrect	0.728622701950371
94339	1	stim199_inanimate_tools_wrench_3.png	199	inanimate	tools	wrench	3	0	4	stars	3	incorrect	0.728622701950371
94389	1	stim031_animate_bird_parrot_3.png	31	animate	bird	parrot	3	0	4	stars	3	incorrect	0.728622701950371
94439	1	stim101_inanimate_clothing_gloves_1.png	101	inanimate	clothing	gloves	1	0	4	stars	3	incorrect	0.728622701950371
94489	1	stim135_inanimate_fruits_pineapple_3.png	135	inanimate	fruits	pineapple	3	0	4	stars	3	incorrect	0.728622701950371
94539	1	stim076_animate_insect_dragonfly_4.png	76	animate	insect	dragonfly	4	0	4	stars	3	incorrect	0.728622701950371
94589	1	stim091_animate_mammal_kangaroo_3.png	91	animate	mammal	kangaroo	3	0	4	stars	3	incorrect	0.728622701950371
94639	1	stim210_targets_shapes_star_2.png	210	targets	shapes	star	2	1	4	stars	3	incorrect	0.728622701950371
94689	1	stim188_inanimate_tools_hammer_4.png	188	inanimate	tools	hammer	4	0	4	stars	3	incorrect	0.728622701950371
94739	1	stim077_animate_insect_grasshopper_1.png	77	animate	insect	grasshopper	1	0	4	stars	3	incorrect	0.728622701950371
94789	1	stim002_animate_aquatic_crab_2.png	2	animate	aquatic	crab	2	0	4	stars	3	incorrect	0.728622701950371
94839	1	stim128_inanimate_fruits_banana_4.png	128	inanimate	fruits	banana	4	0	4	stars	3	incorrect	0.728622701950371
94889	1	stim176_inanimate_plants_tree_4.png	176	inanimate	plants	tree	4	0	4	stars	3	incorrect	0.728622701950371
94939	1	stim015_animate_aquatic_shark_3.png	15	animate	aquatic	shark	3	0	4	stars	3	incorrect	0.728622701950371
94989	1	stim098_animate_mammal_rhino_2.png	98	animate	mammal	rhino	2	0	4	stars	3	incorrect	0.728622701950371
95039	1	stim034_animate_bird_peacock_2.png	34	animate	bird	peacock	2	0	4	stars	3	incorrect	0.728622701950371
95089	1	stim144_inanimate_furniture_bed_4.png	144	inanimate	furniture	bed	4	0	4	stars	3	incorrect	0.728622701950371
95139	1	stim090_animate_mammal_kangaroo_2.png	90	animate	mammal	kangaroo	2	0	4	stars	3	incorrect	0.728622701950371
95189	1	stim113_inanimate_clothing_shirt_1.png	113	inanimate	clothing	shirt	1	0	4	stars	3	incorrect	0.728622701950371
95239	1	stim196_inanimate_tools_scissors_4.png	196	inanimate	tools	scissors	4	0	4	stars	3	incorrect	0.728622701950371
95289	1	stim133_inanimate_fruits_pineapple_1.png	133	inanimate	fruits	pineapple	1	0	4	stars	3	incorrect	0.728622701950371
95339	1	stim009_animate_aquatic_seahorse_1.png	9	animate	aquatic	seahorse	1	0	4	stars	3	incorrect	0.728622701950371
95389	1	stim096_animate_mammal_monkey_4.png	96	animate	mammal	monkey	4	0	4	stars	3	incorrect	0.728622701950371
95439	1	stim019_animate_aquatic_shrimp_3.png	19	animate	aquatic	shrimp	3	0	4	stars	3	incorrect	0.728622701950371
95489	1	stim083_animate_mammal_cow_3.png	83	animate	mammal	cow	3	0	4	stars	3	incorrect	0.728622701950371
95539	1	stim153_inanimate_furniture_sofa_1.png	153	inanimate	furniture	sofa	1	0	4	stars	3	incorrect	0.728622701950371
95589	1	stim195_inanimate_tools_scissors_3.png	195	inanimate	tools	scissors	3	0	4	stars	3	incorrect	0.728622701950371
95639	1	stim109_inanimate_clothing_jeans_1.png	109	inanimate	clothing	jeans	1	0	4	stars	3	incorrect	0.728622701950371
95689	1	stim056_animate_human_faces_4.png	56	animate	human	faces	4	0	4	stars	3	incorrect	0.728622701950371
95739	1	stim198_inanimate_tools_wrench_2.png	198	inanimate	tools	wrench	2	0	4	stars	3	incorrect	0.728622701950371
95789	1	stim018_animate_aquatic_shrimp_2.png	18	animate	aquatic	shrimp	2	0	4	stars	3	incorrect	0.728622701950371
95839	1	stim008_animate_aquatic_fish_4.png	8	animate	aquatic	fish	4	0	4	stars	3	incorrect	0.728622701950371
95889	1	stim136_inanimate_fruits_pineapple_4.png	136	inanimate	fruits	pineapple	4	0	4	stars	3	incorrect	0.728622701950371
95939	1	stim118_inanimate_clothing_socks_2.png	118	inanimate	clothing	socks	2	0	4	stars	3	incorrect	0.728622701950371
95989	1	stim214_targets_shapes_star_2.png	214	targets	shapes	star	2	1	4	stars	3	incorrect	0.728622701950371
96039	1	stim167_inanimate_plants_cactus_3.png	167	inanimate	plants	cactus	3	0	4	stars	3	incorrect	0.728622701950371
96089	1	stim080_animate_insect_grasshopper_4.png	80	animate	insect	grasshopper	4	0	4	stars	3	incorrect	0.728622701950371
96139	1	stim185_inanimate_tools_hammer_1.png	185	inanimate	tools	hammer	1	0	4	stars	3	incorrect	0.728622701950371
96189	1	stim127_inanimate_fruits_banana_3.png	127	inanimate	fruits	banana	3	0	4	stars	3	incorrect	0.728622701950371
96239	1	stim052_animate_human_clown_4.png	52	animate	human	clown	4	0	4	stars	3	incorrect	0.728622701950371
96289	1	stim131_inanimate_fruits_grape_3.png	131	inanimate	fruits	grape	3	0	4	stars	3	incorrect	0.728622701950371
96339	1	stim041_animate_human_baby_1.png	41	animate	human	baby	1	0	4	stars	3	incorrect	0.728622701950371
96389	1	stim017_animate_aquatic_shrimp_1.png	17	animate	aquatic	shrimp	1	0	4	stars	3	incorrect	0.728622701950371
96439	1	stim148_inanimate_furniture_chair_4.png	148	inanimate	furniture	chair	4	0	4	stars	3	incorrect	0.728622701950371
96489	1	stim169_inanimate_plants_sunflower_1.png	169	inanimate	plants	sunflower	1	0	4	stars	3	incorrect	0.728622701950371
96539	1	stim190_inanimate_tools_pan_2.png	190	inanimate	tools	pan	2	0	4	stars	3	incorrect	0.728622701950371
96589	1	stim159_inanimate_furniture_table_3.png	159	inanimate	furniture	table	3	0	4	stars	3	incorrect	0.728622701950371
96639	1	stim162_inanimate_plants_bush_2.png	162	inanimate	plants	bush	2	0	4	stars	3	incorrect	0.728622701950371
96689	1	stim048_animate_human_child_4.png	48	animate	human	child	4	0	4	stars	3	incorrect	0.728622701950371
96739	1	stim011_animate_aquatic_seahorse_3.png	11	animate	aquatic	seahorse	3	0	4	stars	3	incorrect	0.728622701950371
96789	1	stim069_animate_insect_butterfly_1.png	69	animate	insect	butterfly	1	0	4	stars	3	incorrect	0.728622701950371
96839	1	stim181_inanimate_tools_broom_1.png	181	inanimate	tools	broom	1	0	4	stars	3	incorrect	0.728622701950371
96889	1	stim022_animate_bird_chicken_2.png	22	animate	bird	chicken	2	0	4	stars	3	incorrect	0.728622701950371
96939	1	stim122_inanimate_fruits_apple_2.png	122	inanimate	fruits	apple	2	0	4	stars	3	incorrect	0.728622701950371
96989	1	stim028_animate_bird_duck_4.png	28	animate	bird	duck	4	0	4	stars	3	incorrect	0.728622701950371
97039	1	stim053_animate_human_faces_1.png	53	animate	human	faces	1	0	4	stars	3	incorrect	0.728622701950371
97089	1	stim040_animate_bird_penguin_4.png	40	animate	bird	penguin	4	0	4	stars	3	incorrect	0.728622701950371
97139	1	stim111_inanimate_clothing_jeans_3.png	111	inanimate	clothing	jeans	3	0	4	stars	3	incorrect	0.728622701950371
97189	1	stim065_animate_insect_bug_1.png	65	animate	insect	bug	1	0	4	stars	3	incorrect	0.728622701950371
97239	1	stim140_inanimate_fruits_strawberry_4.png	140	inanimate	fruits	strawberry	4	0	4	stars	3	incorrect	0.728622701950371
97289	1	stim108_inanimate_clothing_hat_4.png	108	inanimate	clothing	hat	4	0	4	stars	3	incorrect	0.728622701950371
97339	1	stim010_animate_aquatic_seahorse_2.png	10	animate	aquatic	seahorse	2	0	4	stars	3	incorrect	0.728622701950371
97389	1	stim182_inanimate_tools_broom_2.png	182	inanimate	tools	broom	2	0	4	stars	3	incorrect	0.728622701950371
97439	1	stim155_inanimate_furniture_sofa_3.png	155	inanimate	furniture	sofa	3	0	4	stars	3	incorrect	0.728622701950371
97489	1	stim192_inanimate_tools_pan_4.png	192	inanimate	tools	pan	4	0	4	stars	3	incorrect	0.728622701950371
97539	1	stim046_animate_human_child_2.png	46	animate	human	child	2	0	4	stars	3	incorrect	0.728622701950371
97589	1	stim126_inanimate_fruits_banana_2.png	126	inanimate	fruits	banana	2	0	4	stars	3	incorrect	0.728622701950371
97639	1	stim001_animate_aquatic_crab_1.png	1	animate	aquatic	crab	1	0	4	stars	3	incorrect	0.728622701950371
97689	1	stim151_inanimate_furniture_closet_3.png	151	inanimate	furniture	closet	3	0	4	stars	3	incorrect	0.728622701950371
97739	1	stim062_animate_insect_ant_2.png	62	animate	insect	ant	2	0	4	stars	3	incorrect	0.728622701950371
97789	1	stim168_inanimate_plants_cactus_4.png	168	inanimate	plants	cactus	4	0	4	stars	3	incorrect	0.728622701950371
97839	1	stim114_inanimate_clothing_shirt_2.png	114	inanimate	clothing	shirt	2	0	4	stars	3	incorrect	0.728622701950371
97889	1	stim106_inanimate_clothing_hat_2.png	106	inanimate	clothing	hat	2	0	4	stars	3	incorrect	0.728622701950371
97939	1	stim037_animate_bird_penguin_1.png	37	animate	bird	penguin	1	0	4	stars	3	incorrect	0.728622701950371
97989	1	stim119_inanimate_clothing_socks_3.png	119	inanimate	clothing	socks	3	0	4	stars	3	incorrect	0.728622701950371
98039	1	stim047_animate_human_child_3.png	47	animate	human	child	3	0	4	stars	3	incorrect	0.728622701950371
98089	1	stim137_inanimate_fruits_strawberry_1.png	137	inanimate	fruits	strawberry	1	0	4	stars	3	incorrect	0.728622701950371
98139	1	stim025_animate_bird_duck_1.png	25	animate	bird	duck	1	0	4	stars	3	incorrect	0.728622701950371
98189	1	stim120_inanimate_clothing_socks_4.png	120	inanimate	clothing	socks	4	0	4	stars	3	incorrect	0.728622701950371
98239	1	stim215_targets_shapes_star_3.png	215	targets	shapes	star	3	1	4	stars	3	incorrect	0.728622701950371
98289	1	stim081_animate_mammal_cow_1.png	81	animate	mammal	cow	1	0	4	stars	3	incorrect	0.728622701950371
98339	1	stim100_animate_mammal_rhino_4.png	100	animate	mammal	rhino	4	0	4	stars	3	incorrect	0.728622701950371
98389	1	stim117_inanimate_clothing_socks_1.png	117	inanimate	clothing	socks	1	0	4	stars	3	incorrect	0.728622701950371
98439	1	stim092_animate_mammal_kangaroo_4.png	92	animate	mammal	kangaroo	4	0	4	stars	3	incorrect	0.728622701950371
98489	1	stim067_animate_insect_bug_3.png	67	animate	insect	bug	3	0	4	stars	3	incorrect	0.728622701950371
98539	1	stim039_animate_bird_penguin_3.png	39	animate	bird	penguin	3	0	4	stars	3	incorrect	0.728622701950371
98589	1	stim171_inanimate_plants_sunflower_3.png	171	inanimate	plants	sunflower	3	0	4	stars	3	incorrect	0.728622701950371
98639	1	stim068_animate_insect_bug_4.png	68	animate	insect	bug	4	0	4	stars	3	incorrect	0.728622701950371
98689	1	stim175_inanimate_plants_tree_3.png	175	inanimate	plants	tree	3	0	4	stars	3	incorrect	0.728622701950371
98739	1	stim071_animate_insect_butterfly_3.png	71	animate	insect	butterfly	3	0	4	stars	3	incorrect	0.728622701950371
98789	1	stim116_inanimate_clothing_shirt_4.png	116	inanimate	clothing	shirt	4	0	4	stars	3	incorrect	0.728622701950371
98839	1	stim045_animate_human_child_1.png	45	animate	human	child	1	0	4	stars	3	incorrect	0.728622701950371
98889	1	stim032_animate_bird_parrot_4.png	32	animate	bird	parrot	4	0	4	stars	3	incorrect	0.728622701950371
98939	1	stim097_animate_mammal_rhino_1.png	97	animate	mammal	rhino	1	0	4	stars	3	incorrect	0.728622701950371
98989	1	stim094_animate_mammal_monkey_2.png	94	animate	mammal	monkey	2	0	4	stars	3	incorrect	0.728622701950371
99039	1	stim006_animate_aquatic_fish_2.png	6	animate	aquatic	fish	2	0	4	stars	3	incorrect	0.728622701950371
99089	1	stim061_animate_insect_ant_1.png	61	animate	insect	ant	1	0	4	stars	3	incorrect	0.728622701950371
99139	1	stim073_animate_insect_dragonfly_1.png	73	animate	insect	dragonfly	1	0	4	stars	3	incorrect	0.728622701950371
99189	1	stim212_targets_shapes_star_4.png	212	targets	shapes	star	4	1	4	stars	3	incorrect	0.728622701950371
99239	1	stim023_animate_bird_chicken_3.png	23	animate	bird	chicken	3	0	4	stars	3	incorrect	0.728622701950371
99289	1	stim060_animate_human_sports_4.png	60	animate	human	sports	4	0	4	stars	3	incorrect	0.728622701950371
99339	1	stim029_animate_bird_parrot_1.png	29	animate	bird	parrot	1	0	4	stars	3	incorrect	0.728622701950371
99389	1	stim013_animate_aquatic_shark_1.png	13	animate	aquatic	shark	1	0	4	stars	3	incorrect	0.728622701950371
99439	1	stim142_inanimate_furniture_bed_2.png	142	inanimate	furniture	bed	2	0	4	stars	3	incorrect	0.728622701950371
99489	1	stim082_animate_mammal_cow_2.png	82	animate	mammal	cow	2	0	4	stars	3	incorrect	0.728622701950371
99539	1	stim179_inanimate_plants_tulip_3.png	179	inanimate	plants	tulip	3	0	4	stars	3	incorrect	0.728622701950371
99589	1	stim003_animate_aquatic_crab_3.png	3	animate	aquatic	crab	3	0	4	stars	3	incorrect	0.728622701950371
99639	1	stim026_animate_bird_duck_2.png	26	animate	bird	duck	2	0	4	stars	3	incorrect	0.728622701950371
99689	1	stim084_animate_mammal_cow_4.png	84	animate	mammal	cow	4	0	4	stars	3	incorrect	0.728622701950371
99739	1	stim043_animate_human_baby_3.png	43	animate	human	baby	3	0	4	stars	3	incorrect	0.728622701950371
99789	1	stim059_animate_human_sports_3.png	59	animate	human	sports	3	0	4	stars	3	incorrect	0.728622701950371
99839	1	stim132_inanimate_fruits_grape_4.png	132	inanimate	fruits	grape	4	0	4	stars	3	incorrect	0.728622701950371
99889	1	stim021_animate_bird_chicken_1.png	21	animate	bird	chicken	1	0	4	stars	3	incorrect	0.728622701950371
99939	1	stim104_inanimate_clothing_gloves_4.png	104	inanimate	clothing	gloves	4	0	4	stars	3	incorrect	0.728622701950371
99989	1	stim078_animate_insect_grasshopper_2.png	78	animate	insect	grasshopper	2	0	4	stars	3	incorrect	0.728622701950371
100039	1	stim184_inanimate_tools_broom_4.png	184	inanimate	tools	broom	4	0	4	stars	3	incorrect	0.728622701950371
100089	1	stim143_inanimate_furniture_bed_3.png	143	inanimate	furniture	bed	3	0	4	stars	3	incorrect	0.728622701950371
100139	1	stim180_inanimate_plants_tulip_4.png	180	inanimate	plants	tulip	4	0	4	stars	3	incorrect	0.728622701950371
100189	1	stim189_inanimate_tools_pan_1.png	189	inanimate	tools	pan	1	0	4	stars	3	incorrect	0.728622701950371
100239	1	stim186_inanimate_tools_hammer_2.png	186	inanimate	tools	hammer	2	0	4	stars	3	incorrect	0.728622701950371
100289	1	stim036_animate_bird_peacock_4.png	36	animate	bird	peacock	4	0	4	stars	3	incorrect	0.728622701950371
100339	1	stim054_animate_human_faces_2.png	54	animate	human	faces	2	0	4	stars	3	incorrect	0.728622701950371
100389	1	stim115_inanimate_clothing_shirt_3.png	115	inanimate	clothing	shirt	3	0	4	stars	3	incorrect	0.728622701950371
100439	1	stim103_inanimate_clothing_gloves_3.png	103	inanimate	clothing	gloves	3	0	4	stars	3	incorrect	0.728622701950371
100489	1	stim158_inanimate_furniture_table_2.png	158	inanimate	furniture	table	2	0	4	stars	3	incorrect	0.728622701950371
100539	1	stim177_inanimate_plants_tulip_1.png	177	inanimate	plants	tulip	1	0	4	stars	3	incorrect	0.728622701950371
100589	1	stim038_animate_bird_penguin_2.png	38	animate	bird	penguin	2	0	4	stars	3	incorrect	0.728622701950371
100639	1	stim141_inanimate_furniture_bed_1.png	141	inanimate	furniture	bed	1	0	4	stars	3	incorrect	0.728622701950371
100689	1	stim099_animate_mammal_rhino_3.png	99	animate	mammal	rhino	3	0	4	stars	3	incorrect	0.728622701950371
100739	1	stim174_inanimate_plants_tree_2.png	174	inanimate	plants	tree	2	0	4	stars	3	incorrect	0.728622701950371
100789	1	stim049_animate_human_clown_1.png	49	animate	human	clown	1	0	4	stars	3	incorrect	0.728622701950371
100839	1	stim170_inanimate_plants_sunflower_2.png	170	inanimate	plants	sunflower	2	0	4	stars	3	incorrect	0.728622701950371
100889	1	stim086_animate_mammal_giraffe_2.png	86	animate	mammal	giraffe	2	0	4	stars	3	incorrect	0.728622701950371
100939	1	stim005_animate_aquatic_fish_1.png	5	animate	aquatic	fish	1	0	4	stars	3	incorrect	0.728622701950371
100989	1	stim125_inanimate_fruits_banana_1.png	125	inanimate	fruits	banana	1	0	4	stars	3	incorrect	0.728622701950371
101039	1	stim166_inanimate_plants_cactus_2.png	166	inanimate	plants	cactus	2	0	4	stars	3	incorrect	0.728622701950371
101089	1	stim057_animate_human_sports_1.png	57	animate	human	sports	1	0	4	stars	3	incorrect	0.728622701950371
101139	1	stim074_animate_insect_dragonfly_2.png	74	animate	insect	dragonfly	2	0	4	stars	3	incorrect	0.728622701950371
101189	1	stim079_animate_insect_grasshopper_3.png	79	animate	insect	grasshopper	3	0	4	stars	3	incorrect	0.728622701950371
101239	1	stim129_inanimate_fruits_grape_1.png	129	inanimate	fruits	grape	1	0	4	stars	3	incorrect	0.728622701950371
101289	1	stim088_animate_mammal_giraffe_4.png	88	animate	mammal	giraffe	4	0	4	stars	3	incorrect	0.728622701950371
101339	1	stim138_inanimate_fruits_strawberry_2.png	138	inanimate	fruits	strawberry	2	0	4	stars	3	incorrect	0.728622701950371
101389	1	stim020_animate_aquatic_shrimp_4.png	20	animate	aquatic	shrimp	4	0	4	stars	3	incorrect	0.728622701950371
101439	1	stim194_inanimate_tools_scissors_2.png	194	inanimate	tools	scissors	2	0	4	stars	3	incorrect	0.728622701950371
101489	1	stim014_animate_aquatic_shark_2.png	14	animate	aquatic	shark	2	0	4	stars	3	incorrect	0.728622701950371
101539	1	stim123_inanimate_fruits_apple_3.png	123	inanimate	fruits	apple	3	0	4	stars	3	incorrect	0.728622701950371
101589	1	stim152_inanimate_furniture_closet_4.png	152	inanimate	furniture	closet	4	0	4	stars	3	incorrect	0.728622701950371
101639	1	stim007_animate_aquatic_fish_3.png	7	animate	aquatic	fish	3	0	4	stars	3	incorrect	0.728622701950371
101689	1	stim042_animate_human_baby_2.png	42	animate	human	baby	2	0	4	stars	3	incorrect	0.728622701950371
101739	1	stim110_inanimate_clothing_jeans_2.png	110	inanimate	clothing	jeans	2	0	4	stars	3	incorrect	0.728622701950371
101789	1	stim191_inanimate_tools_pan_3.png	191	inanimate	tools	pan	3	0	4	stars	3	incorrect	0.728622701950371
101839	1	stim187_inanimate_tools_hammer_3.png	187	inanimate	tools	hammer	3	0	4	stars	3	incorrect	0.728622701950371
101889	1	stim130_inanimate_fruits_grape_2.png	130	inanimate	fruits	grape	2	0	4	stars	3	incorrect	0.728622701950371
101939	1	stim107_inanimate_clothing_hat_3.png	107	inanimate	clothing	hat	3	0	4	stars	3	incorrect	0.728622701950371
101989	1	stim178_inanimate_plants_tulip_2.png	178	inanimate	plants	tulip	2	0	4	stars	3	incorrect	0.728622701950371
102039	1	stim051_animate_human_clown_3.png	51	animate	human	clown	3	0	4	stars	3	incorrect	0.728622701950371
102089	1	stim055_animate_human_faces_3.png	55	animate	human	faces	3	0	4	stars	3	incorrect	0.728622701950371
102139	1	stim089_animate_mammal_kangaroo_1.png	89	animate	mammal	kangaroo	1	0	4	stars	3	incorrect	0.728622701950371
102189	1	stim105_inanimate_clothing_hat_1.png	105	inanimate	clothing	hat	1	0	4	stars	3	incorrect	0.728622701950371
107189	1	stim011_animate_aquatic_seahorse_3.png	11	animate	aquatic	seahorse	3	0	5	stars	3	correct	0.7488742696587
107239	1	stim161_inanimate_plants_bush_1.png	161	inanimate	plants	bush	1	0	5	stars	3	correct	0.7488742696587
107289	1	stim072_animate_insect_butterfly_4.png	72	animate	insect	butterfly	4	0	5	stars	3	correct	0.7488742696587
107339	1	stim093_animate_mammal_monkey_1.png	93	animate	mammal	monkey	1	0	5	stars	3	correct	0.7488742696587
107389	1	stim051_animate_human_clown_3.png	51	animate	human	clown	3	0	5	stars	3	correct	0.7488742696587
107439	1	stim123_inanimate_fruits_apple_3.png	123	inanimate	fruits	apple	3	0	5	stars	3	correct	0.7488742696587
107489	1	stim159_inanimate_furniture_table_3.png	159	inanimate	furniture	table	3	0	5	stars	3	correct	0.7488742696587
107539	1	stim046_animate_human_child_2.png	46	animate	human	child	2	0	5	stars	3	correct	0.7488742696587
107589	1	stim165_inanimate_plants_cactus_1.png	165	inanimate	plants	cactus	1	0	5	stars	3	correct	0.7488742696587
107639	1	stim047_animate_human_child_3.png	47	animate	human	child	3	0	5	stars	3	correct	0.7488742696587
107689	1	stim136_inanimate_fruits_pineapple_4.png	136	inanimate	fruits	pineapple	4	0	5	stars	3	correct	0.7488742696587
107739	1	stim021_animate_bird_chicken_1.png	21	animate	bird	chicken	1	0	5	stars	3	correct	0.7488742696587
107789	1	stim048_animate_human_child_4.png	48	animate	human	child	4	0	5	stars	3	correct	0.7488742696587
107839	1	stim179_inanimate_plants_tulip_3.png	179	inanimate	plants	tulip	3	0	5	stars	3	correct	0.7488742696587
107889	1	stim186_inanimate_tools_hammer_2.png	186	inanimate	tools	hammer	2	0	5	stars	3	correct	0.7488742696587
107939	1	stim088_animate_mammal_giraffe_4.png	88	animate	mammal	giraffe	4	0	5	stars	3	correct	0.7488742696587
107989	1	stim003_animate_aquatic_crab_3.png	3	animate	aquatic	crab	3	0	5	stars	3	correct	0.7488742696587
108039	1	stim182_inanimate_tools_broom_2.png	182	inanimate	tools	broom	2	0	5	stars	3	correct	0.7488742696587
108089	1	stim065_animate_insect_bug_1.png	65	animate	insect	bug	1	0	5	stars	3	correct	0.7488742696587
108139	1	stim079_animate_insect_grasshopper_3.png	79	animate	insect	grasshopper	3	0	5	stars	3	correct	0.7488742696587
108189	1	stim006_animate_aquatic_fish_2.png	6	animate	aquatic	fish	2	0	5	stars	3	correct	0.7488742696587
108239	1	stim099_animate_mammal_rhino_3.png	99	animate	mammal	rhino	3	0	5	stars	3	correct	0.7488742696587
108289	1	stim188_inanimate_tools_hammer_4.png	188	inanimate	tools	hammer	4	0	5	stars	3	correct	0.7488742696587
108339	1	stim083_animate_mammal_cow_3.png	83	animate	mammal	cow	3	0	5	stars	3	correct	0.7488742696587
108389	1	stim032_animate_bird_parrot_4.png	32	animate	bird	parrot	4	0	5	stars	3	correct	0.7488742696587
108439	1	stim005_animate_aquatic_fish_1.png	5	animate	aquatic	fish	1	0	5	stars	3	correct	0.7488742696587
108489	1	stim031_animate_bird_parrot_3.png	31	animate	bird	parrot	3	0	5	stars	3	correct	0.7488742696587
108539	1	stim192_inanimate_tools_pan_4.png	192	inanimate	tools	pan	4	0	5	stars	3	correct	0.7488742696587
108589	1	stim015_animate_aquatic_shark_3.png	15	animate	aquatic	shark	3	0	5	stars	3	correct	0.7488742696587
108639	1	stim107_inanimate_clothing_hat_3.png	107	inanimate	clothing	hat	3	0	5	stars	3	correct	0.7488742696587
108689	1	stim157_inanimate_furniture_table_1.png	157	inanimate	furniture	table	1	0	5	stars	3	correct	0.7488742696587
108739	1	stim084_animate_mammal_cow_4.png	84	animate	mammal	cow	4	0	5	stars	3	correct	0.7488742696587
108789	1	stim055_animate_human_faces_3.png	55	animate	human	faces	3	0	5	stars	3	correct	0.7488742696587
108839	1	stim104_inanimate_clothing_gloves_4.png	104	inanimate	clothing	gloves	4	0	5	stars	3	correct	0.7488742696587
108889	1	stim085_animate_mammal_giraffe_1.png	85	animate	mammal	giraffe	1	0	5	stars	3	correct	0.7488742696587
108939	1	stim069_animate_insect_butterfly_1.png	69	animate	insect	butterfly	1	0	5	stars	3	correct	0.7488742696587
108989	1	stim184_inanimate_tools_broom_4.png	184	inanimate	tools	broom	4	0	5	stars	3	correct	0.7488742696587
109039	1	stim017_animate_aquatic_shrimp_1.png	17	animate	aquatic	shrimp	1	0	5	stars	3	correct	0.7488742696587
109089	1	stim169_inanimate_plants_sunflower_1.png	169	inanimate	plants	sunflower	1	0	5	stars	3	correct	0.7488742696587
109139	1	stim033_animate_bird_peacock_1.png	33	animate	bird	peacock	1	0	5	stars	3	correct	0.7488742696587
109189	1	stim167_inanimate_plants_cactus_3.png	167	inanimate	plants	cactus	3	0	5	stars	3	correct	0.7488742696587
109239	1	stim121_inanimate_fruits_apple_1.png	121	inanimate	fruits	apple	1	0	5	stars	3	correct	0.7488742696587
109289	1	stim102_inanimate_clothing_gloves_2.png	102	inanimate	clothing	gloves	2	0	5	stars	3	correct	0.7488742696587
109339	1	stim163_inanimate_plants_bush_3.png	163	inanimate	plants	bush	3	0	5	stars	3	correct	0.7488742696587
109389	1	stim158_inanimate_furniture_table_2.png	158	inanimate	furniture	table	2	0	5	stars	3	correct	0.7488742696587
109439	1	stim090_animate_mammal_kangaroo_2.png	90	animate	mammal	kangaroo	2	0	5	stars	3	correct	0.7488742696587
109489	1	stim174_inanimate_plants_tree_2.png	174	inanimate	plants	tree	2	0	5	stars	3	correct	0.7488742696587
109539	1	stim103_inanimate_clothing_gloves_3.png	103	inanimate	clothing	gloves	3	0	5	stars	3	correct	0.7488742696587
109589	1	stim101_inanimate_clothing_gloves_1.png	101	inanimate	clothing	gloves	1	0	5	stars	3	correct	0.7488742696587
109639	1	stim076_animate_insect_dragonfly_4.png	76	animate	insect	dragonfly	4	0	5	stars	3	correct	0.7488742696587
109689	1	stim133_inanimate_fruits_pineapple_1.png	133	inanimate	fruits	pineapple	1	0	5	stars	3	correct	0.7488742696587
109739	1	stim036_animate_bird_peacock_4.png	36	animate	bird	peacock	4	0	5	stars	3	correct	0.7488742696587
109789	1	stim187_inanimate_tools_hammer_3.png	187	inanimate	tools	hammer	3	0	5	stars	3	correct	0.7488742696587
109839	1	stim116_inanimate_clothing_shirt_4.png	116	inanimate	clothing	shirt	4	0	5	stars	3	correct	0.7488742696587
109889	1	stim193_inanimate_tools_scissors_1.png	193	inanimate	tools	scissors	1	0	5	stars	3	correct	0.7488742696587
109939	1	stim026_animate_bird_duck_2.png	26	animate	bird	duck	2	0	5	stars	3	correct	0.7488742696587
109989	1	stim052_animate_human_clown_4.png	52	animate	human	clown	4	0	5	stars	3	correct	0.7488742696587
110039	1	stim096_animate_mammal_monkey_4.png	96	animate	mammal	monkey	4	0	5	stars	3	correct	0.7488742696587
110089	1	stim162_inanimate_plants_bush_2.png	162	inanimate	plants	bush	2	0	5	stars	3	correct	0.7488742696587
110139	1	stim110_inanimate_clothing_jeans_2.png	110	inanimate	clothing	jeans	2	0	5	stars	3	correct	0.7488742696587
110189	1	stim049_animate_human_clown_1.png	49	animate	human	clown	1	0	5	stars	3	correct	0.7488742696587
110239	1	stim149_inanimate_furniture_closet_1.png	149	inanimate	furniture	closet	1	0	5	stars	3	correct	0.7488742696587
110289	1	stim014_animate_aquatic_shark_2.png	14	animate	aquatic	shark	2	0	5	stars	3	correct	0.7488742696587
110339	1	stim073_animate_insect_dragonfly_1.png	73	animate	insect	dragonfly	1	0	5	stars	3	correct	0.7488742696587
110389	1	stim171_inanimate_plants_sunflower_3.png	171	inanimate	plants	sunflower	3	0	5	stars	3	correct	0.7488742696587
110439	1	stim010_animate_aquatic_seahorse_2.png	10	animate	aquatic	seahorse	2	0	5	stars	3	correct	0.7488742696587
110489	1	stim141_inanimate_furniture_bed_1.png	141	inanimate	furniture	bed	1	0	5	stars	3	correct	0.7488742696587
110539	1	stim057_animate_human_sports_1.png	57	animate	human	sports	1	0	5	stars	3	correct	0.7488742696587
110589	1	stim041_animate_human_baby_1.png	41	animate	human	baby	1	0	5	stars	3	correct	0.7488742696587
110639	1	stim215_targets_shapes_star_3.png	215	targets	shapes	star	3	1	5	stars	3	correct	0.7488742696587
110689	1	stim199_inanimate_tools_wrench_3.png	199	inanimate	tools	wrench	3	0	5	stars	3	correct	0.7488742696587
110739	1	stim128_inanimate_fruits_banana_4.png	128	inanimate	fruits	banana	4	0	5	stars	3	correct	0.7488742696587
110789	1	stim195_inanimate_tools_scissors_3.png	195	inanimate	tools	scissors	3	0	5	stars	3	correct	0.7488742696587
110839	1	stim024_animate_bird_chicken_4.png	24	animate	bird	chicken	4	0	5	stars	3	correct	0.7488742696587
110889	1	stim038_animate_bird_penguin_2.png	38	animate	bird	penguin	2	0	5	stars	3	correct	0.7488742696587
110939	1	stim013_animate_aquatic_shark_1.png	13	animate	aquatic	shark	1	0	5	stars	3	correct	0.7488742696587
110989	1	stim191_inanimate_tools_pan_3.png	191	inanimate	tools	pan	3	0	5	stars	3	correct	0.7488742696587
111039	1	stim122_inanimate_fruits_apple_2.png	122	inanimate	fruits	apple	2	0	5	stars	3	correct	0.7488742696587
111089	1	stim155_inanimate_furniture_sofa_3.png	155	inanimate	furniture	sofa	3	0	5	stars	3	correct	0.7488742696587
111139	1	stim037_animate_bird_penguin_1.png	37	animate	bird	penguin	1	0	5	stars	3	correct	0.7488742696587
111189	1	stim098_animate_mammal_rhino_2.png	98	animate	mammal	rhino	2	0	5	stars	3	correct	0.7488742696587
111239	1	stim197_inanimate_tools_wrench_1.png	197	inanimate	tools	wrench	1	0	5	stars	3	correct	0.7488742696587
111289	1	stim190_inanimate_tools_pan_2.png	190	inanimate	tools	pan	2	0	5	stars	3	correct	0.7488742696587
