onset	duration	stimulusname	stimulusnumber	levelA	levelB	levelC	withinexemplarnumber	istarget	trialnumber	condition	response	correct	rt
8228	1	stim101_inanimate_clothing_gloves_1.png	101	inanimate	clothing	gloves	1	0	1	stars	3	correct	1.13305951901748
8278	1	stim027_animate_bird_duck_3.png	27	animate	bird	duck	3	0	1	stars	3	correct	1.13305951901748
8328	1	stim161_inanimate_plants_bush_1.png	161	inanimate	plants	bush	1	0	1	stars	3	correct	1.13305951901748
8378	1	stim098_animate_mammal_rhino_2.png	98	animate	mammal	rhino	2	0	1	stars	3	correct	1.13305951901748
8428	1	stim035_animate_bird_peacock_3.png	35	animate	bird	peacock	3	0	1	stars	3	correct	1.13305951901748
8478	1	stim079_animate_insect_grasshopper_3.png	79	animate	insect	grasshopper	3	0	1	stars	3	correct	1.13305951901748
8528	1	stim144_inanimate_furniture_bed_4.png	144	inanimate	furniture	bed	4	0	1	stars	3	correct	1.13305951901748
8578	1	stim022_animate_bird_chicken_2.png	22	animate	bird	chicken	2	0	1	stars	3	correct	1.13305951901748
8628	1	stim171_inanimate_plants_sunflower_3.png	171	inanimate	plants	sunflower	3	0	1	stars	3	correct	1.13305951901748
8678	1	stim145_inanimate_furniture_chair_1.png	145	inanimate	furniture	chair	1	0	1	stars	3	correct	1.13305951901748
8728	1	stim073_animate_insect_dragonfly_1.png	73	animate	insect	dragonfly	1	0	1	stars	3	correct	1.13305951901748
8778	1	stim028_animate_bird_duck_4.png	28	animate	bird	duck	4	0	1	stars	3	correct	1.13305951901748
8828	1	stim048_animate_human_child_4.png	48	animate	human	child	4	0	1	stars	3	correct	1.13305951901748
8878	1	stim019_animate_aquatic_shrimp_3.png	19	animate	aquatic	shrimp	3	0	1	stars	3	correct	1.13305951901748
8928	1	stim160_inanimate_furniture_table_4.png	160	inanimate	furniture	table	4	0	1	stars	3	correct	1.13305951901748
8978	1	stim134_inanimate_fruits_pineapple_2.png	134	inanimate	fruits	pineapple	2	0	1	stars	3	correct	1.13305951901748
9028	1	stim150_inanimate_furniture_closet_2.png	150	inanimate	furniture	closet	2	0	1	stars	3	correct	1.13305951901748
9078	1	stim072_animate_insect_butterfly_4.png	72	animate	insect	butterfly	4	0	1	stars	3	correct	1.13305951901748
9128	1	stim158_inanimate_furniture_table_2.png	158	inanimate	furniture	table	2	0	1	stars	3	correct	1.13305951901748
9178	1	stim064_animate_insect_ant_4.png	64	animate	insect	ant	4	0	1	stars	3	correct	1.13305951901748
9228	1	stim018_animate_aquatic_shrimp_2.png	18	animate	aquatic	shrimp	2	0	1	stars	3	correct	1.13305951901748
9278	1	stim096_animate_mammal_monkey_4.png	96	animate	mammal	monkey	4	0	1	stars	3	correct	1.13305951901748
9328	1	stim176_inanimate_plants_tree_4.png	176	inanimate	plants	tree	4	0	1	stars	3	correct	1.13305951901748
9378	1	stim177_inanimate_plants_tulip_1.png	177	inanimate	plants	tulip	1	0	1	stars	3	correct	1.13305951901748
9428	1	stim196_inanimate_tools_scissors_4.png	196	inanimate	tools	scissors	4	0	1	stars	3	correct	1.13305951901748
9478	1	stim151_inanimate_furniture_closet_3.png	151	inanimate	furniture	closet	3	0	1	stars	3	correct	1.13305951901748
9528	1	stim084_animate_mammal_cow_4.png	84	animate	mammal	cow	4	0	1	stars	3	correct	1.13305951901748
9578	1	stim075_animate_insect_dragonfly_3.png	75	animate	insect	dragonfly	3	0	1	stars	3	correct	1.13305951901748
9628	1	stim002_animate_aquatic_crab_2.png	2	animate	aquatic	crab	2	0	1	stars	3	correct	1.13305951901748
9678	1	stim148_inanimate_furniture_chair_4.png	148	inanimate	furniture	chair	4	0	1	stars	3	correct	1.13305951901748
9728	1	stim039_animate_bird_penguin_3.png	39	animate	bird	penguin	3	0	1	stars	3	correct	1.13305951901748
9778	1	stim025_animate_bird_duck_1.png	25	animate	bird	duck	1	0	1	stars	3	correct	1.13305951901748
9828	1	stim082_animate_mammal_cow_2.png	82	animate	mammal	cow	2	0	1	stars	3	correct	1.13305951901748
9878	1	stim111_inanimate_clothing_jeans_3.png	111	inanimate	clothing	jeans	3	0	1	stars	3	correct	1.13305951901748
9928	1	stim033_animate_bird_peacock_1.png	33	animate	bird	peacock	1	0	1	stars	3	correct	1.13305951901748
9978	1	stim162_inanimate_plants_bush_2.png	162	inanimate	plants	bush	2	0	1	stars	3	correct	1.13305951901748
10028	1	stim167_inanimate_plants_cactus_3.png	167	inanimate	plants	cactus	3	0	1	stars	3	correct	1.13305951901748
10078	1	stim047_animate_human_child_3.png	47	animate	human	child	3	0	1	stars	3	correct	1.13305951901748
10128	1	stim105_inanimate_clothing_hat_1.png	105	inanimate	clothing	hat	1	0	1	stars	3	correct	1.13305951901748
10178	1	stim092_animate_mammal_kangaroo_4.png	92	animate	mammal	kangaroo	4	0	1	stars	3	correct	1.13305951901748
10228	1	stim113_inanimate_clothing_shirt_1.png	113	inanimate	clothing	shirt	1	0	1	stars	3	correct	1.13305951901748
10278	1	stim173_inanimate_plants_tree_1.png	173	inanimate	plants	tree	1	0	1	stars	3	correct	1.13305951901748
10328	1	stim129_inanimate_fruits_grape_1.png	129	inanimate	fruits	grape	1	0	1	stars	3	correct	1.13305951901748
10378	1	stim110_inanimate_clothing_jeans_2.png	110	inanimate	clothing	jeans	2	0	1	stars	3	correct	1.13305951901748
10428	1	stim179_inanimate_plants_tulip_3.png	179	inanimate	plants	tulip	3	0	1	stars	3	correct	1.13305951901748
10478	1	stim121_inanimate_fruits_apple_1.png	121	inanimate	fruits	apple	1	0	1	stars	3	correct	1.13305951901748
10528	1	stim051_animate_human_clown_3.png	51	animate	human	clown	3	0	1	stars	3	correct	1.13305951901748
10578	1	stim071_animate_insect_butterfly_3.png	71	animate	insect	butterfly	3	0	1	stars	3	correct	1.13305951901748
10628	1	stim156_inanimate_furniture_sofa_4.png	156	inanimate	furniture	sofa	4	0	1	stars	3	correct	1.13305951901748
10678	1	stim040_animate_bird_penguin_4.png	40	animate	bird	penguin	4	0	1	stars	3	correct	1.13305951901748
10728	1	stim063_animate_insect_ant_3.png	63	animate	insect	ant	3	0	1	stars	3	correct	1.13305951901748
10778	1	stim199_inanimate_tools_wrench_3.png	199	inanimate	tools	wrench	3	0	1	stars	3	correct	1.13305951901748
10828	1	stim030_animate_bird_parrot_2.png	30	animate	bird	parrot	2	0	1	stars	3	correct	1.13305951901748
10878	1	stim185_inanimate_tools_hammer_1.png	185	inanimate	tools	hammer	1	0	1	stars	3	correct	1.13305951901748
10928	1	stim083_animate_mammal_cow_3.png	83	animate	mammal	cow	3	0	1	stars	3	correct	1.13305951901748
10978	1	stim168_inanimate_plants_cactus_4.png	168	inanimate	plants	cactus	4	0	1	stars	3	correct	1.13305951901748
11028	1	stim126_inanimate_fruits_banana_2.png	126	inanimate	fruits	banana	2	0	1	stars	3	correct	1.13305951901748
11078	1	stim061_animate_insect_ant_1.png	61	animate	insect	ant	1	0	1	stars	3	correct	1.13305951901748
11128	1	stim200_inanimate_tools_wrench_4.png	200	inanimate	tools	wrench	4	0	1	stars	3	correct	1.13305951901748
11178	1	stim130_inanimate_fruits_grape_2.png	130	inanimate	fruits	grape	2	0	1	stars	3	correct	1.13305951901748
11228	1	stim038_animate_bird_penguin_2.png	38	animate	bird	penguin	2	0	1	stars	3	correct	1.13305951901748
11278	1	stim016_animate_aquatic_shark_4.png	16	animate	aquatic	shark	4	0	1	stars	3	correct	1.13305951901748
11328	1	stim097_animate_mammal_rhino_1.png	97	animate	mammal	rhino	1	0	1	stars	3	correct	1.13305951901748
11378	1	stim001_animate_aquatic_crab_1.png	1	animate	aquatic	crab	1	0	1	stars	3	correct	1.13305951901748
11428	1	stim213_targets_shapes_star_1.png	213	targets	shapes	star	1	1	1	stars	3	correct	1.13305951901748
11478	1	stim115_inanimate_clothing_shirt_3.png	115	inanimate	clothing	shirt	3	0	1	stars	3	correct	1.13305951901748
11528	1	stim152_inanimate_furniture_closet_4.png	152	inanimate	furniture	closet	4	0	1	stars	3	correct	1.13305951901748
11578	1	stim181_inanimate_tools_broom_1.png	181	inanimate	tools	broom	1	0	1	stars	3	correct	1.13305951901748
11628	1	stim020_animate_aquatic_shrimp_4.png	20	animate	aquatic	shrimp	4	0	1	stars	3	correct	1.13305951901748
11678	1	stim175_inanimate_plants_tree_3.png	175	inanimate	plants	tree	3	0	1	stars	3	correct	1.13305951901748
11728	1	stim004_animate_aquatic_crab_4.png	4	animate	aquatic	crab	4	0	1	stars	3	correct	1.13305951901748
11778	1	stim060_animate_human_sports_4.png	60	animate	human	sports	4	0	1	stars	3	correct	1.13305951901748
11828	1	stim107_inanimate_clothing_hat_3.png	107	inanimate	clothing	hat	3	0	1	stars	3	correct	1.13305951901748
11878	1	stim066_animate_insect_bug_2.png	66	animate	insect	bug	2	0	1	stars	3	correct	1.13305951901748
11928	1	stim100_animate_mammal_rhino_4.png	100	animate	mammal	rhino	4	0	1	stars	3	correct	1.13305951901748
11978	1	stim140_inanimate_fruits_strawberry_4.png	140	inanimate	fruits	strawberry	4	0	1	stars	3	correct	1.13305951901748
12028	1	stim042_animate_human_baby_2.png	42	animate	human	baby	2	0	1	stars	3	correct	1.13305951901748
12078	1	stim089_animate_mammal_kangaroo_1.png	89	animate	mammal	kangaroo	1	0	1	stars	3	correct	1.13305951901748
12128	1	stim010_animate_aquatic_seahorse_2.png	10	animate	aquatic	seahorse	2	0	1	stars	3	correct	1.13305951901748
12178	1	stim142_inanimate_furniture_bed_2.png	142	inanimate	furniture	bed	2	0	1	stars	3	correct	1.13305951901748
12228	1	stim046_animate_human_child_2.png	46	animate	human	child	2	0	1	stars	3	correct	1.13305951901748
12278	1	stim014_animate_aquatic_shark_2.png	14	animate	aquatic	shark	2	0	1	stars	3	correct	1.13305951901748
12328	1	stim026_animate_bird_duck_2.png	26	animate	bird	duck	2	0	1	stars	3	correct	1.13305951901748
12378	1	stim080_animate_insect_grasshopper_4.png	80	animate	insect	grasshopper	4	0	1	stars	3	correct	1.13305951901748
12428	1	stim090_animate_mammal_kangaroo_2.png	90	animate	mammal	kangaroo	2	0	1	stars	3	correct	1.13305951901748
12478	1	stim023_animate_bird_chicken_3.png	23	animate	bird	chicken	3	0	1	stars	3	correct	1.13305951901748
12528	1	stim155_inanimate_furniture_sofa_3.png	155	inanimate	furniture	sofa	3	0	1	stars	3	correct	1.13305951901748
12578	1	stim165_inanimate_plants_cactus_1.png	165	inanimate	plants	cactus	1	0	1	stars	3	correct	1.13305951901748
12628	1	stim170_inanimate_plants_sunflower_2.png	170	inanimate	plants	sunflower	2	0	1	stars	3	correct	1.13305951901748
12678	1	stim120_inanimate_clothing_socks_4.png	120	inanimate	clothing	socks	4	0	1	stars	3	correct	1.13305951901748
12728	1	stim087_animate_mammal_giraffe_3.png	87	animate	mammal	giraffe	3	0	1	stars	3	correct	1.13305951901748
12778	1	stim135_inanimate_fruits_pineapple_3.png	135	inanimate	fruits	pineapple	3	0	1	stars	3	correct	1.13305951901748
12828	1	stim043_animate_human_baby_3.png	43	animate	human	baby	3	0	1	stars	3	correct	1.13305951901748
12878	1	stim062_animate_insect_ant_2.png	62	animate	insect	ant	2	0	1	stars	3	correct	1.13305951901748
12928	1	stim163_inanimate_plants_bush_3.png	163	inanimate	plants	bush	3	0	1	stars	3	correct	1.13305951901748
12978	1	stim141_inanimate_furniture_bed_1.png	141	inanimate	furniture	bed	1	0	1	stars	3	correct	1.13305951901748
13028	1	stim125_inanimate_fruits_banana_1.png	125	inanimate	fruits	banana	1	0	1	stars	3	correct	1.13305951901748
13078	1	stim093_animate_mammal_monkey_1.png	93	animate	mammal	monkey	1	0	1	stars	3	correct	1.13305951901748
13128	1	stim044_animate_human_baby_4.png	44	animate	human	baby	4	0	1	stars	3	correct	1.13305951901748
13178	1	stim013_animate_aquatic_shark_1.png	13	animate	aquatic	shark	1	0	1	stars	3	correct	1.13305951901748
13228	1	stim128_inanimate_fruits_banana_4.png	128	inanimate	fruits	banana	4	0	1	stars	3	correct	1.13305951901748
13278	1	stim212_targets_shapes_star_4.png	212	targets	shapes	star	4	1	1	stars	3	correct	1.13305951901748
13328	1	stim074_animate_insect_dragonfly_2.png	74	animate	insect	dragonfly	2	0	1	stars	3	correct	1.13305951901748
13378	1	stim076_animate_insect_dragonfly_4.png	76	animate	insect	dragonfly	4	0	1	stars	3	correct	1.13305951901748
13428	1	stim132_inanimate_fruits_grape_4.png	132	inanimate	fruits	grape	4	0	1	stars	3	correct	1.13305951901748
13478	1	stim054_animate_human_faces_2.png	54	animate	human	faces	2	0	1	stars	3	correct	1.13305951901748
13528	1	stim106_inanimate_clothing_hat_2.png	106	inanimate	clothing	hat	2	0	1	stars	3	correct	1.13305951901748
13578	1	stim191_inanimate_tools_pan_3.png	191	inanimate	tools	pan	3	0	1	stars	3	correct	1.13305951901748
13628	1	stim178_inanimate_plants_tulip_2.png	178	inanimate	plants	tulip	2	0	1	stars	3	correct	1.13305951901748
13678	1	stim108_inanimate_clothing_hat_4.png	108	inanimate	clothing	hat	4	0	1	stars	3	correct	1.13305951901748
13728	1	stim091_animate_mammal_kangaroo_3.png	91	animate	mammal	kangaroo	3	0	1	stars	3	correct	1.13305951901748
13778	1	stim188_inanimate_tools_hammer_4.png	188	inanimate	tools	hammer	4	0	1	stars	3	correct	1.13305951901748
13828	1	stim153_inanimate_furniture_sofa_1.png	153	inanimate	furniture	sofa	1	0	1	stars	3	correct	1.13305951901748
13878	1	stim069_animate_insect_butterfly_1.png	69	animate	insect	butterfly	1	0	1	stars	3	correct	1.13305951901748
13928	1	stim189_inanimate_tools_pan_1.png	189	inanimate	tools	pan	1	0	1	stars	3	correct	1.13305951901748
13978	1	stim143_inanimate_furniture_bed_3.png	143	inanimate	furniture	bed	3	0	1	stars	3	correct	1.13305951901748
14028	1	stim104_inanimate_clothing_gloves_4.png	104	inanimate	clothing	gloves	4	0	1	stars	3	correct	1.13305951901748
14078	1	stim112_inanimate_clothing_jeans_4.png	112	inanimate	clothing	jeans	4	0	1	stars	3	correct	1.13305951901748
14128	1	stim070_animate_insect_butterfly_2.png	70	animate	insect	butterfly	2	0	1	stars	3	correct	1.13305951901748
14178	1	stim138_inanimate_fruits_strawberry_2.png	138	inanimate	fruits	strawberry	2	0	1	stars	3	correct	1.13305951901748
14228	1	stim003_animate_aquatic_crab_3.png	3	animate	aquatic	crab	3	0	1	stars	3	correct	1.13305951901748
14278	1	stim088_animate_mammal_giraffe_4.png	88	animate	mammal	giraffe	4	0	1	stars	3	correct	1.13305951901748
14328	1	stim127_inanimate_fruits_banana_3.png	127	inanimate	fruits	banana	3	0	1	stars	3	correct	1.13305951901748
14378	1	stim006_animate_aquatic_fish_2.png	6	animate	aquatic	fish	2	0	1	stars	3	correct	1.13305951901748
14428	1	stim057_animate_human_sports_1.png	57	animate	human	sports	1	0	1	stars	3	correct	1.13305951901748
14478	1	stim041_animate_human_baby_1.png	41	animate	human	baby	1	0	1	stars	3	correct	1.13305951901748
14528	1	stim081_animate_mammal_cow_1.png	81	animate	mammal	cow	1	0	1	stars	3	correct	1.13305951901748
14578	1	stim021_animate_bird_chicken_1.png	21	animate	bird	chicken	1	0	1	stars	3	correct	1.13305951901748
14628	1	stim094_animate_mammal_monkey_2.png	94	animate	mammal	monkey	2	0	1	stars	3	correct	1.13305951901748
14678	1	stim015_animate_aquatic_shark_3.png	15	animate	aquatic	shark	3	0	1	stars	3	correct	1.13305951901748
14728	1	stim194_inanimate_tools_scissors_2.png	194	inanimate	tools	scissors	2	0	1	stars	3	correct	1.13305951901748
14778	1	stim059_animate_human_sports_3.png	59	animate	human	sports	3	0	1	stars	3	correct	1.13305951901748
14828	1	stim055_animate_human_faces_3.png	55	animate	human	faces	3	0	1	stars	3	correct	1.13305951901748
14878	1	stim011_animate_aquatic_seahorse_3.png	11	animate	aquatic	seahorse	3	0	1	stars	3	correct	1.13305951901748
14928	1	stim157_inanimate_furniture_table_1.png	157	inanimate	furniture	table	1	0	1	stars	3	correct	1.13305951901748
14978	1	stim109_inanimate_clothing_jeans_1.png	109	inanimate	clothing	jeans	1	0	1	stars	3	correct	1.13305951901748
15028	1	stim123_inanimate_fruits_apple_3.png	123	inanimate	fruits	apple	3	0	1	stars	3	correct	1.13305951901748
15078	1	stim037_animate_bird_penguin_1.png	37	animate	bird	penguin	1	0	1	stars	3	correct	1.13305951901748
15128	1	stim137_inanimate_fruits_strawberry_1.png	137	inanimate	fruits	strawberry	1	0	1	stars	3	correct	1.13305951901748
15178	1	stim209_targets_shapes_star_1.png	209	targets	shapes	star	1	1	1	stars	3	correct	1.13305951901748
15228	1	stim052_animate_human_clown_4.png	52	animate	human	clown	4	0	1	stars	3	correct	1.13305951901748
15278	1	stim197_inanimate_tools_wrench_1.png	197	inanimate	tools	wrench	1	0	1	stars	3	correct	1.13305951901748
15328	1	stim172_inanimate_plants_sunflower_4.png	172	inanimate	plants	sunflower	4	0	1	stars	3	correct	1.13305951901748
15378	1	stim198_inanimate_tools_wrench_2.png	198	inanimate	tools	wrench	2	0	1	stars	3	correct	1.13305951901748
15428	1	stim012_animate_aquatic_seahorse_4.png	12	animate	aquatic	seahorse	4	0	1	stars	3	correct	1.13305951901748
15478	1	stim078_animate_insect_grasshopper_2.png	78	animate	insect	grasshopper	2	0	1	stars	3	correct	1.13305951901748
15528	1	stim034_animate_bird_peacock_2.png	34	animate	bird	peacock	2	0	1	stars	3	correct	1.13305951901748
15578	1	stim133_inanimate_fruits_pineapple_1.png	133	inanimate	fruits	pineapple	1	0	1	stars	3	correct	1.13305951901748
15628	1	stim149_inanimate_furniture_closet_1.png	149	inanimate	furniture	closet	1	0	1	stars	3	correct	1.13305951901748
15678	1	stim187_inanimate_tools_hammer_3.png	187	inanimate	tools	hammer	3	0	1	stars	3	correct	1.13305951901748
15728	1	stim131_inanimate_fruits_grape_3.png	131	inanimate	fruits	grape	3	0	1	stars	3	correct	1.13305951901748
15778	1	stim184_inanimate_tools_broom_4.png	184	inanimate	tools	broom	4	0	1	stars	3	correct	1.13305951901748
15828	1	stim180_inanimate_plants_tulip_4.png	180	inanimate	plants	tulip	4	0	1	stars	3	correct	1.13305951901748
15878	1	stim049_animate_human_clown_1.png	49	animate	human	clown	1	0	1	stars	3	correct	1.13305951901748
15928	1	stim118_inanimate_clothing_socks_2.png	118	inanimate	clothing	socks	2	0	1	stars	3	correct	1.13305951901748
15978	1	stim114_inanimate_clothing_shirt_2.png	114	inanimate	clothing	shirt	2	0	1	stars	3	correct	1.13305951901748
16028	1	stim159_inanimate_furniture_table_3.png	159	inanimate	furniture	table	3	0	1	stars	3	correct	1.13305951901748
16078	1	stim086_animate_mammal_giraffe_2.png	86	animate	mammal	giraffe	2	0	1	stars	3	correct	1.13305951901748
16128	1	stim139_inanimate_fruits_strawberry_3.png	139	inanimate	fruits	strawberry	3	0	1	stars	3	correct	1.13305951901748
16178	1	stim007_animate_aquatic_fish_3.png	7	animate	aquatic	fish	3	0	1	stars	3	correct	1.13305951901748
16228	1	stim124_inanimate_fruits_apple_4.png	124	inanimate	fruits	apple	4	0	1	stars	3	correct	1.13305951901748
16278	1	stim056_animate_human_faces_4.png	56	animate	human	faces	4	0	1	stars	3	correct	1.13305951901748
16328	1	stim053_animate_human_faces_1.png	53	animate	human	faces	1	0	1	stars	3	correct	1.13305951901748
16378	1	stim036_animate_bird_peacock_4.png	36	animate	bird	peacock	4	0	1	stars	3	correct	1.13305951901748
16428	1	stim085_animate_mammal_giraffe_1.png	85	animate	mammal	giraffe	1	0	1	stars	3	correct	1.13305951901748
16478	1	stim102_inanimate_clothing_gloves_2.png	102	inanimate	clothing	gloves	2	0	1	stars	3	correct	1.13305951901748
16528	1	stim005_animate_aquatic_fish_1.png	5	animate	aquatic	fish	1	0	1	stars	3	correct	1.13305951901748
16578	1	stim195_inanimate_tools_scissors_3.png	195	inanimate	tools	scissors	3	0	1	stars	3	correct	1.13305951901748
16628	1	stim017_animate_aquatic_shrimp_1.png	17	animate	aquatic	shrimp	1	0	1	stars	3	correct	1.13305951901748
16678	1	stim186_inanimate_tools_hammer_2.png	186	inanimate	tools	hammer	2	0	1	stars	3	correct	1.13305951901748
16728	1	stim065_animate_insect_bug_1.png	65	animate	insect	bug	1	0	1	stars	3	correct	1.13305951901748
16778	1	stim116_inanimate_clothing_shirt_4.png	116	inanimate	clothing	shirt	4	0	1	stars	3	correct	1.13305951901748
16828	1	stim029_animate_bird_parrot_1.png	29	animate	bird	parrot	1	0	1	stars	3	correct	1.13305951901748
16878	1	stim103_inanimate_clothing_gloves_3.png	103	inanimate	clothing	gloves	3	0	1	stars	3	correct	1.13305951901748
16928	1	stim183_inanimate_tools_broom_3.png	183	inanimate	tools	broom	3	0	1	stars	3	correct	1.13305951901748
16978	1	stim182_inanimate_tools_broom_2.png	182	inanimate	tools	broom	2	0	1	stars	3	correct	1.13305951901748
17028	1	stim190_inanimate_tools_pan_2.png	190	inanimate	tools	pan	2	0	1	stars	3	correct	1.13305951901748
17078	1	stim009_animate_aquatic_seahorse_1.png	9	animate	aquatic	seahorse	1	0	1	stars	3	correct	1.13305951901748
17128	1	stim068_animate_insect_bug_4.png	68	animate	insect	bug	4	0	1	stars	3	correct	1.13305951901748
17178	1	stim050_animate_human_clown_2.png	50	animate	human	clown	2	0	1	stars	3	correct	1.13305951901748
17228	1	stim067_animate_insect_bug_3.png	67	animate	insect	bug	3	0	1	stars	3	correct	1.13305951901748
17278	1	stim192_inanimate_tools_pan_4.png	192	inanimate	tools	pan	4	0	1	stars	3	correct	1.13305951901748
17328	1	stim024_animate_bird_chicken_4.png	24	animate	bird	chicken	4	0	1	stars	3	correct	1.13305951901748
17378	1	stim147_inanimate_furniture_chair_3.png	147	inanimate	furniture	chair	3	0	1	stars	3	correct	1.13305951901748
17428	1	stim164_inanimate_plants_bush_4.png	164	inanimate	plants	bush	4	0	1	stars	3	correct	1.13305951901748
17478	1	stim031_animate_bird_parrot_3.png	31	animate	bird	parrot	3	0	1	stars	3	correct	1.13305951901748
17528	1	stim193_inanimate_tools_scissors_1.png	193	inanimate	tools	scissors	1	0	1	stars	3	correct	1.13305951901748
17578	1	stim008_animate_aquatic_fish_4.png	8	animate	aquatic	fish	4	0	1	stars	3	correct	1.13305951901748
17628	1	stim117_inanimate_clothing_socks_1.png	117	inanimate	clothing	socks	1	0	1	stars	3	correct	1.13305951901748
17678	1	stim146_inanimate_furniture_chair_2.png	146	inanimate	furniture	chair	2	0	1	stars	3	correct	1.13305951901748
17728	1	stim154_inanimate_furniture_sofa_2.png	154	inanimate	furniture	sofa	2	0	1	stars	3	correct	1.13305951901748
17778	1	stim136_inanimate_fruits_pineapple_4.png	136	inanimate	fruits	pineapple	4	0	1	stars	3	correct	1.13305951901748
17828	1	stim174_inanimate_plants_tree_2.png	174	inanimate	plants	tree	2	0	1	stars	3	correct	1.13305951901748
17878	1	stim119_inanimate_clothing_socks_3.png	119	inanimate	clothing	socks	3	0	1	stars	3	correct	1.13305951901748
17928	1	stim045_animate_human_child_1.png	45	animate	human	child	1	0	1	stars	3	correct	1.13305951901748
17978	1	stim099_animate_mammal_rhino_3.png	99	animate	mammal	rhino	3	0	1	stars	3	correct	1.13305951901748
18028	1	stim122_inanimate_fruits_apple_2.png	122	inanimate	fruits	apple	2	0	1	stars	3	correct	1.13305951901748
18078	1	stim077_animate_insect_grasshopper_1.png	77	animate	insect	grasshopper	1	0	1	stars	3	correct	1.13305951901748
18128	1	stim169_inanimate_plants_sunflower_1.png	169	inanimate	plants	sunflower	1	0	1	stars	3	correct	1.13305951901748
18178	1	stim058_animate_human_sports_2.png	58	animate	human	sports	2	0	1	stars	3	correct	1.13305951901748
18228	1	stim166_inanimate_plants_cactus_2.png	166	inanimate	plants	cactus	2	0	1	stars	3	correct	1.13305951901748
18278	1	stim095_animate_mammal_monkey_3.png	95	animate	mammal	monkey	3	0	1	stars	3	correct	1.13305951901748
18328	1	stim032_animate_bird_parrot_4.png	32	animate	bird	parrot	4	0	1	stars	3	correct	1.13305951901748
26928	1	stim155_inanimate_furniture_sofa_3.png	155	inanimate	furniture	sofa	3	0	2	boats	3	incorrect	1.33954373003689
26978	1	stim020_animate_aquatic_shrimp_4.png	20	animate	aquatic	shrimp	4	0	2	boats	3	incorrect	1.33954373003689
27028	1	stim127_inanimate_fruits_banana_3.png	127	inanimate	fruits	banana	3	0	2	boats	3	incorrect	1.33954373003689
27078	1	stim161_inanimate_plants_bush_1.png	161	inanimate	plants	bush	1	0	2	boats	3	incorrect	1.33954373003689
27128	1	stim014_animate_aquatic_shark_2.png	14	animate	aquatic	shark	2	0	2	boats	3	incorrect	1.33954373003689
27178	1	stim110_inanimate_clothing_jeans_2.png	110	inanimate	clothing	jeans	2	0	2	boats	3	incorrect	1.33954373003689
27228	1	stim068_animate_insect_bug_4.png	68	animate	insect	bug	4	0	2	boats	3	incorrect	1.33954373003689
27278	1	stim055_animate_human_faces_3.png	55	animate	human	faces	3	0	2	boats	3	incorrect	1.33954373003689
27328	1	stim147_inanimate_furniture_chair_3.png	147	inanimate	furniture	chair	3	0	2	boats	3	incorrect	1.33954373003689
27378	1	stim056_animate_human_faces_4.png	56	animate	human	faces	4	0	2	boats	3	incorrect	1.33954373003689
27428	1	stim106_inanimate_clothing_hat_2.png	106	inanimate	clothing	hat	2	0	2	boats	3	incorrect	1.33954373003689
27478	1	stim123_inanimate_fruits_apple_3.png	123	inanimate	fruits	apple	3	0	2	boats	3	incorrect	1.33954373003689
27528	1	stim028_animate_bird_duck_4.png	28	animate	bird	duck	4	0	2	boats	3	incorrect	1.33954373003689
27578	1	stim120_inanimate_clothing_socks_4.png	120	inanimate	clothing	socks	4	0	2	boats	3	incorrect	1.33954373003689
27628	1	stim008_animate_aquatic_fish_4.png	8	animate	aquatic	fish	4	0	2	boats	3	incorrect	1.33954373003689
27678	1	stim131_inanimate_fruits_grape_3.png	131	inanimate	fruits	grape	3	0	2	boats	3	incorrect	1.33954373003689
27728	1	stim137_inanimate_fruits_strawberry_1.png	137	inanimate	fruits	strawberry	1	0	2	boats	3	incorrect	1.33954373003689
27778	1	stim143_inanimate_furniture_bed_3.png	143	inanimate	furniture	bed	3	0	2	boats	3	incorrect	1.33954373003689
27828	1	stim154_inanimate_furniture_sofa_2.png	154	inanimate	furniture	sofa	2	0	2	boats	3	incorrect	1.33954373003689
27878	1	stim004_animate_aquatic_crab_4.png	4	animate	aquatic	crab	4	0	2	boats	3	incorrect	1.33954373003689
27928	1	stim197_inanimate_tools_wrench_1.png	197	inanimate	tools	wrench	1	0	2	boats	3	incorrect	1.33954373003689
27978	1	stim087_animate_mammal_giraffe_3.png	87	animate	mammal	giraffe	3	0	2	boats	3	incorrect	1.33954373003689
28028	1	stim178_inanimate_plants_tulip_2.png	178	inanimate	plants	tulip	2	0	2	boats	3	incorrect	1.33954373003689
28078	1	stim046_animate_human_child_2.png	46	animate	human	child	2	0	2	boats	3	incorrect	1.33954373003689
28128	1	stim173_inanimate_plants_tree_1.png	173	inanimate	plants	tree	1	0	2	boats	3	incorrect	1.33954373003689
28178	1	stim085_animate_mammal_giraffe_1.png	85	animate	mammal	giraffe	1	0	2	boats	3	incorrect	1.33954373003689
28228	1	stim012_animate_aquatic_seahorse_4.png	12	animate	aquatic	seahorse	4	0	2	boats	3	incorrect	1.33954373003689
28278	1	stim047_animate_human_child_3.png	47	animate	human	child	3	0	2	boats	3	incorrect	1.33954373003689
28328	1	stim163_inanimate_plants_bush_3.png	163	inanimate	plants	bush	3	0	2	boats	3	incorrect	1.33954373003689
28378	1	stim176_inanimate_plants_tree_4.png	176	inanimate	plants	tree	4	0	2	boats	3	incorrect	1.33954373003689
28428	1	stim141_inanimate_furniture_bed_1.png	141	inanimate	furniture	bed	1	0	2	boats	3	incorrect	1.33954373003689
28478	1	stim080_animate_insect_grasshopper_4.png	80	animate	insect	grasshopper	4	0	2	boats	3	incorrect	1.33954373003689
28528	1	stim078_animate_insect_grasshopper_2.png	78	animate	insect	grasshopper	2	0	2	boats	3	incorrect	1.33954373003689
28578	1	stim057_animate_human_sports_1.png	57	animate	human	sports	1	0	2	boats	3	incorrect	1.33954373003689
28628	1	stim051_animate_human_clown_3.png	51	animate	human	clown	3	0	2	boats	3	incorrect	1.33954373003689
28678	1	stim118_inanimate_clothing_socks_2.png	118	inanimate	clothing	socks	2	0	2	boats	3	incorrect	1.33954373003689
28728	1	stim146_inanimate_furniture_chair_2.png	146	inanimate	furniture	chair	2	0	2	boats	3	incorrect	1.33954373003689
28778	1	stim125_inanimate_fruits_banana_1.png	125	inanimate	fruits	banana	1	0	2	boats	3	incorrect	1.33954373003689
28828	1	stim167_inanimate_plants_cactus_3.png	167	inanimate	plants	cactus	3	0	2	boats	3	incorrect	1.33954373003689
28878	1	stim041_animate_human_baby_1.png	41	animate	human	baby	1	0	2	boats	3	incorrect	1.33954373003689
28928	1	stim150_inanimate_furniture_closet_2.png	150	inanimate	furniture	closet	2	0	2	boats	3	incorrect	1.33954373003689
28978	1	stim025_animate_bird_duck_1.png	25	animate	bird	duck	1	0	2	boats	3	incorrect	1.33954373003689
29028	1	stim049_animate_human_clown_1.png	49	animate	human	clown	1	0	2	boats	3	incorrect	1.33954373003689
29078	1	stim165_inanimate_plants_cactus_1.png	165	inanimate	plants	cactus	1	0	2	boats	3	incorrect	1.33954373003689
29128	1	stim203_targets_object_boats_3.png	203	targets	object	boats	3	1	2	boats	3	incorrect	1.33954373003689
29178	1	stim002_animate_aquatic_crab_2.png	2	animate	aquatic	crab	2	0	2	boats	3	incorrect	1.33954373003689
29228	1	stim053_animate_human_faces_1.png	53	animate	human	faces	1	0	2	boats	3	incorrect	1.33954373003689
29278	1	stim124_inanimate_fruits_apple_4.png	124	inanimate	fruits	apple	4	0	2	boats	3	incorrect	1.33954373003689
29328	1	stim157_inanimate_furniture_table_1.png	157	inanimate	furniture	table	1	0	2	boats	3	incorrect	1.33954373003689
29378	1	stim122_inanimate_fruits_apple_2.png	122	inanimate	fruits	apple	2	0	2	boats	3	incorrect	1.33954373003689
29428	1	stim005_animate_aquatic_fish_1.png	5	animate	aquatic	fish	1	0	2	boats	3	incorrect	1.33954373003689
29478	1	stim179_inanimate_plants_tulip_3.png	179	inanimate	plants	tulip	3	0	2	boats	3	incorrect	1.33954373003689
29528	1	stim119_inanimate_clothing_socks_3.png	119	inanimate	clothing	socks	3	0	2	boats	3	incorrect	1.33954373003689
29578	1	stim030_animate_bird_parrot_2.png	30	animate	bird	parrot	2	0	2	boats	3	incorrect	1.33954373003689
29628	1	stim152_inanimate_furniture_closet_4.png	152	inanimate	furniture	closet	4	0	2	boats	3	incorrect	1.33954373003689
29678	1	stim086_animate_mammal_giraffe_2.png	86	animate	mammal	giraffe	2	0	2	boats	3	incorrect	1.33954373003689
29729	1	stim064_animate_insect_ant_4.png	64	animate	insect	ant	4	0	2	boats	3	incorrect	1.33954373003689
29778	1	stim009_animate_aquatic_seahorse_1.png	9	animate	aquatic	seahorse	1	0	2	boats	3	incorrect	1.33954373003689
29828	1	stim095_animate_mammal_monkey_3.png	95	animate	mammal	monkey	3	0	2	boats	3	incorrect	1.33954373003689
29878	1	stim168_inanimate_plants_cactus_4.png	168	inanimate	plants	cactus	4	0	2	boats	3	incorrect	1.33954373003689
29928	1	stim190_inanimate_tools_pan_2.png	190	inanimate	tools	pan	2	0	2	boats	3	incorrect	1.33954373003689
29979	1	stim169_inanimate_plants_sunflower_1.png	169	inanimate	plants	sunflower	1	0	2	boats	3	incorrect	1.33954373003689
30028	1	stim042_animate_human_baby_2.png	42	animate	human	baby	2	0	2	boats	3	incorrect	1.33954373003689
30078	1	stim040_animate_bird_penguin_4.png	40	animate	bird	penguin	4	0	2	boats	3	incorrect	1.33954373003689
30129	1	stim134_inanimate_fruits_pineapple_2.png	134	inanimate	fruits	pineapple	2	0	2	boats	3	incorrect	1.33954373003689
30178	1	stim128_inanimate_fruits_banana_4.png	128	inanimate	fruits	banana	4	0	2	boats	3	incorrect	1.33954373003689
30229	1	stim074_animate_insect_dragonfly_2.png	74	animate	insect	dragonfly	2	0	2	boats	3	incorrect	1.33954373003689
30278	1	stim059_animate_human_sports_3.png	59	animate	human	sports	3	0	2	boats	3	incorrect	1.33954373003689
30328	1	stim043_animate_human_baby_3.png	43	animate	human	baby	3	0	2	boats	3	incorrect	1.33954373003689
30379	1	stim035_animate_bird_peacock_3.png	35	animate	bird	peacock	3	0	2	boats	3	incorrect	1.33954373003689
30429	1	stim058_animate_human_sports_2.png	58	animate	human	sports	2	0	2	boats	3	incorrect	1.33954373003689
30478	1	stim104_inanimate_clothing_gloves_4.png	104	inanimate	clothing	gloves	4	0	2	boats	3	incorrect	1.33954373003689
30528	1	stim142_inanimate_furniture_bed_2.png	142	inanimate	furniture	bed	2	0	2	boats	3	incorrect	1.33954373003689
30578	1	stim052_animate_human_clown_4.png	52	animate	human	clown	4	0	2	boats	3	incorrect	1.33954373003689
30629	1	stim114_inanimate_clothing_shirt_2.png	114	inanimate	clothing	shirt	2	0	2	boats	3	incorrect	1.33954373003689
30679	1	stim183_inanimate_tools_broom_3.png	183	inanimate	tools	broom	3	0	2	boats	3	incorrect	1.33954373003689
30729	1	stim115_inanimate_clothing_shirt_3.png	115	inanimate	clothing	shirt	3	0	2	boats	3	incorrect	1.33954373003689
30779	1	stim073_animate_insect_dragonfly_1.png	73	animate	insect	dragonfly	1	0	2	boats	3	incorrect	1.33954373003689
30829	1	stim001_animate_aquatic_crab_1.png	1	animate	aquatic	crab	1	0	2	boats	3	incorrect	1.33954373003689
30879	1	stim033_animate_bird_peacock_1.png	33	animate	bird	peacock	1	0	2	boats	3	incorrect	1.33954373003689
30929	1	stim171_inanimate_plants_sunflower_3.png	171	inanimate	plants	sunflower	3	0	2	boats	3	incorrect	1.33954373003689
30979	1	stim079_animate_insect_grasshopper_3.png	79	animate	insect	grasshopper	3	0	2	boats	3	incorrect	1.33954373003689
31029	1	stim103_inanimate_clothing_gloves_3.png	103	inanimate	clothing	gloves	3	0	2	boats	3	incorrect	1.33954373003689
31079	1	stim200_inanimate_tools_wrench_4.png	200	inanimate	tools	wrench	4	0	2	boats	3	incorrect	1.33954373003689
31129	1	stim070_animate_insect_butterfly_2.png	70	animate	insect	butterfly	2	0	2	boats	3	incorrect	1.33954373003689
31179	1	stim181_inanimate_tools_broom_1.png	181	inanimate	tools	broom	1	0	2	boats	3	incorrect	1.33954373003689
31229	1	stim206_targets_object_boats_2.png	206	targets	object	boats	2	1	2	boats	3	incorrect	1.33954373003689
31279	1	stim112_inanimate_clothing_jeans_4.png	112	inanimate	clothing	jeans	4	0	2	boats	3	incorrect	1.33954373003689
31329	1	stim003_animate_aquatic_crab_3.png	3	animate	aquatic	crab	3	0	2	boats	3	incorrect	1.33954373003689
31379	1	stim117_inanimate_clothing_socks_1.png	117	inanimate	clothing	socks	1	0	2	boats	3	incorrect	1.33954373003689
31429	1	stim132_inanimate_fruits_grape_4.png	132	inanimate	fruits	grape	4	0	2	boats	3	incorrect	1.33954373003689
31479	1	stim076_animate_insect_dragonfly_4.png	76	animate	insect	dragonfly	4	0	2	boats	3	incorrect	1.33954373003689
31529	1	stim024_animate_bird_chicken_4.png	24	animate	bird	chicken	4	0	2	boats	3	incorrect	1.33954373003689
31579	1	stim083_animate_mammal_cow_3.png	83	animate	mammal	cow	3	0	2	boats	3	incorrect	1.33954373003689
31629	1	stim023_animate_bird_chicken_3.png	23	animate	bird	chicken	3	0	2	boats	3	incorrect	1.33954373003689
31679	1	stim153_inanimate_furniture_sofa_1.png	153	inanimate	furniture	sofa	1	0	2	boats	3	incorrect	1.33954373003689
31729	1	stim077_animate_insect_grasshopper_1.png	77	animate	insect	grasshopper	1	0	2	boats	3	incorrect	1.33954373003689
31779	1	stim158_inanimate_furniture_table_2.png	158	inanimate	furniture	table	2	0	2	boats	3	incorrect	1.33954373003689
31829	1	stim148_inanimate_furniture_chair_4.png	148	inanimate	furniture	chair	4	0	2	boats	3	incorrect	1.33954373003689
31879	1	stim075_animate_insect_dragonfly_3.png	75	animate	insect	dragonfly	3	0	2	boats	3	incorrect	1.33954373003689
31929	1	stim062_animate_insect_ant_2.png	62	animate	insect	ant	2	0	2	boats	3	incorrect	1.33954373003689
31978	1	stim013_animate_aquatic_shark_1.png	13	animate	aquatic	shark	1	0	2	boats	3	incorrect	1.33954373003689
32029	1	stim140_inanimate_fruits_strawberry_4.png	140	inanimate	fruits	strawberry	4	0	2	boats	3	incorrect	1.33954373003689
32079	1	stim113_inanimate_clothing_shirt_1.png	113	inanimate	clothing	shirt	1	0	2	boats	3	incorrect	1.33954373003689
32129	1	stim061_animate_insect_ant_1.png	61	animate	insect	ant	1	0	2	boats	3	incorrect	1.33954373003689
32179	1	stim192_inanimate_tools_pan_4.png	192	inanimate	tools	pan	4	0	2	boats	3	incorrect	1.33954373003689
32229	1	stim094_animate_mammal_monkey_2.png	94	animate	mammal	monkey	2	0	2	boats	3	incorrect	1.33954373003689
32279	1	stim204_targets_object_boats_4.png	204	targets	object	boats	4	1	2	boats	3	incorrect	1.33954373003689
32329	1	stim145_inanimate_furniture_chair_1.png	145	inanimate	furniture	chair	1	0	2	boats	3	incorrect	1.33954373003689
32379	1	stim031_animate_bird_parrot_3.png	31	animate	bird	parrot	3	0	2	boats	3	incorrect	1.33954373003689
32429	1	stim160_inanimate_furniture_table_4.png	160	inanimate	furniture	table	4	0	2	boats	3	incorrect	1.33954373003689
32479	1	stim186_inanimate_tools_hammer_2.png	186	inanimate	tools	hammer	2	0	2	boats	3	incorrect	1.33954373003689
32529	1	stim019_animate_aquatic_shrimp_3.png	19	animate	aquatic	shrimp	3	0	2	boats	3	incorrect	1.33954373003689
32579	1	stim196_inanimate_tools_scissors_4.png	196	inanimate	tools	scissors	4	0	2	boats	3	incorrect	1.33954373003689
32629	1	stim177_inanimate_plants_tulip_1.png	177	inanimate	plants	tulip	1	0	2	boats	3	incorrect	1.33954373003689
32679	1	stim107_inanimate_clothing_hat_3.png	107	inanimate	clothing	hat	3	0	2	boats	3	incorrect	1.33954373003689
32729	1	stim017_animate_aquatic_shrimp_1.png	17	animate	aquatic	shrimp	1	0	2	boats	3	incorrect	1.33954373003689
32779	1	stim151_inanimate_furniture_closet_3.png	151	inanimate	furniture	closet	3	0	2	boats	3	incorrect	1.33954373003689
32829	1	stim174_inanimate_plants_tree_2.png	174	inanimate	plants	tree	2	0	2	boats	3	incorrect	1.33954373003689
32879	1	stim166_inanimate_plants_cactus_2.png	166	inanimate	plants	cactus	2	0	2	boats	3	incorrect	1.33954373003689
32929	1	stim156_inanimate_furniture_sofa_4.png	156	inanimate	furniture	sofa	4	0	2	boats	3	incorrect	1.33954373003689
32979	1	stim116_inanimate_clothing_shirt_4.png	116	inanimate	clothing	shirt	4	0	2	boats	3	incorrect	1.33954373003689
33029	1	stim071_animate_insect_butterfly_3.png	71	animate	insect	butterfly	3	0	2	boats	3	incorrect	1.33954373003689
33079	1	stim021_animate_bird_chicken_1.png	21	animate	bird	chicken	1	0	2	boats	3	incorrect	1.33954373003689
33129	1	stim111_inanimate_clothing_jeans_3.png	111	inanimate	clothing	jeans	3	0	2	boats	3	incorrect	1.33954373003689
33179	1	stim084_animate_mammal_cow_4.png	84	animate	mammal	cow	4	0	2	boats	3	incorrect	1.33954373003689
33229	1	stim091_animate_mammal_kangaroo_3.png	91	animate	mammal	kangaroo	3	0	2	boats	3	incorrect	1.33954373003689
33279	1	stim096_animate_mammal_monkey_4.png	96	animate	mammal	monkey	4	0	2	boats	3	incorrect	1.33954373003689
33329	1	stim038_animate_bird_penguin_2.png	38	animate	bird	penguin	2	0	2	boats	3	incorrect	1.33954373003689
33379	1	stim184_inanimate_tools_broom_4.png	184	inanimate	tools	broom	4	0	2	boats	3	incorrect	1.33954373003689
33429	1	stim164_inanimate_plants_bush_4.png	164	inanimate	plants	bush	4	0	2	boats	3	incorrect	1.33954373003689
33479	1	stim102_inanimate_clothing_gloves_2.png	102	inanimate	clothing	gloves	2	0	2	boats	3	incorrect	1.33954373003689
33529	1	stim067_animate_insect_bug_3.png	67	animate	insect	bug	3	0	2	boats	3	incorrect	1.33954373003689
33579	1	stim088_animate_mammal_giraffe_4.png	88	animate	mammal	giraffe	4	0	2	boats	3	incorrect	1.33954373003689
33629	1	stim007_animate_aquatic_fish_3.png	7	animate	aquatic	fish	3	0	2	boats	3	incorrect	1.33954373003689
33679	1	stim182_inanimate_tools_broom_2.png	182	inanimate	tools	broom	2	0	2	boats	3	incorrect	1.33954373003689
33729	1	stim010_animate_aquatic_seahorse_2.png	10	animate	aquatic	seahorse	2	0	2	boats	3	incorrect	1.33954373003689
33779	1	stim060_animate_human_sports_4.png	60	animate	human	sports	4	0	2	boats	3	incorrect	1.33954373003689
33829	1	stim065_animate_insect_bug_1.png	65	animate	insect	bug	1	0	2	boats	3	incorrect	1.33954373003689
33879	1	stim082_animate_mammal_cow_2.png	82	animate	mammal	cow	2	0	2	boats	3	incorrect	1.33954373003689
33929	1	stim054_animate_human_faces_2.png	54	animate	human	faces	2	0	2	boats	3	incorrect	1.33954373003689
33979	1	stim016_animate_aquatic_shark_4.png	16	animate	aquatic	shark	4	0	2	boats	3	incorrect	1.33954373003689
34029	1	stim098_animate_mammal_rhino_2.png	98	animate	mammal	rhino	2	0	2	boats	3	incorrect	1.33954373003689
34079	1	stim193_inanimate_tools_scissors_1.png	193	inanimate	tools	scissors	1	0	2	boats	3	incorrect	1.33954373003689
34129	1	stim175_inanimate_plants_tree_3.png	175	inanimate	plants	tree	3	0	2	boats	3	incorrect	1.33954373003689
34179	1	stim109_inanimate_clothing_jeans_1.png	109	inanimate	clothing	jeans	1	0	2	boats	3	incorrect	1.33954373003689
34229	1	stim092_animate_mammal_kangaroo_4.png	92	animate	mammal	kangaroo	4	0	2	boats	3	incorrect	1.33954373003689
34279	1	stim050_animate_human_clown_2.png	50	animate	human	clown	2	0	2	boats	3	incorrect	1.33954373003689
34329	1	stim011_animate_aquatic_seahorse_3.png	11	animate	aquatic	seahorse	3	0	2	boats	3	incorrect	1.33954373003689
34379	1	stim135_inanimate_fruits_pineapple_3.png	135	inanimate	fruits	pineapple	3	0	2	boats	3	incorrect	1.33954373003689
34429	1	stim199_inanimate_tools_wrench_3.png	199	inanimate	tools	wrench	3	0	2	boats	3	incorrect	1.33954373003689
34479	1	stim121_inanimate_fruits_apple_1.png	121	inanimate	fruits	apple	1	0	2	boats	3	incorrect	1.33954373003689
34529	1	stim105_inanimate_clothing_hat_1.png	105	inanimate	clothing	hat	1	0	2	boats	3	incorrect	1.33954373003689
34579	1	stim138_inanimate_fruits_strawberry_2.png	138	inanimate	fruits	strawberry	2	0	2	boats	3	incorrect	1.33954373003689
34629	1	stim129_inanimate_fruits_grape_1.png	129	inanimate	fruits	grape	1	0	2	boats	3	incorrect	1.33954373003689
34679	1	stim208_targets_object_boats_4.png	208	targets	object	boats	4	1	2	boats	3	incorrect	1.33954373003689
34729	1	stim188_inanimate_tools_hammer_4.png	188	inanimate	tools	hammer	4	0	2	boats	3	incorrect	1.33954373003689
34779	1	stim026_animate_bird_duck_2.png	26	animate	bird	duck	2	0	2	boats	3	incorrect	1.33954373003689
34829	1	stim072_animate_insect_butterfly_4.png	72	animate	insect	butterfly	4	0	2	boats	3	incorrect	1.33954373003689
34879	1	stim194_inanimate_tools_scissors_2.png	194	inanimate	tools	scissors	2	0	2	boats	3	incorrect	1.33954373003689
34929	1	stim081_animate_mammal_cow_1.png	81	animate	mammal	cow	1	0	2	boats	3	incorrect	1.33954373003689
34979	1	stim032_animate_bird_parrot_4.png	32	animate	bird	parrot	4	0	2	boats	3	incorrect	1.33954373003689
35029	1	stim093_animate_mammal_monkey_1.png	93	animate	mammal	monkey	1	0	2	boats	3	incorrect	1.33954373003689
35079	1	stim136_inanimate_fruits_pineapple_4.png	136	inanimate	fruits	pineapple	4	0	2	boats	3	incorrect	1.33954373003689
35129	1	stim099_animate_mammal_rhino_3.png	99	animate	mammal	rhino	3	0	2	boats	3	incorrect	1.33954373003689
35179	1	stim048_animate_human_child_4.png	48	animate	human	child	4	0	2	boats	3	incorrect	1.33954373003689
35229	1	stim089_animate_mammal_kangaroo_1.png	89	animate	mammal	kangaroo	1	0	2	boats	3	incorrect	1.33954373003689
35279	1	stim185_inanimate_tools_hammer_1.png	185	inanimate	tools	hammer	1	0	2	boats	3	incorrect	1.33954373003689
35329	1	stim069_animate_insect_butterfly_1.png	69	animate	insect	butterfly	1	0	2	boats	3	incorrect	1.33954373003689
35379	1	stim130_inanimate_fruits_grape_2.png	130	inanimate	fruits	grape	2	0	2	boats	3	incorrect	1.33954373003689
35429	1	stim195_inanimate_tools_scissors_3.png	195	inanimate	tools	scissors	3	0	2	boats	3	incorrect	1.33954373003689
35479	1	stim100_animate_mammal_rhino_4.png	100	animate	mammal	rhino	4	0	2	boats	3	incorrect	1.33954373003689
35529	1	stim191_inanimate_tools_pan_3.png	191	inanimate	tools	pan	3	0	2	boats	3	incorrect	1.33954373003689
35579	1	stim170_inanimate_plants_sunflower_2.png	170	inanimate	plants	sunflower	2	0	2	boats	3	incorrect	1.33954373003689
35629	1	stim015_animate_aquatic_shark_3.png	15	animate	aquatic	shark	3	0	2	boats	3	incorrect	1.33954373003689
35679	1	stim090_animate_mammal_kangaroo_2.png	90	animate	mammal	kangaroo	2	0	2	boats	3	incorrect	1.33954373003689
35729	1	stim027_animate_bird_duck_3.png	27	animate	bird	duck	3	0	2	boats	3	incorrect	1.33954373003689
35779	1	stim180_inanimate_plants_tulip_4.png	180	inanimate	plants	tulip	4	0	2	boats	3	incorrect	1.33954373003689
35829	1	stim097_animate_mammal_rhino_1.png	97	animate	mammal	rhino	1	0	2	boats	3	incorrect	1.33954373003689
35879	1	stim139_inanimate_fruits_strawberry_3.png	139	inanimate	fruits	strawberry	3	0	2	boats	3	incorrect	1.33954373003689
35929	1	stim162_inanimate_plants_bush_2.png	162	inanimate	plants	bush	2	0	2	boats	3	incorrect	1.33954373003689
35979	1	stim034_animate_bird_peacock_2.png	34	animate	bird	peacock	2	0	2	boats	3	incorrect	1.33954373003689
36029	1	stim022_animate_bird_chicken_2.png	22	animate	bird	chicken	2	0	2	boats	3	incorrect	1.33954373003689
36079	1	stim189_inanimate_tools_pan_1.png	189	inanimate	tools	pan	1	0	2	boats	3	incorrect	1.33954373003689
36129	1	stim066_animate_insect_bug_2.png	66	animate	insect	bug	2	0	2	boats	3	incorrect	1.33954373003689
36179	1	stim187_inanimate_tools_hammer_3.png	187	inanimate	tools	hammer	3	0	2	boats	3	incorrect	1.33954373003689
36229	1	stim037_animate_bird_penguin_1.png	37	animate	bird	penguin	1	0	2	boats	3	incorrect	1.33954373003689
36279	1	stim144_inanimate_furniture_bed_4.png	144	inanimate	furniture	bed	4	0	2	boats	3	incorrect	1.33954373003689
36329	1	stim159_inanimate_furniture_table_3.png	159	inanimate	furniture	table	3	0	2	boats	3	incorrect	1.33954373003689
36379	1	stim006_animate_aquatic_fish_2.png	6	animate	aquatic	fish	2	0	2	boats	3	incorrect	1.33954373003689
36429	1	stim126_inanimate_fruits_banana_2.png	126	inanimate	fruits	banana	2	0	2	boats	3	incorrect	1.33954373003689
36479	1	stim172_inanimate_plants_sunflower_4.png	172	inanimate	plants	sunflower	4	0	2	boats	3	incorrect	1.33954373003689
36529	1	stim044_animate_human_baby_4.png	44	animate	human	baby	4	0	2	boats	3	incorrect	1.33954373003689
36579	1	stim029_animate_bird_parrot_1.png	29	animate	bird	parrot	1	0	2	boats	3	incorrect	1.33954373003689
36629	1	stim149_inanimate_furniture_closet_1.png	149	inanimate	furniture	closet	1	0	2	boats	3	incorrect	1.33954373003689
36679	1	stim108_inanimate_clothing_hat_4.png	108	inanimate	clothing	hat	4	0	2	boats	3	incorrect	1.33954373003689
36729	1	stim018_animate_aquatic_shrimp_2.png	18	animate	aquatic	shrimp	2	0	2	boats	3	incorrect	1.33954373003689
36779	1	stim198_inanimate_tools_wrench_2.png	198	inanimate	tools	wrench	2	0	2	boats	3	incorrect	1.33954373003689
36829	1	stim133_inanimate_fruits_pineapple_1.png	133	inanimate	fruits	pineapple	1	0	2	boats	3	incorrect	1.33954373003689
36879	1	stim063_animate_insect_ant_3.png	63	animate	insect	ant	3	0	2	boats	3	incorrect	1.33954373003689
36929	1	stim039_animate_bird_penguin_3.png	39	animate	bird	penguin	3	0	2	boats	3	incorrect	1.33954373003689
36979	1	stim045_animate_human_child_1.png	45	animate	human	child	1	0	2	boats	3	incorrect	1.33954373003689
37029	1	stim036_animate_bird_peacock_4.png	36	animate	bird	peacock	4	0	2	boats	3	incorrect	1.33954373003689
37079	1	stim101_inanimate_clothing_gloves_1.png	101	inanimate	clothing	gloves	1	0	2	boats	3	incorrect	1.33954373003689
41929	1	stim195_inanimate_tools_scissors_3.png	195	inanimate	tools	scissors	3	0	3	stars	3	incorrect	1.11609232870433
41979	1	stim107_inanimate_clothing_hat_3.png	107	inanimate	clothing	hat	3	0	3	stars	3	incorrect	1.11609232870433
42029	1	stim074_animate_insect_dragonfly_2.png	74	animate	insect	dragonfly	2	0	3	stars	3	incorrect	1.11609232870433
42079	1	stim037_animate_bird_penguin_1.png	37	animate	bird	penguin	1	0	3	stars	3	incorrect	1.11609232870433
42129	1	stim035_animate_bird_peacock_3.png	35	animate	bird	peacock	3	0	3	stars	3	incorrect	1.11609232870433
42179	1	stim078_animate_insect_grasshopper_2.png	78	animate	insect	grasshopper	2	0	3	stars	3	incorrect	1.11609232870433
42229	1	stim191_inanimate_tools_pan_3.png	191	inanimate	tools	pan	3	0	3	stars	3	incorrect	1.11609232870433
42279	1	stim199_inanimate_tools_wrench_3.png	199	inanimate	tools	wrench	3	0	3	stars	3	incorrect	1.11609232870433
42329	1	stim033_animate_bird_peacock_1.png	33	animate	bird	peacock	1	0	3	stars	3	incorrect	1.11609232870433
42379	1	stim165_inanimate_plants_cactus_1.png	165	inanimate	plants	cactus	1	0	3	stars	3	incorrect	1.11609232870433
42429	1	stim140_inanimate_fruits_strawberry_4.png	140	inanimate	fruits	strawberry	4	0	3	stars	3	incorrect	1.11609232870433
42479	1	stim086_animate_mammal_giraffe_2.png	86	animate	mammal	giraffe	2	0	3	stars	3	incorrect	1.11609232870433
42529	1	stim067_animate_insect_bug_3.png	67	animate	insect	bug	3	0	3	stars	3	incorrect	1.11609232870433
42579	1	stim160_inanimate_furniture_table_4.png	160	inanimate	furniture	table	4	0	3	stars	3	incorrect	1.11609232870433
42629	1	stim069_animate_insect_butterfly_1.png	69	animate	insect	butterfly	1	0	3	stars	3	incorrect	1.11609232870433
42679	1	stim040_animate_bird_penguin_4.png	40	animate	bird	penguin	4	0	3	stars	3	incorrect	1.11609232870433
42729	1	stim180_inanimate_plants_tulip_4.png	180	inanimate	plants	tulip	4	0	3	stars	3	incorrect	1.11609232870433
42779	1	stim104_inanimate_clothing_gloves_4.png	104	inanimate	clothing	gloves	4	0	3	stars	3	incorrect	1.11609232870433
42829	1	stim123_inanimate_fruits_apple_3.png	123	inanimate	fruits	apple	3	0	3	stars	3	incorrect	1.11609232870433
42879	1	stim177_inanimate_plants_tulip_1.png	177	inanimate	plants	tulip	1	0	3	stars	3	incorrect	1.11609232870433
42929	1	stim106_inanimate_clothing_hat_2.png	106	inanimate	clothing	hat	2	0	3	stars	3	incorrect	1.11609232870433
42979	1	stim095_animate_mammal_monkey_3.png	95	animate	mammal	monkey	3	0	3	stars	3	incorrect	1.11609232870433
43029	1	stim128_inanimate_fruits_banana_4.png	128	inanimate	fruits	banana	4	0	3	stars	3	incorrect	1.11609232870433
43079	1	stim120_inanimate_clothing_socks_4.png	120	inanimate	clothing	socks	4	0	3	stars	3	incorrect	1.11609232870433
43129	1	stim179_inanimate_plants_tulip_3.png	179	inanimate	plants	tulip	3	0	3	stars	3	incorrect	1.11609232870433
43179	1	stim029_animate_bird_parrot_1.png	29	animate	bird	parrot	1	0	3	stars	3	incorrect	1.11609232870433
43229	1	stim043_animate_human_baby_3.png	43	animate	human	baby	3	0	3	stars	3	incorrect	1.11609232870433
43279	1	stim003_animate_aquatic_crab_3.png	3	animate	aquatic	crab	3	0	3	stars	3	incorrect	1.11609232870433
43329	1	stim171_inanimate_plants_sunflower_3.png	171	inanimate	plants	sunflower	3	0	3	stars	3	incorrect	1.11609232870433
43379	1	stim049_animate_human_clown_1.png	49	animate	human	clown	1	0	3	stars	3	incorrect	1.11609232870433
43429	1	stim145_inanimate_furniture_chair_1.png	145	inanimate	furniture	chair	1	0	3	stars	3	incorrect	1.11609232870433
43479	1	stim036_animate_bird_peacock_4.png	36	animate	bird	peacock	4	0	3	stars	3	incorrect	1.11609232870433
43529	1	stim092_animate_mammal_kangaroo_4.png	92	animate	mammal	kangaroo	4	0	3	stars	3	incorrect	1.11609232870433
43579	1	stim163_inanimate_plants_bush_3.png	163	inanimate	plants	bush	3	0	3	stars	3	incorrect	1.11609232870433
43629	1	stim132_inanimate_fruits_grape_4.png	132	inanimate	fruits	grape	4	0	3	stars	3	incorrect	1.11609232870433
43679	1	stim157_inanimate_furniture_table_1.png	157	inanimate	furniture	table	1	0	3	stars	3	incorrect	1.11609232870433
43729	1	stim200_inanimate_tools_wrench_4.png	200	inanimate	tools	wrench	4	0	3	stars	3	incorrect	1.11609232870433
43779	1	stim103_inanimate_clothing_gloves_3.png	103	inanimate	clothing	gloves	3	0	3	stars	3	incorrect	1.11609232870433
43829	1	stim016_animate_aquatic_shark_4.png	16	animate	aquatic	shark	4	0	3	stars	3	incorrect	1.11609232870433
43879	1	stim175_inanimate_plants_tree_3.png	175	inanimate	plants	tree	3	0	3	stars	3	incorrect	1.11609232870433
43929	1	stim114_inanimate_clothing_shirt_2.png	114	inanimate	clothing	shirt	2	0	3	stars	3	incorrect	1.11609232870433
43979	1	stim001_animate_aquatic_crab_1.png	1	animate	aquatic	crab	1	0	3	stars	3	incorrect	1.11609232870433
44029	1	stim019_animate_aquatic_shrimp_3.png	19	animate	aquatic	shrimp	3	0	3	stars	3	incorrect	1.11609232870433
44079	1	stim115_inanimate_clothing_shirt_3.png	115	inanimate	clothing	shirt	3	0	3	stars	3	incorrect	1.11609232870433
44129	1	stim096_animate_mammal_monkey_4.png	96	animate	mammal	monkey	4	0	3	stars	3	incorrect	1.11609232870433
44179	1	stim048_animate_human_child_4.png	48	animate	human	child	4	0	3	stars	3	incorrect	1.11609232870433
44229	1	stim142_inanimate_furniture_bed_2.png	142	inanimate	furniture	bed	2	0	3	stars	3	incorrect	1.11609232870433
44279	1	stim215_targets_shapes_star_3.png	215	targets	shapes	star	3	1	3	stars	3	incorrect	1.11609232870433
44329	1	stim076_animate_insect_dragonfly_4.png	76	animate	insect	dragonfly	4	0	3	stars	3	incorrect	1.11609232870433
44379	1	stim174_inanimate_plants_tree_2.png	174	inanimate	plants	tree	2	0	3	stars	3	incorrect	1.11609232870433
44429	1	stim149_inanimate_furniture_closet_1.png	149	inanimate	furniture	closet	1	0	3	stars	3	incorrect	1.11609232870433
44479	1	stim066_animate_insect_bug_2.png	66	animate	insect	bug	2	0	3	stars	3	incorrect	1.11609232870433
44529	1	stim125_inanimate_fruits_banana_1.png	125	inanimate	fruits	banana	1	0	3	stars	3	incorrect	1.11609232870433
44579	1	stim013_animate_aquatic_shark_1.png	13	animate	aquatic	shark	1	0	3	stars	3	incorrect	1.11609232870433
44629	1	stim112_inanimate_clothing_jeans_4.png	112	inanimate	clothing	jeans	4	0	3	stars	3	incorrect	1.11609232870433
44679	1	stim185_inanimate_tools_hammer_1.png	185	inanimate	tools	hammer	1	0	3	stars	3	incorrect	1.11609232870433
44729	1	stim044_animate_human_baby_4.png	44	animate	human	baby	4	0	3	stars	3	incorrect	1.11609232870433
44779	1	stim084_animate_mammal_cow_4.png	84	animate	mammal	cow	4	0	3	stars	3	incorrect	1.11609232870433
44829	1	stim064_animate_insect_ant_4.png	64	animate	insect	ant	4	0	3	stars	3	incorrect	1.11609232870433
44879	1	stim097_animate_mammal_rhino_1.png	97	animate	mammal	rhino	1	0	3	stars	3	incorrect	1.11609232870433
44929	1	stim085_animate_mammal_giraffe_1.png	85	animate	mammal	giraffe	1	0	3	stars	3	incorrect	1.11609232870433
44979	1	stim047_animate_human_child_3.png	47	animate	human	child	3	0	3	stars	3	incorrect	1.11609232870433
45029	1	stim135_inanimate_fruits_pineapple_3.png	135	inanimate	fruits	pineapple	3	0	3	stars	3	incorrect	1.11609232870433
45079	1	stim113_inanimate_clothing_shirt_1.png	113	inanimate	clothing	shirt	1	0	3	stars	3	incorrect	1.11609232870433
45129	1	stim093_animate_mammal_monkey_1.png	93	animate	mammal	monkey	1	0	3	stars	3	incorrect	1.11609232870433
45179	1	stim139_inanimate_fruits_strawberry_3.png	139	inanimate	fruits	strawberry	3	0	3	stars	3	incorrect	1.11609232870433
45229	1	stim155_inanimate_furniture_sofa_3.png	155	inanimate	furniture	sofa	3	0	3	stars	3	incorrect	1.11609232870433
45279	1	stim178_inanimate_plants_tulip_2.png	178	inanimate	plants	tulip	2	0	3	stars	3	incorrect	1.11609232870433
45329	1	stim150_inanimate_furniture_closet_2.png	150	inanimate	furniture	closet	2	0	3	stars	3	incorrect	1.11609232870433
45379	1	stim116_inanimate_clothing_shirt_4.png	116	inanimate	clothing	shirt	4	0	3	stars	3	incorrect	1.11609232870433
45429	1	stim193_inanimate_tools_scissors_1.png	193	inanimate	tools	scissors	1	0	3	stars	3	incorrect	1.11609232870433
45479	1	stim091_animate_mammal_kangaroo_3.png	91	animate	mammal	kangaroo	3	0	3	stars	3	incorrect	1.11609232870433
45529	1	stim130_inanimate_fruits_grape_2.png	130	inanimate	fruits	grape	2	0	3	stars	3	incorrect	1.11609232870433
45579	1	stim014_animate_aquatic_shark_2.png	14	animate	aquatic	shark	2	0	3	stars	3	incorrect	1.11609232870433
45629	1	stim109_inanimate_clothing_jeans_1.png	109	inanimate	clothing	jeans	1	0	3	stars	3	incorrect	1.11609232870433
45679	1	stim007_animate_aquatic_fish_3.png	7	animate	aquatic	fish	3	0	3	stars	3	incorrect	1.11609232870433
45729	1	stim189_inanimate_tools_pan_1.png	189	inanimate	tools	pan	1	0	3	stars	3	incorrect	1.11609232870433
45779	1	stim111_inanimate_clothing_jeans_3.png	111	inanimate	clothing	jeans	3	0	3	stars	3	incorrect	1.11609232870433
45829	1	stim039_animate_bird_penguin_3.png	39	animate	bird	penguin	3	0	3	stars	3	incorrect	1.11609232870433
45879	1	stim162_inanimate_plants_bush_2.png	162	inanimate	plants	bush	2	0	3	stars	3	incorrect	1.11609232870433
45929	1	stim058_animate_human_sports_2.png	58	animate	human	sports	2	0	3	stars	3	incorrect	1.11609232870433
45979	1	stim216_targets_shapes_star_4.png	216	targets	shapes	star	4	1	3	stars	3	incorrect	1.11609232870433
46029	1	stim168_inanimate_plants_cactus_4.png	168	inanimate	plants	cactus	4	0	3	stars	3	incorrect	1.11609232870433
46079	1	stim144_inanimate_furniture_bed_4.png	144	inanimate	furniture	bed	4	0	3	stars	3	incorrect	1.11609232870433
46129	1	stim034_animate_bird_peacock_2.png	34	animate	bird	peacock	2	0	3	stars	3	incorrect	1.11609232870433
46179	1	stim052_animate_human_clown_4.png	52	animate	human	clown	4	0	3	stars	3	incorrect	1.11609232870433
46229	1	stim059_animate_human_sports_3.png	59	animate	human	sports	3	0	3	stars	3	incorrect	1.11609232870433
46279	1	stim070_animate_insect_butterfly_2.png	70	animate	insect	butterfly	2	0	3	stars	3	incorrect	1.11609232870433
46329	1	stim072_animate_insect_butterfly_4.png	72	animate	insect	butterfly	4	0	3	stars	3	incorrect	1.11609232870433
46379	1	stim147_inanimate_furniture_chair_3.png	147	inanimate	furniture	chair	3	0	3	stars	3	incorrect	1.11609232870433
46429	1	stim196_inanimate_tools_scissors_4.png	196	inanimate	tools	scissors	4	0	3	stars	3	incorrect	1.11609232870433
46479	1	stim020_animate_aquatic_shrimp_4.png	20	animate	aquatic	shrimp	4	0	3	stars	3	incorrect	1.11609232870433
46529	1	stim131_inanimate_fruits_grape_3.png	131	inanimate	fruits	grape	3	0	3	stars	3	incorrect	1.11609232870433
46579	1	stim025_animate_bird_duck_1.png	25	animate	bird	duck	1	0	3	stars	3	incorrect	1.11609232870433
46629	1	stim190_inanimate_tools_pan_2.png	190	inanimate	tools	pan	2	0	3	stars	3	incorrect	1.11609232870433
46679	1	stim181_inanimate_tools_broom_1.png	181	inanimate	tools	broom	1	0	3	stars	3	incorrect	1.11609232870433
46729	1	stim071_animate_insect_butterfly_3.png	71	animate	insect	butterfly	3	0	3	stars	3	incorrect	1.11609232870433
46779	1	stim152_inanimate_furniture_closet_4.png	152	inanimate	furniture	closet	4	0	3	stars	3	incorrect	1.11609232870433
46829	1	stim184_inanimate_tools_broom_4.png	184	inanimate	tools	broom	4	0	3	stars	3	incorrect	1.11609232870433
46879	1	stim026_animate_bird_duck_2.png	26	animate	bird	duck	2	0	3	stars	3	incorrect	1.11609232870433
46929	1	stim134_inanimate_fruits_pineapple_2.png	134	inanimate	fruits	pineapple	2	0	3	stars	3	incorrect	1.11609232870433
46979	1	stim186_inanimate_tools_hammer_2.png	186	inanimate	tools	hammer	2	0	3	stars	3	incorrect	1.11609232870433
47029	1	stim100_animate_mammal_rhino_4.png	100	animate	mammal	rhino	4	0	3	stars	3	incorrect	1.11609232870433
47079	1	stim077_animate_insect_grasshopper_1.png	77	animate	insect	grasshopper	1	0	3	stars	3	incorrect	1.11609232870433
47129	1	stim010_animate_aquatic_seahorse_2.png	10	animate	aquatic	seahorse	2	0	3	stars	3	incorrect	1.11609232870433
47179	1	stim090_animate_mammal_kangaroo_2.png	90	animate	mammal	kangaroo	2	0	3	stars	3	incorrect	1.11609232870433
47229	1	stim118_inanimate_clothing_socks_2.png	118	inanimate	clothing	socks	2	0	3	stars	3	incorrect	1.11609232870433
47279	1	stim122_inanimate_fruits_apple_2.png	122	inanimate	fruits	apple	2	0	3	stars	3	incorrect	1.11609232870433
47329	1	stim008_animate_aquatic_fish_4.png	8	animate	aquatic	fish	4	0	3	stars	3	incorrect	1.11609232870433
47379	1	stim011_animate_aquatic_seahorse_3.png	11	animate	aquatic	seahorse	3	0	3	stars	3	incorrect	1.11609232870433
47429	1	stim198_inanimate_tools_wrench_2.png	198	inanimate	tools	wrench	2	0	3	stars	3	incorrect	1.11609232870433
47479	1	stim099_animate_mammal_rhino_3.png	99	animate	mammal	rhino	3	0	3	stars	3	incorrect	1.11609232870433
47529	1	stim018_animate_aquatic_shrimp_2.png	18	animate	aquatic	shrimp	2	0	3	stars	3	incorrect	1.11609232870433
47579	1	stim080_animate_insect_grasshopper_4.png	80	animate	insect	grasshopper	4	0	3	stars	3	incorrect	1.11609232870433
47629	1	stim169_inanimate_plants_sunflower_1.png	169	inanimate	plants	sunflower	1	0	3	stars	3	incorrect	1.11609232870433
47679	1	stim137_inanimate_fruits_strawberry_1.png	137	inanimate	fruits	strawberry	1	0	3	stars	3	incorrect	1.11609232870433
47729	1	stim087_animate_mammal_giraffe_3.png	87	animate	mammal	giraffe	3	0	3	stars	3	incorrect	1.11609232870433
47779	1	stim187_inanimate_tools_hammer_3.png	187	inanimate	tools	hammer	3	0	3	stars	3	incorrect	1.11609232870433
47829	1	stim124_inanimate_fruits_apple_4.png	124	inanimate	fruits	apple	4	0	3	stars	3	incorrect	1.11609232870433
47879	1	stim138_inanimate_fruits_strawberry_2.png	138	inanimate	fruits	strawberry	2	0	3	stars	3	incorrect	1.11609232870433
47929	1	stim154_inanimate_furniture_sofa_2.png	154	inanimate	furniture	sofa	2	0	3	stars	3	incorrect	1.11609232870433
47979	1	stim065_animate_insect_bug_1.png	65	animate	insect	bug	1	0	3	stars	3	incorrect	1.11609232870433
48029	1	stim068_animate_insect_bug_4.png	68	animate	insect	bug	4	0	3	stars	3	incorrect	1.11609232870433
48079	1	stim062_animate_insect_ant_2.png	62	animate	insect	ant	2	0	3	stars	3	incorrect	1.11609232870433
48129	1	stim209_targets_shapes_star_1.png	209	targets	shapes	star	1	1	3	stars	3	incorrect	1.11609232870433
48179	1	stim050_animate_human_clown_2.png	50	animate	human	clown	2	0	3	stars	3	incorrect	1.11609232870433
48229	1	stim158_inanimate_furniture_table_2.png	158	inanimate	furniture	table	2	0	3	stars	3	incorrect	1.11609232870433
48279	1	stim121_inanimate_fruits_apple_1.png	121	inanimate	fruits	apple	1	0	3	stars	3	incorrect	1.11609232870433
48329	1	stim156_inanimate_furniture_sofa_4.png	156	inanimate	furniture	sofa	4	0	3	stars	3	incorrect	1.11609232870433
48379	1	stim153_inanimate_furniture_sofa_1.png	153	inanimate	furniture	sofa	1	0	3	stars	3	incorrect	1.11609232870433
48429	1	stim110_inanimate_clothing_jeans_2.png	110	inanimate	clothing	jeans	2	0	3	stars	3	incorrect	1.11609232870433
48479	1	stim119_inanimate_clothing_socks_3.png	119	inanimate	clothing	socks	3	0	3	stars	3	incorrect	1.11609232870433
48529	1	stim006_animate_aquatic_fish_2.png	6	animate	aquatic	fish	2	0	3	stars	3	incorrect	1.11609232870433
48579	1	stim004_animate_aquatic_crab_4.png	4	animate	aquatic	crab	4	0	3	stars	3	incorrect	1.11609232870433
48629	1	stim032_animate_bird_parrot_4.png	32	animate	bird	parrot	4	0	3	stars	3	incorrect	1.11609232870433
48679	1	stim051_animate_human_clown_3.png	51	animate	human	clown	3	0	3	stars	3	incorrect	1.11609232870433
48729	1	stim164_inanimate_plants_bush_4.png	164	inanimate	plants	bush	4	0	3	stars	3	incorrect	1.11609232870433
48779	1	stim183_inanimate_tools_broom_3.png	183	inanimate	tools	broom	3	0	3	stars	3	incorrect	1.11609232870433
48829	1	stim102_inanimate_clothing_gloves_2.png	102	inanimate	clothing	gloves	2	0	3	stars	3	incorrect	1.11609232870433
48879	1	stim214_targets_shapes_star_2.png	214	targets	shapes	star	2	1	3	stars	3	incorrect	1.11609232870433
48929	1	stim038_animate_bird_penguin_2.png	38	animate	bird	penguin	2	0	3	stars	3	incorrect	1.11609232870433
48979	1	stim166_inanimate_plants_cactus_2.png	166	inanimate	plants	cactus	2	0	3	stars	3	incorrect	1.11609232870433
49029	1	stim060_animate_human_sports_4.png	60	animate	human	sports	4	0	3	stars	3	incorrect	1.11609232870433
49079	1	stim041_animate_human_baby_1.png	41	animate	human	baby	1	0	3	stars	3	incorrect	1.11609232870433
49129	1	stim057_animate_human_sports_1.png	57	animate	human	sports	1	0	3	stars	3	incorrect	1.11609232870433
49179	1	stim081_animate_mammal_cow_1.png	81	animate	mammal	cow	1	0	3	stars	3	incorrect	1.11609232870433
49229	1	stim151_inanimate_furniture_closet_3.png	151	inanimate	furniture	closet	3	0	3	stars	3	incorrect	1.11609232870433
49279	1	stim021_animate_bird_chicken_1.png	21	animate	bird	chicken	1	0	3	stars	3	incorrect	1.11609232870433
49329	1	stim023_animate_bird_chicken_3.png	23	animate	bird	chicken	3	0	3	stars	3	incorrect	1.11609232870433
49379	1	stim101_inanimate_clothing_gloves_1.png	101	inanimate	clothing	gloves	1	0	3	stars	3	incorrect	1.11609232870433
49429	1	stim094_animate_mammal_monkey_2.png	94	animate	mammal	monkey	2	0	3	stars	3	incorrect	1.11609232870433
49479	1	stim143_inanimate_furniture_bed_3.png	143	inanimate	furniture	bed	3	0	3	stars	3	incorrect	1.11609232870433
49529	1	stim009_animate_aquatic_seahorse_1.png	9	animate	aquatic	seahorse	1	0	3	stars	3	incorrect	1.11609232870433
49579	1	stim197_inanimate_tools_wrench_1.png	197	inanimate	tools	wrench	1	0	3	stars	3	incorrect	1.11609232870433
49629	1	stim182_inanimate_tools_broom_2.png	182	inanimate	tools	broom	2	0	3	stars	3	incorrect	1.11609232870433
49679	1	stim161_inanimate_plants_bush_1.png	161	inanimate	plants	bush	1	0	3	stars	3	incorrect	1.11609232870433
49729	1	stim045_animate_human_child_1.png	45	animate	human	child	1	0	3	stars	3	incorrect	1.11609232870433
49779	1	stim146_inanimate_furniture_chair_2.png	146	inanimate	furniture	chair	2	0	3	stars	3	incorrect	1.11609232870433
49829	1	stim017_animate_aquatic_shrimp_1.png	17	animate	aquatic	shrimp	1	0	3	stars	3	incorrect	1.11609232870433
49879	1	stim027_animate_bird_duck_3.png	27	animate	bird	duck	3	0	3	stars	3	incorrect	1.11609232870433
49929	1	stim042_animate_human_baby_2.png	42	animate	human	baby	2	0	3	stars	3	incorrect	1.11609232870433
49979	1	stim127_inanimate_fruits_banana_3.png	127	inanimate	fruits	banana	3	0	3	stars	3	incorrect	1.11609232870433
50029	1	stim141_inanimate_furniture_bed_1.png	141	inanimate	furniture	bed	1	0	3	stars	3	incorrect	1.11609232870433
50079	1	stim079_animate_insect_grasshopper_3.png	79	animate	insect	grasshopper	3	0	3	stars	3	incorrect	1.11609232870433
50129	1	stim089_animate_mammal_kangaroo_1.png	89	animate	mammal	kangaroo	1	0	3	stars	3	incorrect	1.11609232870433
50179	1	stim173_inanimate_plants_tree_1.png	173	inanimate	plants	tree	1	0	3	stars	3	incorrect	1.11609232870433
50229	1	stim117_inanimate_clothing_socks_1.png	117	inanimate	clothing	socks	1	0	3	stars	3	incorrect	1.11609232870433
50279	1	stim053_animate_human_faces_1.png	53	animate	human	faces	1	0	3	stars	3	incorrect	1.11609232870433
50329	1	stim194_inanimate_tools_scissors_2.png	194	inanimate	tools	scissors	2	0	3	stars	3	incorrect	1.11609232870433
50379	1	stim108_inanimate_clothing_hat_4.png	108	inanimate	clothing	hat	4	0	3	stars	3	incorrect	1.11609232870433
50429	1	stim005_animate_aquatic_fish_1.png	5	animate	aquatic	fish	1	0	3	stars	3	incorrect	1.11609232870433
50479	1	stim083_animate_mammal_cow_3.png	83	animate	mammal	cow	3	0	3	stars	3	incorrect	1.11609232870433
50529	1	stim073_animate_insect_dragonfly_1.png	73	animate	insect	dragonfly	1	0	3	stars	3	incorrect	1.11609232870433
50579	1	stim136_inanimate_fruits_pineapple_4.png	136	inanimate	fruits	pineapple	4	0	3	stars	3	incorrect	1.11609232870433
50629	1	stim061_animate_insect_ant_1.png	61	animate	insect	ant	1	0	3	stars	3	incorrect	1.11609232870433
50679	1	stim159_inanimate_furniture_table_3.png	159	inanimate	furniture	table	3	0	3	stars	3	incorrect	1.11609232870433
50729	1	stim075_animate_insect_dragonfly_3.png	75	animate	insect	dragonfly	3	0	3	stars	3	incorrect	1.11609232870433
50779	1	stim170_inanimate_plants_sunflower_2.png	170	inanimate	plants	sunflower	2	0	3	stars	3	incorrect	1.11609232870433
50829	1	stim172_inanimate_plants_sunflower_4.png	172	inanimate	plants	sunflower	4	0	3	stars	3	incorrect	1.11609232870433
50879	1	stim028_animate_bird_duck_4.png	28	animate	bird	duck	4	0	3	stars	3	incorrect	1.11609232870433
50929	1	stim126_inanimate_fruits_banana_2.png	126	inanimate	fruits	banana	2	0	3	stars	3	incorrect	1.11609232870433
50979	1	stim133_inanimate_fruits_pineapple_1.png	133	inanimate	fruits	pineapple	1	0	3	stars	3	incorrect	1.11609232870433
51029	1	stim192_inanimate_tools_pan_4.png	192	inanimate	tools	pan	4	0	3	stars	3	incorrect	1.11609232870433
51079	1	stim056_animate_human_faces_4.png	56	animate	human	faces	4	0	3	stars	3	incorrect	1.11609232870433
51129	1	stim030_animate_bird_parrot_2.png	30	animate	bird	parrot	2	0	3	stars	3	incorrect	1.11609232870433
51179	1	stim002_animate_aquatic_crab_2.png	2	animate	aquatic	crab	2	0	3	stars	3	incorrect	1.11609232870433
51229	1	stim046_animate_human_child_2.png	46	animate	human	child	2	0	3	stars	3	incorrect	1.11609232870433
51279	1	stim012_animate_aquatic_seahorse_4.png	12	animate	aquatic	seahorse	4	0	3	stars	3	incorrect	1.11609232870433
51329	1	stim176_inanimate_plants_tree_4.png	176	inanimate	plants	tree	4	0	3	stars	3	incorrect	1.11609232870433
51379	1	stim024_animate_bird_chicken_4.png	24	animate	bird	chicken	4	0	3	stars	3	incorrect	1.11609232870433
51429	1	stim088_animate_mammal_giraffe_4.png	88	animate	mammal	giraffe	4	0	3	stars	3	incorrect	1.11609232870433
51479	1	stim148_inanimate_furniture_chair_4.png	148	inanimate	furniture	chair	4	0	3	stars	3	incorrect	1.11609232870433
51529	1	stim105_inanimate_clothing_hat_1.png	105	inanimate	clothing	hat	1	0	3	stars	3	incorrect	1.11609232870433
51579	1	stim098_animate_mammal_rhino_2.png	98	animate	mammal	rhino	2	0	3	stars	3	incorrect	1.11609232870433
51629	1	stim188_inanimate_tools_hammer_4.png	188	inanimate	tools	hammer	4	0	3	stars	3	incorrect	1.11609232870433
51679	1	stim022_animate_bird_chicken_2.png	22	animate	bird	chicken	2	0	3	stars	3	incorrect	1.11609232870433
51729	1	stim082_animate_mammal_cow_2.png	82	animate	mammal	cow	2	0	3	stars	3	incorrect	1.11609232870433
51779	1	stim063_animate_insect_ant_3.png	63	animate	insect	ant	3	0	3	stars	3	incorrect	1.11609232870433
51829	1	stim055_animate_human_faces_3.png	55	animate	human	faces	3	0	3	stars	3	incorrect	1.11609232870433
51879	1	stim129_inanimate_fruits_grape_1.png	129	inanimate	fruits	grape	1	0	3	stars	3	incorrect	1.11609232870433
51929	1	stim031_animate_bird_parrot_3.png	31	animate	bird	parrot	3	0	3	stars	3	incorrect	1.11609232870433
51979	1	stim167_inanimate_plants_cactus_3.png	167	inanimate	plants	cactus	3	0	3	stars	3	incorrect	1.11609232870433
52029	1	stim015_animate_aquatic_shark_3.png	15	animate	aquatic	shark	3	0	3	stars	3	incorrect	1.11609232870433
52079	1	stim054_animate_human_faces_2.png	54	animate	human	faces	2	0	3	stars	3	incorrect	1.11609232870433
56246	1	stim072_animate_insect_butterfly_4.png	72	animate	insect	butterfly	4	0	4	stars	3	correct	1.05315412685377
56296	1	stim013_animate_aquatic_shark_1.png	13	animate	aquatic	shark	1	0	4	stars	3	correct	1.05315412685377
56346	1	stim065_animate_insect_bug_1.png	65	animate	insect	bug	1	0	4	stars	3	correct	1.05315412685377
56396	1	stim178_inanimate_plants_tulip_2.png	178	inanimate	plants	tulip	2	0	4	stars	3	correct	1.05315412685377
56446	1	stim050_animate_human_clown_2.png	50	animate	human	clown	2	0	4	stars	3	correct	1.05315412685377
56496	1	stim152_inanimate_furniture_closet_4.png	152	inanimate	furniture	closet	4	0	4	stars	3	correct	1.05315412685377
56546	1	stim182_inanimate_tools_broom_2.png	182	inanimate	tools	broom	2	0	4	stars	3	correct	1.05315412685377
56596	1	stim161_inanimate_plants_bush_1.png	161	inanimate	plants	bush	1	0	4	stars	3	correct	1.05315412685377
56646	1	stim085_animate_mammal_giraffe_1.png	85	animate	mammal	giraffe	1	0	4	stars	3	correct	1.05315412685377
56696	1	stim047_animate_human_child_3.png	47	animate	human	child	3	0	4	stars	3	correct	1.05315412685377
56746	1	stim146_inanimate_furniture_chair_2.png	146	inanimate	furniture	chair	2	0	4	stars	3	correct	1.05315412685377
56796	1	stim060_animate_human_sports_4.png	60	animate	human	sports	4	0	4	stars	3	correct	1.05315412685377
56846	1	stim128_inanimate_fruits_banana_4.png	128	inanimate	fruits	banana	4	0	4	stars	3	correct	1.05315412685377
56896	1	stim014_animate_aquatic_shark_2.png	14	animate	aquatic	shark	2	0	4	stars	3	correct	1.05315412685377
56946	1	stim147_inanimate_furniture_chair_3.png	147	inanimate	furniture	chair	3	0	4	stars	3	correct	1.05315412685377
56996	1	stim123_inanimate_fruits_apple_3.png	123	inanimate	fruits	apple	3	0	4	stars	3	correct	1.05315412685377
57046	1	stim194_inanimate_tools_scissors_2.png	194	inanimate	tools	scissors	2	0	4	stars	3	correct	1.05315412685377
57096	1	stim075_animate_insect_dragonfly_3.png	75	animate	insect	dragonfly	3	0	4	stars	3	correct	1.05315412685377
57146	1	stim079_animate_insect_grasshopper_3.png	79	animate	insect	grasshopper	3	0	4	stars	3	correct	1.05315412685377
57196	1	stim016_animate_aquatic_shark_4.png	16	animate	aquatic	shark	4	0	4	stars	3	correct	1.05315412685377
57246	1	stim191_inanimate_tools_pan_3.png	191	inanimate	tools	pan	3	0	4	stars	3	correct	1.05315412685377
57296	1	stim119_inanimate_clothing_socks_3.png	119	inanimate	clothing	socks	3	0	4	stars	3	correct	1.05315412685377
57346	1	stim068_animate_insect_bug_4.png	68	animate	insect	bug	4	0	4	stars	3	correct	1.05315412685377
57396	1	stim115_inanimate_clothing_shirt_3.png	115	inanimate	clothing	shirt	3	0	4	stars	3	correct	1.05315412685377
57446	1	stim044_animate_human_baby_4.png	44	animate	human	baby	4	0	4	stars	3	correct	1.05315412685377
57496	1	stim171_inanimate_plants_sunflower_3.png	171	inanimate	plants	sunflower	3	0	4	stars	3	correct	1.05315412685377
57546	1	stim153_inanimate_furniture_sofa_1.png	153	inanimate	furniture	sofa	1	0	4	stars	3	correct	1.05315412685377
57596	1	stim098_animate_mammal_rhino_2.png	98	animate	mammal	rhino	2	0	4	stars	3	correct	1.05315412685377
57646	1	stim036_animate_bird_peacock_4.png	36	animate	bird	peacock	4	0	4	stars	3	correct	1.05315412685377
57696	1	stim170_inanimate_plants_sunflower_2.png	170	inanimate	plants	sunflower	2	0	4	stars	3	correct	1.05315412685377
57746	1	stim188_inanimate_tools_hammer_4.png	188	inanimate	tools	hammer	4	0	4	stars	3	correct	1.05315412685377
57796	1	stim034_animate_bird_peacock_2.png	34	animate	bird	peacock	2	0	4	stars	3	correct	1.05315412685377
57846	1	stim168_inanimate_plants_cactus_4.png	168	inanimate	plants	cactus	4	0	4	stars	3	correct	1.05315412685377
57896	1	stim114_inanimate_clothing_shirt_2.png	114	inanimate	clothing	shirt	2	0	4	stars	3	correct	1.05315412685377
57946	1	stim107_inanimate_clothing_hat_3.png	107	inanimate	clothing	hat	3	0	4	stars	3	correct	1.05315412685377
57996	1	stim077_animate_insect_grasshopper_1.png	77	animate	insect	grasshopper	1	0	4	stars	3	correct	1.05315412685377
58046	1	stim096_animate_mammal_monkey_4.png	96	animate	mammal	monkey	4	0	4	stars	3	correct	1.05315412685377
58096	1	stim176_inanimate_plants_tree_4.png	176	inanimate	plants	tree	4	0	4	stars	3	correct	1.05315412685377
58146	1	stim032_animate_bird_parrot_4.png	32	animate	bird	parrot	4	0	4	stars	3	correct	1.05315412685377
58196	1	stim103_inanimate_clothing_gloves_3.png	103	inanimate	clothing	gloves	3	0	4	stars	3	correct	1.05315412685377
58246	1	stim189_inanimate_tools_pan_1.png	189	inanimate	tools	pan	1	0	4	stars	3	correct	1.05315412685377
58296	1	stim046_animate_human_child_2.png	46	animate	human	child	2	0	4	stars	3	correct	1.05315412685377
58346	1	stim035_animate_bird_peacock_3.png	35	animate	bird	peacock	3	0	4	stars	3	correct	1.05315412685377
58396	1	stim112_inanimate_clothing_jeans_4.png	112	inanimate	clothing	jeans	4	0	4	stars	3	correct	1.05315412685377
58446	1	stim021_animate_bird_chicken_1.png	21	animate	bird	chicken	1	0	4	stars	3	correct	1.05315412685377
58496	1	stim195_inanimate_tools_scissors_3.png	195	inanimate	tools	scissors	3	0	4	stars	3	correct	1.05315412685377
58546	1	stim174_inanimate_plants_tree_2.png	174	inanimate	plants	tree	2	0	4	stars	3	correct	1.05315412685377
58596	1	stim082_animate_mammal_cow_2.png	82	animate	mammal	cow	2	0	4	stars	3	correct	1.05315412685377
58646	1	stim055_animate_human_faces_3.png	55	animate	human	faces	3	0	4	stars	3	correct	1.05315412685377
58696	1	stim003_animate_aquatic_crab_3.png	3	animate	aquatic	crab	3	0	4	stars	3	correct	1.05315412685377
58746	1	stim155_inanimate_furniture_sofa_3.png	155	inanimate	furniture	sofa	3	0	4	stars	3	correct	1.05315412685377
58796	1	stim135_inanimate_fruits_pineapple_3.png	135	inanimate	fruits	pineapple	3	0	4	stars	3	correct	1.05315412685377
58846	1	stim125_inanimate_fruits_banana_1.png	125	inanimate	fruits	banana	1	0	4	stars	3	correct	1.05315412685377
58896	1	stim124_inanimate_fruits_apple_4.png	124	inanimate	fruits	apple	4	0	4	stars	3	correct	1.05315412685377
58946	1	stim039_animate_bird_penguin_3.png	39	animate	bird	penguin	3	0	4	stars	3	correct	1.05315412685377
58996	1	stim038_animate_bird_penguin_2.png	38	animate	bird	penguin	2	0	4	stars	3	correct	1.05315412685377
59046	1	stim187_inanimate_tools_hammer_3.png	187	inanimate	tools	hammer	3	0	4	stars	3	correct	1.05315412685377
59096	1	stim193_inanimate_tools_scissors_1.png	193	inanimate	tools	scissors	1	0	4	stars	3	correct	1.05315412685377
59146	1	stim149_inanimate_furniture_closet_1.png	149	inanimate	furniture	closet	1	0	4	stars	3	correct	1.05315412685377
59196	1	stim167_inanimate_plants_cactus_3.png	167	inanimate	plants	cactus	3	0	4	stars	3	correct	1.05315412685377
59246	1	stim126_inanimate_fruits_banana_2.png	126	inanimate	fruits	banana	2	0	4	stars	3	correct	1.05315412685377
59296	1	stim150_inanimate_furniture_closet_2.png	150	inanimate	furniture	closet	2	0	4	stars	3	correct	1.05315412685377
59346	1	stim084_animate_mammal_cow_4.png	84	animate	mammal	cow	4	0	4	stars	3	correct	1.05315412685377
59396	1	stim144_inanimate_furniture_bed_4.png	144	inanimate	furniture	bed	4	0	4	stars	3	correct	1.05315412685377
59446	1	stim210_targets_shapes_star_2.png	210	targets	shapes	star	2	1	4	stars	3	correct	1.05315412685377
59496	1	stim030_animate_bird_parrot_2.png	30	animate	bird	parrot	2	0	4	stars	3	correct	1.05315412685377
59546	1	stim166_inanimate_plants_cactus_2.png	166	inanimate	plants	cactus	2	0	4	stars	3	correct	1.05315412685377
59596	1	stim083_animate_mammal_cow_3.png	83	animate	mammal	cow	3	0	4	stars	3	correct	1.05315412685377
59646	1	stim071_animate_insect_butterfly_3.png	71	animate	insect	butterfly	3	0	4	stars	3	correct	1.05315412685377
59696	1	stim139_inanimate_fruits_strawberry_3.png	139	inanimate	fruits	strawberry	3	0	4	stars	3	correct	1.05315412685377
59746	1	stim022_animate_bird_chicken_2.png	22	animate	bird	chicken	2	0	4	stars	3	correct	1.05315412685377
59796	1	stim121_inanimate_fruits_apple_1.png	121	inanimate	fruits	apple	1	0	4	stars	3	correct	1.05315412685377
59846	1	stim162_inanimate_plants_bush_2.png	162	inanimate	plants	bush	2	0	4	stars	3	correct	1.05315412685377
59896	1	stim007_animate_aquatic_fish_3.png	7	animate	aquatic	fish	3	0	4	stars	3	correct	1.05315412685377
59946	1	stim076_animate_insect_dragonfly_4.png	76	animate	insect	dragonfly	4	0	4	stars	3	correct	1.05315412685377
59996	1	stim097_animate_mammal_rhino_1.png	97	animate	mammal	rhino	1	0	4	stars	3	correct	1.05315412685377
60046	1	stim181_inanimate_tools_broom_1.png	181	inanimate	tools	broom	1	0	4	stars	3	correct	1.05315412685377
60096	1	stim134_inanimate_fruits_pineapple_2.png	134	inanimate	fruits	pineapple	2	0	4	stars	3	correct	1.05315412685377
60146	1	stim037_animate_bird_penguin_1.png	37	animate	bird	penguin	1	0	4	stars	3	correct	1.05315412685377
60196	1	stim081_animate_mammal_cow_1.png	81	animate	mammal	cow	1	0	4	stars	3	correct	1.05315412685377
60246	1	stim175_inanimate_plants_tree_3.png	175	inanimate	plants	tree	3	0	4	stars	3	correct	1.05315412685377
60296	1	stim028_animate_bird_duck_4.png	28	animate	bird	duck	4	0	4	stars	3	correct	1.05315412685377
60346	1	stim019_animate_aquatic_shrimp_3.png	19	animate	aquatic	shrimp	3	0	4	stars	3	correct	1.05315412685377
60396	1	stim089_animate_mammal_kangaroo_1.png	89	animate	mammal	kangaroo	1	0	4	stars	3	correct	1.05315412685377
60446	1	stim049_animate_human_clown_1.png	49	animate	human	clown	1	0	4	stars	3	correct	1.05315412685377
60496	1	stim001_animate_aquatic_crab_1.png	1	animate	aquatic	crab	1	0	4	stars	3	correct	1.05315412685377
60546	1	stim094_animate_mammal_monkey_2.png	94	animate	mammal	monkey	2	0	4	stars	3	correct	1.05315412685377
60596	1	stim140_inanimate_fruits_strawberry_4.png	140	inanimate	fruits	strawberry	4	0	4	stars	3	correct	1.05315412685377
60646	1	stim052_animate_human_clown_4.png	52	animate	human	clown	4	0	4	stars	3	correct	1.05315412685377
60696	1	stim116_inanimate_clothing_shirt_4.png	116	inanimate	clothing	shirt	4	0	4	stars	3	correct	1.05315412685377
60746	1	stim041_animate_human_baby_1.png	41	animate	human	baby	1	0	4	stars	3	correct	1.05315412685377
60796	1	stim211_targets_shapes_star_3.png	211	targets	shapes	star	3	1	4	stars	3	correct	1.05315412685377
60846	1	stim054_animate_human_faces_2.png	54	animate	human	faces	2	0	4	stars	3	correct	1.05315412685377
60896	1	stim138_inanimate_fruits_strawberry_2.png	138	inanimate	fruits	strawberry	2	0	4	stars	3	correct	1.05315412685377
60946	1	stim040_animate_bird_penguin_4.png	40	animate	bird	penguin	4	0	4	stars	3	correct	1.05315412685377
60996	1	stim113_inanimate_clothing_shirt_1.png	113	inanimate	clothing	shirt	1	0	4	stars	3	correct	1.05315412685377
61046	1	stim129_inanimate_fruits_grape_1.png	129	inanimate	fruits	grape	1	0	4	stars	3	correct	1.05315412685377
61096	1	stim031_animate_bird_parrot_3.png	31	animate	bird	parrot	3	0	4	stars	3	correct	1.05315412685377
61146	1	stim093_animate_mammal_monkey_1.png	93	animate	mammal	monkey	1	0	4	stars	3	correct	1.05315412685377
61196	1	stim117_inanimate_clothing_socks_1.png	117	inanimate	clothing	socks	1	0	4	stars	3	correct	1.05315412685377
61246	1	stim064_animate_insect_ant_4.png	64	animate	insect	ant	4	0	4	stars	3	correct	1.05315412685377
61296	1	stim104_inanimate_clothing_gloves_4.png	104	inanimate	clothing	gloves	4	0	4	stars	3	correct	1.05315412685377
61346	1	stim025_animate_bird_duck_1.png	25	animate	bird	duck	1	0	4	stars	3	correct	1.05315412685377
61396	1	stim160_inanimate_furniture_table_4.png	160	inanimate	furniture	table	4	0	4	stars	3	correct	1.05315412685377
61446	1	stim063_animate_insect_ant_3.png	63	animate	insect	ant	3	0	4	stars	3	correct	1.05315412685377
61496	1	stim179_inanimate_plants_tulip_3.png	179	inanimate	plants	tulip	3	0	4	stars	3	correct	1.05315412685377
61546	1	stim099_animate_mammal_rhino_3.png	99	animate	mammal	rhino	3	0	4	stars	3	correct	1.05315412685377
61596	1	stim005_animate_aquatic_fish_1.png	5	animate	aquatic	fish	1	0	4	stars	3	correct	1.05315412685377
61646	1	stim090_animate_mammal_kangaroo_2.png	90	animate	mammal	kangaroo	2	0	4	stars	3	correct	1.05315412685377
61696	1	stim053_animate_human_faces_1.png	53	animate	human	faces	1	0	4	stars	3	correct	1.05315412685377
61746	1	stim002_animate_aquatic_crab_2.png	2	animate	aquatic	crab	2	0	4	stars	3	correct	1.05315412685377
61796	1	stim012_animate_aquatic_seahorse_4.png	12	animate	aquatic	seahorse	4	0	4	stars	3	correct	1.05315412685377
61846	1	stim137_inanimate_fruits_strawberry_1.png	137	inanimate	fruits	strawberry	1	0	4	stars	3	correct	1.05315412685377
61896	1	stim120_inanimate_clothing_socks_4.png	120	inanimate	clothing	socks	4	0	4	stars	3	correct	1.05315412685377
61946	1	stim199_inanimate_tools_wrench_3.png	199	inanimate	tools	wrench	3	0	4	stars	3	correct	1.05315412685377
61996	1	stim111_inanimate_clothing_jeans_3.png	111	inanimate	clothing	jeans	3	0	4	stars	3	correct	1.05315412685377
62046	1	stim183_inanimate_tools_broom_3.png	183	inanimate	tools	broom	3	0	4	stars	3	correct	1.05315412685377
62096	1	stim088_animate_mammal_giraffe_4.png	88	animate	mammal	giraffe	4	0	4	stars	3	correct	1.05315412685377
62146	1	stim108_inanimate_clothing_hat_4.png	108	inanimate	clothing	hat	4	0	4	stars	3	correct	1.05315412685377
62196	1	stim067_animate_insect_bug_3.png	67	animate	insect	bug	3	0	4	stars	3	correct	1.05315412685377
62246	1	stim051_animate_human_clown_3.png	51	animate	human	clown	3	0	4	stars	3	correct	1.05315412685377
62296	1	stim172_inanimate_plants_sunflower_4.png	172	inanimate	plants	sunflower	4	0	4	stars	3	correct	1.05315412685377
62346	1	stim073_animate_insect_dragonfly_1.png	73	animate	insect	dragonfly	1	0	4	stars	3	correct	1.05315412685377
62396	1	stim158_inanimate_furniture_table_2.png	158	inanimate	furniture	table	2	0	4	stars	3	correct	1.05315412685377
62446	1	stim131_inanimate_fruits_grape_3.png	131	inanimate	fruits	grape	3	0	4	stars	3	correct	1.05315412685377
62496	1	stim143_inanimate_furniture_bed_3.png	143	inanimate	furniture	bed	3	0	4	stars	3	correct	1.05315412685377
62546	1	stim004_animate_aquatic_crab_4.png	4	animate	aquatic	crab	4	0	4	stars	3	correct	1.05315412685377
62596	1	stim015_animate_aquatic_shark_3.png	15	animate	aquatic	shark	3	0	4	stars	3	correct	1.05315412685377
62646	1	stim159_inanimate_furniture_table_3.png	159	inanimate	furniture	table	3	0	4	stars	3	correct	1.05315412685377
62696	1	stim095_animate_mammal_monkey_3.png	95	animate	mammal	monkey	3	0	4	stars	3	correct	1.05315412685377
62746	1	stim020_animate_aquatic_shrimp_4.png	20	animate	aquatic	shrimp	4	0	4	stars	3	correct	1.05315412685377
62796	1	stim078_animate_insect_grasshopper_2.png	78	animate	insect	grasshopper	2	0	4	stars	3	correct	1.05315412685377
62846	1	stim196_inanimate_tools_scissors_4.png	196	inanimate	tools	scissors	4	0	4	stars	3	correct	1.05315412685377
62896	1	stim141_inanimate_furniture_bed_1.png	141	inanimate	furniture	bed	1	0	4	stars	3	correct	1.05315412685377
62946	1	stim074_animate_insect_dragonfly_2.png	74	animate	insect	dragonfly	2	0	4	stars	3	correct	1.05315412685377
62996	1	stim091_animate_mammal_kangaroo_3.png	91	animate	mammal	kangaroo	3	0	4	stars	3	correct	1.05315412685377
63046	1	stim069_animate_insect_butterfly_1.png	69	animate	insect	butterfly	1	0	4	stars	3	correct	1.05315412685377
63096	1	stim213_targets_shapes_star_1.png	213	targets	shapes	star	1	1	4	stars	3	correct	1.05315412685377
63146	1	stim061_animate_insect_ant_1.png	61	animate	insect	ant	1	0	4	stars	3	correct	1.05315412685377
63196	1	stim048_animate_human_child_4.png	48	animate	human	child	4	0	4	stars	3	correct	1.05315412685377
63246	1	stim092_animate_mammal_kangaroo_4.png	92	animate	mammal	kangaroo	4	0	4	stars	3	correct	1.05315412685377
63296	1	stim059_animate_human_sports_3.png	59	animate	human	sports	3	0	4	stars	3	correct	1.05315412685377
63346	1	stim042_animate_human_baby_2.png	42	animate	human	baby	2	0	4	stars	3	correct	1.05315412685377
63396	1	stim127_inanimate_fruits_banana_3.png	127	inanimate	fruits	banana	3	0	4	stars	3	correct	1.05315412685377
63446	1	stim118_inanimate_clothing_socks_2.png	118	inanimate	clothing	socks	2	0	4	stars	3	correct	1.05315412685377
63496	1	stim024_animate_bird_chicken_4.png	24	animate	bird	chicken	4	0	4	stars	3	correct	1.05315412685377
63546	1	stim110_inanimate_clothing_jeans_2.png	110	inanimate	clothing	jeans	2	0	4	stars	3	correct	1.05315412685377
63596	1	stim066_animate_insect_bug_2.png	66	animate	insect	bug	2	0	4	stars	3	correct	1.05315412685377
63646	1	stim017_animate_aquatic_shrimp_1.png	17	animate	aquatic	shrimp	1	0	4	stars	3	correct	1.05315412685377
63696	1	stim070_animate_insect_butterfly_2.png	70	animate	insect	butterfly	2	0	4	stars	3	correct	1.05315412685377
63746	1	stim177_inanimate_plants_tulip_1.png	177	inanimate	plants	tulip	1	0	4	stars	3	correct	1.05315412685377
63796	1	stim057_animate_human_sports_1.png	57	animate	human	sports	1	0	4	stars	3	correct	1.05315412685377
63846	1	stim027_animate_bird_duck_3.png	27	animate	bird	duck	3	0	4	stars	3	correct	1.05315412685377
63896	1	stim192_inanimate_tools_pan_4.png	192	inanimate	tools	pan	4	0	4	stars	3	correct	1.05315412685377
63946	1	stim200_inanimate_tools_wrench_4.png	200	inanimate	tools	wrench	4	0	4	stars	3	correct	1.05315412685377
63996	1	stim006_animate_aquatic_fish_2.png	6	animate	aquatic	fish	2	0	4	stars	3	correct	1.05315412685377
64046	1	stim197_inanimate_tools_wrench_1.png	197	inanimate	tools	wrench	1	0	4	stars	3	correct	1.05315412685377
64096	1	stim198_inanimate_tools_wrench_2.png	198	inanimate	tools	wrench	2	0	4	stars	3	correct	1.05315412685377
64146	1	stim164_inanimate_plants_bush_4.png	164	inanimate	plants	bush	4	0	4	stars	3	correct	1.05315412685377
64196	1	stim184_inanimate_tools_broom_4.png	184	inanimate	tools	broom	4	0	4	stars	3	correct	1.05315412685377
64246	1	stim008_animate_aquatic_fish_4.png	8	animate	aquatic	fish	4	0	4	stars	3	correct	1.05315412685377
64296	1	stim033_animate_bird_peacock_1.png	33	animate	bird	peacock	1	0	4	stars	3	correct	1.05315412685377
64346	1	stim045_animate_human_child_1.png	45	animate	human	child	1	0	4	stars	3	correct	1.05315412685377
64396	1	stim186_inanimate_tools_hammer_2.png	186	inanimate	tools	hammer	2	0	4	stars	3	correct	1.05315412685377
64446	1	stim011_animate_aquatic_seahorse_3.png	11	animate	aquatic	seahorse	3	0	4	stars	3	correct	1.05315412685377
64496	1	stim157_inanimate_furniture_table_1.png	157	inanimate	furniture	table	1	0	4	stars	3	correct	1.05315412685377
64546	1	stim106_inanimate_clothing_hat_2.png	106	inanimate	clothing	hat	2	0	4	stars	3	correct	1.05315412685377
64596	1	stim154_inanimate_furniture_sofa_2.png	154	inanimate	furniture	sofa	2	0	4	stars	3	correct	1.05315412685377
64646	1	stim165_inanimate_plants_cactus_1.png	165	inanimate	plants	cactus	1	0	4	stars	3	correct	1.05315412685377
64696	1	stim145_inanimate_furniture_chair_1.png	145	inanimate	furniture	chair	1	0	4	stars	3	correct	1.05315412685377
64746	1	stim109_inanimate_clothing_jeans_1.png	109	inanimate	clothing	jeans	1	0	4	stars	3	correct	1.05315412685377
64796	1	stim086_animate_mammal_giraffe_2.png	86	animate	mammal	giraffe	2	0	4	stars	3	correct	1.05315412685377
64846	1	stim029_animate_bird_parrot_1.png	29	animate	bird	parrot	1	0	4	stars	3	correct	1.05315412685377
64896	1	stim148_inanimate_furniture_chair_4.png	148	inanimate	furniture	chair	4	0	4	stars	3	correct	1.05315412685377
64946	1	stim130_inanimate_fruits_grape_2.png	130	inanimate	fruits	grape	2	0	4	stars	3	correct	1.05315412685377
64996	1	stim105_inanimate_clothing_hat_1.png	105	inanimate	clothing	hat	1	0	4	stars	3	correct	1.05315412685377
65046	1	stim132_inanimate_fruits_grape_4.png	132	inanimate	fruits	grape	4	0	4	stars	3	correct	1.05315412685377
65096	1	stim190_inanimate_tools_pan_2.png	190	inanimate	tools	pan	2	0	4	stars	3	correct	1.05315412685377
65146	1	stim156_inanimate_furniture_sofa_4.png	156	inanimate	furniture	sofa	4	0	4	stars	3	correct	1.05315412685377
65196	1	stim101_inanimate_clothing_gloves_1.png	101	inanimate	clothing	gloves	1	0	4	stars	3	correct	1.05315412685377
65246	1	stim122_inanimate_fruits_apple_2.png	122	inanimate	fruits	apple	2	0	4	stars	3	correct	1.05315412685377
65296	1	stim010_animate_aquatic_seahorse_2.png	10	animate	aquatic	seahorse	2	0	4	stars	3	correct	1.05315412685377
65346	1	stim062_animate_insect_ant_2.png	62	animate	insect	ant	2	0	4	stars	3	correct	1.05315412685377
65396	1	stim151_inanimate_furniture_closet_3.png	151	inanimate	furniture	closet	3	0	4	stars	3	correct	1.05315412685377
65446	1	stim169_inanimate_plants_sunflower_1.png	169	inanimate	plants	sunflower	1	0	4	stars	3	correct	1.05315412685377
65496	1	stim009_animate_aquatic_seahorse_1.png	9	animate	aquatic	seahorse	1	0	4	stars	3	correct	1.05315412685377
65546	1	stim043_animate_human_baby_3.png	43	animate	human	baby	3	0	4	stars	3	correct	1.05315412685377
65596	1	stim142_inanimate_furniture_bed_2.png	142	inanimate	furniture	bed	2	0	4	stars	3	correct	1.05315412685377
65646	1	stim023_animate_bird_chicken_3.png	23	animate	bird	chicken	3	0	4	stars	3	correct	1.05315412685377
65696	1	stim136_inanimate_fruits_pineapple_4.png	136	inanimate	fruits	pineapple	4	0	4	stars	3	correct	1.05315412685377
65746	1	stim026_animate_bird_duck_2.png	26	animate	bird	duck	2	0	4	stars	3	correct	1.05315412685377
65796	1	stim163_inanimate_plants_bush_3.png	163	inanimate	plants	bush	3	0	4	stars	3	correct	1.05315412685377
65846	1	stim102_inanimate_clothing_gloves_2.png	102	inanimate	clothing	gloves	2	0	4	stars	3	correct	1.05315412685377
65896	1	stim173_inanimate_plants_tree_1.png	173	inanimate	plants	tree	1	0	4	stars	3	correct	1.05315412685377
65946	1	stim087_animate_mammal_giraffe_3.png	87	animate	mammal	giraffe	3	0	4	stars	3	correct	1.05315412685377
65996	1	stim100_animate_mammal_rhino_4.png	100	animate	mammal	rhino	4	0	4	stars	3	correct	1.05315412685377
66046	1	stim018_animate_aquatic_shrimp_2.png	18	animate	aquatic	shrimp	2	0	4	stars	3	correct	1.05315412685377
66096	1	stim133_inanimate_fruits_pineapple_1.png	133	inanimate	fruits	pineapple	1	0	4	stars	3	correct	1.05315412685377
66146	1	stim185_inanimate_tools_hammer_1.png	185	inanimate	tools	hammer	1	0	4	stars	3	correct	1.05315412685377
66196	1	stim056_animate_human_faces_4.png	56	animate	human	faces	4	0	4	stars	3	correct	1.05315412685377
66246	1	stim080_animate_insect_grasshopper_4.png	80	animate	insect	grasshopper	4	0	4	stars	3	correct	1.05315412685377
66296	1	stim058_animate_human_sports_2.png	58	animate	human	sports	2	0	4	stars	3	correct	1.05315412685377
66346	1	stim180_inanimate_plants_tulip_4.png	180	inanimate	plants	tulip	4	0	4	stars	3	correct	1.05315412685377
69813	1	stim087_animate_mammal_giraffe_3.png	87	animate	mammal	giraffe	3	0	5	boats	3	incorrect	1.05747955108745
69863	1	stim110_inanimate_clothing_jeans_2.png	110	inanimate	clothing	jeans	2	0	5	boats	3	incorrect	1.05747955108745
69913	1	stim148_inanimate_furniture_chair_4.png	148	inanimate	furniture	chair	4	0	5	boats	3	incorrect	1.05747955108745
69963	1	stim133_inanimate_fruits_pineapple_1.png	133	inanimate	fruits	pineapple	1	0	5	boats	3	incorrect	1.05747955108745
70013	1	stim198_inanimate_tools_wrench_2.png	198	inanimate	tools	wrench	2	0	5	boats	3	incorrect	1.05747955108745
70063	1	stim052_animate_human_clown_4.png	52	animate	human	clown	4	0	5	boats	3	incorrect	1.05747955108745
70113	1	stim161_inanimate_plants_bush_1.png	161	inanimate	plants	bush	1	0	5	boats	3	incorrect	1.05747955108745
70163	1	stim032_animate_bird_parrot_4.png	32	animate	bird	parrot	4	0	5	boats	3	incorrect	1.05747955108745
70213	1	stim051_animate_human_clown_3.png	51	animate	human	clown	3	0	5	boats	3	incorrect	1.05747955108745
70263	1	stim061_animate_insect_ant_1.png	61	animate	insect	ant	1	0	5	boats	3	incorrect	1.05747955108745
70313	1	stim029_animate_bird_parrot_1.png	29	animate	bird	parrot	1	0	5	boats	3	incorrect	1.05747955108745
70363	1	stim016_animate_aquatic_shark_4.png	16	animate	aquatic	shark	4	0	5	boats	3	incorrect	1.05747955108745
70413	1	stim094_animate_mammal_monkey_2.png	94	animate	mammal	monkey	2	0	5	boats	3	incorrect	1.05747955108745
70463	1	stim197_inanimate_tools_wrench_1.png	197	inanimate	tools	wrench	1	0	5	boats	3	incorrect	1.05747955108745
70513	1	stim150_inanimate_furniture_closet_2.png	150	inanimate	furniture	closet	2	0	5	boats	3	incorrect	1.05747955108745
70563	1	stim102_inanimate_clothing_gloves_2.png	102	inanimate	clothing	gloves	2	0	5	boats	3	incorrect	1.05747955108745
70613	1	stim003_animate_aquatic_crab_3.png	3	animate	aquatic	crab	3	0	5	boats	3	incorrect	1.05747955108745
70663	1	stim163_inanimate_plants_bush_3.png	163	inanimate	plants	bush	3	0	5	boats	3	incorrect	1.05747955108745
70713	1	stim180_inanimate_plants_tulip_4.png	180	inanimate	plants	tulip	4	0	5	boats	3	incorrect	1.05747955108745
70763	1	stim074_animate_insect_dragonfly_2.png	74	animate	insect	dragonfly	2	0	5	boats	3	incorrect	1.05747955108745
70813	1	stim066_animate_insect_bug_2.png	66	animate	insect	bug	2	0	5	boats	3	incorrect	1.05747955108745
70863	1	stim112_inanimate_clothing_jeans_4.png	112	inanimate	clothing	jeans	4	0	5	boats	3	incorrect	1.05747955108745
70913	1	stim173_inanimate_plants_tree_1.png	173	inanimate	plants	tree	1	0	5	boats	3	incorrect	1.05747955108745
70963	1	stim183_inanimate_tools_broom_3.png	183	inanimate	tools	broom	3	0	5	boats	3	incorrect	1.05747955108745
71013	1	stim158_inanimate_furniture_table_2.png	158	inanimate	furniture	table	2	0	5	boats	3	incorrect	1.05747955108745
71063	1	stim126_inanimate_fruits_banana_2.png	126	inanimate	fruits	banana	2	0	5	boats	3	incorrect	1.05747955108745
71113	1	stim117_inanimate_clothing_socks_1.png	117	inanimate	clothing	socks	1	0	5	boats	3	incorrect	1.05747955108745
71163	1	stim169_inanimate_plants_sunflower_1.png	169	inanimate	plants	sunflower	1	0	5	boats	3	incorrect	1.05747955108745
71213	1	stim013_animate_aquatic_shark_1.png	13	animate	aquatic	shark	1	0	5	boats	3	incorrect	1.05747955108745
71263	1	stim060_animate_human_sports_4.png	60	animate	human	sports	4	0	5	boats	3	incorrect	1.05747955108745
71313	1	stim132_inanimate_fruits_grape_4.png	132	inanimate	fruits	grape	4	0	5	boats	3	incorrect	1.05747955108745
71363	1	stim129_inanimate_fruits_grape_1.png	129	inanimate	fruits	grape	1	0	5	boats	3	incorrect	1.05747955108745
71413	1	stim090_animate_mammal_kangaroo_2.png	90	animate	mammal	kangaroo	2	0	5	boats	3	incorrect	1.05747955108745
71463	1	stim120_inanimate_clothing_socks_4.png	120	inanimate	clothing	socks	4	0	5	boats	3	incorrect	1.05747955108745
71513	1	stim056_animate_human_faces_4.png	56	animate	human	faces	4	0	5	boats	3	incorrect	1.05747955108745
71563	1	stim027_animate_bird_duck_3.png	27	animate	bird	duck	3	0	5	boats	3	incorrect	1.05747955108745
71613	1	stim167_inanimate_plants_cactus_3.png	167	inanimate	plants	cactus	3	0	5	boats	3	incorrect	1.05747955108745
71663	1	stim121_inanimate_fruits_apple_1.png	121	inanimate	fruits	apple	1	0	5	boats	3	incorrect	1.05747955108745
71713	1	stim019_animate_aquatic_shrimp_3.png	19	animate	aquatic	shrimp	3	0	5	boats	3	incorrect	1.05747955108745
71763	1	stim064_animate_insect_ant_4.png	64	animate	insect	ant	4	0	5	boats	3	incorrect	1.05747955108745
71813	1	stim139_inanimate_fruits_strawberry_3.png	139	inanimate	fruits	strawberry	3	0	5	boats	3	incorrect	1.05747955108745
71863	1	stim168_inanimate_plants_cactus_4.png	168	inanimate	plants	cactus	4	0	5	boats	3	incorrect	1.05747955108745
71913	1	stim092_animate_mammal_kangaroo_4.png	92	animate	mammal	kangaroo	4	0	5	boats	3	incorrect	1.05747955108745
71963	1	stim096_animate_mammal_monkey_4.png	96	animate	mammal	monkey	4	0	5	boats	3	incorrect	1.05747955108745
72013	1	stim193_inanimate_tools_scissors_1.png	193	inanimate	tools	scissors	1	0	5	boats	3	incorrect	1.05747955108745
72063	1	stim014_animate_aquatic_shark_2.png	14	animate	aquatic	shark	2	0	5	boats	3	incorrect	1.05747955108745
72113	1	stim208_targets_object_boats_4.png	208	targets	object	boats	4	1	5	boats	3	incorrect	1.05747955108745
72163	1	stim059_animate_human_sports_3.png	59	animate	human	sports	3	0	5	boats	3	incorrect	1.05747955108745
72213	1	stim177_inanimate_plants_tulip_1.png	177	inanimate	plants	tulip	1	0	5	boats	3	incorrect	1.05747955108745
72263	1	stim175_inanimate_plants_tree_3.png	175	inanimate	plants	tree	3	0	5	boats	3	incorrect	1.05747955108745
72313	1	stim164_inanimate_plants_bush_4.png	164	inanimate	plants	bush	4	0	5	boats	3	incorrect	1.05747955108745
72363	1	stim050_animate_human_clown_2.png	50	animate	human	clown	2	0	5	boats	3	incorrect	1.05747955108745
72413	1	stim028_animate_bird_duck_4.png	28	animate	bird	duck	4	0	5	boats	3	incorrect	1.05747955108745
72463	1	stim143_inanimate_furniture_bed_3.png	143	inanimate	furniture	bed	3	0	5	boats	3	incorrect	1.05747955108745
72513	1	stim113_inanimate_clothing_shirt_1.png	113	inanimate	clothing	shirt	1	0	5	boats	3	incorrect	1.05747955108745
72563	1	stim166_inanimate_plants_cactus_2.png	166	inanimate	plants	cactus	2	0	5	boats	3	incorrect	1.05747955108745
72613	1	stim042_animate_human_baby_2.png	42	animate	human	baby	2	0	5	boats	3	incorrect	1.05747955108745
72663	1	stim081_animate_mammal_cow_1.png	81	animate	mammal	cow	1	0	5	boats	3	incorrect	1.05747955108745
72713	1	stim011_animate_aquatic_seahorse_3.png	11	animate	aquatic	seahorse	3	0	5	boats	3	incorrect	1.05747955108745
72763	1	stim002_animate_aquatic_crab_2.png	2	animate	aquatic	crab	2	0	5	boats	3	incorrect	1.05747955108745
72813	1	stim147_inanimate_furniture_chair_3.png	147	inanimate	furniture	chair	3	0	5	boats	3	incorrect	1.05747955108745
72863	1	stim034_animate_bird_peacock_2.png	34	animate	bird	peacock	2	0	5	boats	3	incorrect	1.05747955108745
72913	1	stim200_inanimate_tools_wrench_4.png	200	inanimate	tools	wrench	4	0	5	boats	3	incorrect	1.05747955108745
72963	1	stim045_animate_human_child_1.png	45	animate	human	child	1	0	5	boats	3	incorrect	1.05747955108745
73013	1	stim041_animate_human_baby_1.png	41	animate	human	baby	1	0	5	boats	3	incorrect	1.05747955108745
73063	1	stim046_animate_human_child_2.png	46	animate	human	child	2	0	5	boats	3	incorrect	1.05747955108745
73113	1	stim122_inanimate_fruits_apple_2.png	122	inanimate	fruits	apple	2	0	5	boats	3	incorrect	1.05747955108745
73163	1	stim020_animate_aquatic_shrimp_4.png	20	animate	aquatic	shrimp	4	0	5	boats	3	incorrect	1.05747955108745
73213	1	stim187_inanimate_tools_hammer_3.png	187	inanimate	tools	hammer	3	0	5	boats	3	incorrect	1.05747955108745
73263	1	stim145_inanimate_furniture_chair_1.png	145	inanimate	furniture	chair	1	0	5	boats	3	incorrect	1.05747955108745
73313	1	stim104_inanimate_clothing_gloves_4.png	104	inanimate	clothing	gloves	4	0	5	boats	3	incorrect	1.05747955108745
73363	1	stim017_animate_aquatic_shrimp_1.png	17	animate	aquatic	shrimp	1	0	5	boats	3	incorrect	1.05747955108745
73413	1	stim068_animate_insect_bug_4.png	68	animate	insect	bug	4	0	5	boats	3	incorrect	1.05747955108745
73463	1	stim154_inanimate_furniture_sofa_2.png	154	inanimate	furniture	sofa	2	0	5	boats	3	incorrect	1.05747955108745
73513	1	stim088_animate_mammal_giraffe_4.png	88	animate	mammal	giraffe	4	0	5	boats	3	incorrect	1.05747955108745
73563	1	stim118_inanimate_clothing_socks_2.png	118	inanimate	clothing	socks	2	0	5	boats	3	incorrect	1.05747955108745
73613	1	stim190_inanimate_tools_pan_2.png	190	inanimate	tools	pan	2	0	5	boats	3	incorrect	1.05747955108745
73663	1	stim128_inanimate_fruits_banana_4.png	128	inanimate	fruits	banana	4	0	5	boats	3	incorrect	1.05747955108745
73713	1	stim047_animate_human_child_3.png	47	animate	human	child	3	0	5	boats	3	incorrect	1.05747955108745
73763	1	stim033_animate_bird_peacock_1.png	33	animate	bird	peacock	1	0	5	boats	3	incorrect	1.05747955108745
73813	1	stim077_animate_insect_grasshopper_1.png	77	animate	insect	grasshopper	1	0	5	boats	3	incorrect	1.05747955108745
73863	1	stim095_animate_mammal_monkey_3.png	95	animate	mammal	monkey	3	0	5	boats	3	incorrect	1.05747955108745
73913	1	stim189_inanimate_tools_pan_1.png	189	inanimate	tools	pan	1	0	5	boats	3	incorrect	1.05747955108745
73963	1	stim005_animate_aquatic_fish_1.png	5	animate	aquatic	fish	1	0	5	boats	3	incorrect	1.05747955108745
