onset	duration	stimulusname	stimulusnumber	levelA	levelB	levelC	withinexemplarnumber	istarget	trialnumber	condition	response	correct	rt
66182	1	stim104_inanimate_clothing_gloves_4.png	104	inanimate	clothing	gloves	4	0	1	boats	2	correct	2.28734195670631
66232	1	stim173_inanimate_plants_tree_1.png	173	inanimate	plants	tree	1	0	1	boats	2	correct	2.28734195670631
66282	1	stim017_animate_aquatic_shrimp_1.png	17	animate	aquatic	shrimp	1	0	1	boats	2	correct	2.28734195670631
66332	1	stim081_animate_mammal_cow_1.png	81	animate	mammal	cow	1	0	1	boats	2	correct	2.28734195670631
66382	1	stim189_inanimate_tools_pan_1.png	189	inanimate	tools	pan	1	0	1	boats	2	correct	2.28734195670631
66432	1	stim093_animate_mammal_monkey_1.png	93	animate	mammal	monkey	1	0	1	boats	2	correct	2.28734195670631
66482	1	stim127_inanimate_fruits_banana_3.png	127	inanimate	fruits	banana	3	0	1	boats	2	correct	2.28734195670631
66532	1	stim148_inanimate_furniture_chair_4.png	148	inanimate	furniture	chair	4	0	1	boats	2	correct	2.28734195670631
66582	1	stim111_inanimate_clothing_jeans_3.png	111	inanimate	clothing	jeans	3	0	1	boats	2	correct	2.28734195670631
66632	1	stim198_inanimate_tools_wrench_2.png	198	inanimate	tools	wrench	2	0	1	boats	2	correct	2.28734195670631
66682	1	stim195_inanimate_tools_scissors_3.png	195	inanimate	tools	scissors	3	0	1	boats	2	correct	2.28734195670631
66732	1	stim152_inanimate_furniture_closet_4.png	152	inanimate	furniture	closet	4	0	1	boats	2	correct	2.28734195670631
66782	1	stim084_animate_mammal_cow_4.png	84	animate	mammal	cow	4	0	1	boats	2	correct	2.28734195670631
66832	1	stim110_inanimate_clothing_jeans_2.png	110	inanimate	clothing	jeans	2	0	1	boats	2	correct	2.28734195670631
66882	1	stim190_inanimate_tools_pan_2.png	190	inanimate	tools	pan	2	0	1	boats	2	correct	2.28734195670631
66932	1	stim164_inanimate_plants_bush_4.png	164	inanimate	plants	bush	4	0	1	boats	2	correct	2.28734195670631
66982	1	stim130_inanimate_fruits_grape_2.png	130	inanimate	fruits	grape	2	0	1	boats	2	correct	2.28734195670631
67032	1	stim023_animate_bird_chicken_3.png	23	animate	bird	chicken	3	0	1	boats	2	correct	2.28734195670631
67082	1	stim076_animate_insect_dragonfly_4.png	76	animate	insect	dragonfly	4	0	1	boats	2	correct	2.28734195670631
67132	1	stim047_animate_human_child_3.png	47	animate	human	child	3	0	1	boats	2	correct	2.28734195670631
67182	1	stim096_animate_mammal_monkey_4.png	96	animate	mammal	monkey	4	0	1	boats	2	correct	2.28734195670631
67232	1	stim044_animate_human_baby_4.png	44	animate	human	baby	4	0	1	boats	2	correct	2.28734195670631
67282	1	stim090_animate_mammal_kangaroo_2.png	90	animate	mammal	kangaroo	2	0	1	boats	2	correct	2.28734195670631
67332	1	stim055_animate_human_faces_3.png	55	animate	human	faces	3	0	1	boats	2	correct	2.28734195670631
67382	1	stim009_animate_aquatic_seahorse_1.png	9	animate	aquatic	seahorse	1	0	1	boats	2	correct	2.28734195670631
67432	1	stim016_animate_aquatic_shark_4.png	16	animate	aquatic	shark	4	0	1	boats	2	correct	2.28734195670631
67482	1	stim087_animate_mammal_giraffe_3.png	87	animate	mammal	giraffe	3	0	1	boats	2	correct	2.28734195670631
67532	1	stim123_inanimate_fruits_apple_3.png	123	inanimate	fruits	apple	3	0	1	boats	2	correct	2.28734195670631
67582	1	stim066_animate_insect_bug_2.png	66	animate	insect	bug	2	0	1	boats	2	correct	2.28734195670631
67632	1	stim101_inanimate_clothing_gloves_1.png	101	inanimate	clothing	gloves	1	0	1	boats	2	correct	2.28734195670631
67682	1	stim179_inanimate_plants_tulip_3.png	179	inanimate	plants	tulip	3	0	1	boats	2	correct	2.28734195670631
67732	1	stim144_inanimate_furniture_bed_4.png	144	inanimate	furniture	bed	4	0	1	boats	2	correct	2.28734195670631
67782	1	stim041_animate_human_baby_1.png	41	animate	human	baby	1	0	1	boats	2	correct	2.28734195670631
67832	1	stim100_animate_mammal_rhino_4.png	100	animate	mammal	rhino	4	0	1	boats	2	correct	2.28734195670631
67882	1	stim117_inanimate_clothing_socks_1.png	117	inanimate	clothing	socks	1	0	1	boats	2	correct	2.28734195670631
67932	1	stim157_inanimate_furniture_table_1.png	157	inanimate	furniture	table	1	0	1	boats	2	correct	2.28734195670631
67982	1	stim113_inanimate_clothing_shirt_1.png	113	inanimate	clothing	shirt	1	0	1	boats	2	correct	2.28734195670631
68032	1	stim048_animate_human_child_4.png	48	animate	human	child	4	0	1	boats	2	correct	2.28734195670631
68082	1	stim161_inanimate_plants_bush_1.png	161	inanimate	plants	bush	1	0	1	boats	2	correct	2.28734195670631
68132	1	stim056_animate_human_faces_4.png	56	animate	human	faces	4	0	1	boats	2	correct	2.28734195670631
68182	1	stim049_animate_human_clown_1.png	49	animate	human	clown	1	0	1	boats	2	correct	2.28734195670631
68232	1	stim185_inanimate_tools_hammer_1.png	185	inanimate	tools	hammer	1	0	1	boats	2	correct	2.28734195670631
68282	1	stim141_inanimate_furniture_bed_1.png	141	inanimate	furniture	bed	1	0	1	boats	2	correct	2.28734195670631
68332	1	stim099_animate_mammal_rhino_3.png	99	animate	mammal	rhino	3	0	1	boats	2	correct	2.28734195670631
68382	1	stim118_inanimate_clothing_socks_2.png	118	inanimate	clothing	socks	2	0	1	boats	2	correct	2.28734195670631
68432	1	stim180_inanimate_plants_tulip_4.png	180	inanimate	plants	tulip	4	0	1	boats	2	correct	2.28734195670631
68482	1	stim010_animate_aquatic_seahorse_2.png	10	animate	aquatic	seahorse	2	0	1	boats	2	correct	2.28734195670631
68532	1	stim040_animate_bird_penguin_4.png	40	animate	bird	penguin	4	0	1	boats	2	correct	2.28734195670631
68582	1	stim029_animate_bird_parrot_1.png	29	animate	bird	parrot	1	0	1	boats	2	correct	2.28734195670631
68632	1	stim062_animate_insect_ant_2.png	62	animate	insect	ant	2	0	1	boats	2	correct	2.28734195670631
68682	1	stim175_inanimate_plants_tree_3.png	175	inanimate	plants	tree	3	0	1	boats	2	correct	2.28734195670631
68732	1	stim145_inanimate_furniture_chair_1.png	145	inanimate	furniture	chair	1	0	1	boats	2	correct	2.28734195670631
68782	1	stim146_inanimate_furniture_chair_2.png	146	inanimate	furniture	chair	2	0	1	boats	2	correct	2.28734195670631
68832	1	stim057_animate_human_sports_1.png	57	animate	human	sports	1	0	1	boats	2	correct	2.28734195670631
68882	1	stim124_inanimate_fruits_apple_4.png	124	inanimate	fruits	apple	4	0	1	boats	2	correct	2.28734195670631
68932	1	stim008_animate_aquatic_fish_4.png	8	animate	aquatic	fish	4	0	1	boats	2	correct	2.28734195670631
68982	1	stim038_animate_bird_penguin_2.png	38	animate	bird	penguin	2	0	1	boats	2	correct	2.28734195670631
69032	1	stim092_animate_mammal_kangaroo_4.png	92	animate	mammal	kangaroo	4	0	1	boats	2	correct	2.28734195670631
69082	1	stim106_inanimate_clothing_hat_2.png	106	inanimate	clothing	hat	2	0	1	boats	2	correct	2.28734195670631
69132	1	stim126_inanimate_fruits_banana_2.png	126	inanimate	fruits	banana	2	0	1	boats	2	correct	2.28734195670631
69182	1	stim007_animate_aquatic_fish_3.png	7	animate	aquatic	fish	3	0	1	boats	2	correct	2.28734195670631
69232	1	stim078_animate_insect_grasshopper_2.png	78	animate	insect	grasshopper	2	0	1	boats	2	correct	2.28734195670631
69282	1	stim201_targets_object_boats_1.png	201	targets	object	boats	1	1	1	boats	2	correct	2.28734195670631
69332	1	stim136_inanimate_fruits_pineapple_4.png	136	inanimate	fruits	pineapple	4	0	1	boats	2	correct	2.28734195670631
69382	1	stim037_animate_bird_penguin_1.png	37	animate	bird	penguin	1	0	1	boats	2	correct	2.28734195670631
69432	1	stim015_animate_aquatic_shark_3.png	15	animate	aquatic	shark	3	0	1	boats	2	correct	2.28734195670631
69482	1	stim116_inanimate_clothing_shirt_4.png	116	inanimate	clothing	shirt	4	0	1	boats	2	correct	2.28734195670631
69532	1	stim102_inanimate_clothing_gloves_2.png	102	inanimate	clothing	gloves	2	0	1	boats	2	correct	2.28734195670631
69582	1	stim129_inanimate_fruits_grape_1.png	129	inanimate	fruits	grape	1	0	1	boats	2	correct	2.28734195670631
69632	1	stim166_inanimate_plants_cactus_2.png	166	inanimate	plants	cactus	2	0	1	boats	2	correct	2.28734195670631
69682	1	stim080_animate_insect_grasshopper_4.png	80	animate	insect	grasshopper	4	0	1	boats	2	correct	2.28734195670631
69732	1	stim138_inanimate_fruits_strawberry_2.png	138	inanimate	fruits	strawberry	2	0	1	boats	2	correct	2.28734195670631
69782	1	stim184_inanimate_tools_broom_4.png	184	inanimate	tools	broom	4	0	1	boats	2	correct	2.28734195670631
69832	1	stim174_inanimate_plants_tree_2.png	174	inanimate	plants	tree	2	0	1	boats	2	correct	2.28734195670631
69882	1	stim004_animate_aquatic_crab_4.png	4	animate	aquatic	crab	4	0	1	boats	2	correct	2.28734195670631
69932	1	stim064_animate_insect_ant_4.png	64	animate	insect	ant	4	0	1	boats	2	correct	2.28734195670631
69982	1	stim073_animate_insect_dragonfly_1.png	73	animate	insect	dragonfly	1	0	1	boats	2	correct	2.28734195670631
70032	1	stim109_inanimate_clothing_jeans_1.png	109	inanimate	clothing	jeans	1	0	1	boats	2	correct	2.28734195670631
70082	1	stim074_animate_insect_dragonfly_2.png	74	animate	insect	dragonfly	2	0	1	boats	2	correct	2.28734195670631
70132	1	stim067_animate_insect_bug_3.png	67	animate	insect	bug	3	0	1	boats	2	correct	2.28734195670631
70182	1	stim107_inanimate_clothing_hat_3.png	107	inanimate	clothing	hat	3	0	1	boats	2	correct	2.28734195670631
70232	1	stim065_animate_insect_bug_1.png	65	animate	insect	bug	1	0	1	boats	2	correct	2.28734195670631
70282	1	stim068_animate_insect_bug_4.png	68	animate	insect	bug	4	0	1	boats	2	correct	2.28734195670631
70332	1	stim035_animate_bird_peacock_3.png	35	animate	bird	peacock	3	0	1	boats	2	correct	2.28734195670631
70382	1	stim032_animate_bird_parrot_4.png	32	animate	bird	parrot	4	0	1	boats	2	correct	2.28734195670631
70432	1	stim003_animate_aquatic_crab_3.png	3	animate	aquatic	crab	3	0	1	boats	2	correct	2.28734195670631
70482	1	stim001_animate_aquatic_crab_1.png	1	animate	aquatic	crab	1	0	1	boats	2	correct	2.28734195670631
70532	1	stim169_inanimate_plants_sunflower_1.png	169	inanimate	plants	sunflower	1	0	1	boats	2	correct	2.28734195670631
70582	1	stim167_inanimate_plants_cactus_3.png	167	inanimate	plants	cactus	3	0	1	boats	2	correct	2.28734195670631
70632	1	stim058_animate_human_sports_2.png	58	animate	human	sports	2	0	1	boats	2	correct	2.28734195670631
70682	1	stim052_animate_human_clown_4.png	52	animate	human	clown	4	0	1	boats	2	correct	2.28734195670631
70732	1	stim027_animate_bird_duck_3.png	27	animate	bird	duck	3	0	1	boats	2	correct	2.28734195670631
70782	1	stim031_animate_bird_parrot_3.png	31	animate	bird	parrot	3	0	1	boats	2	correct	2.28734195670631
70832	1	stim063_animate_insect_ant_3.png	63	animate	insect	ant	3	0	1	boats	2	correct	2.28734195670631
70882	1	stim196_inanimate_tools_scissors_4.png	196	inanimate	tools	scissors	4	0	1	boats	2	correct	2.28734195670631
70932	1	stim156_inanimate_furniture_sofa_4.png	156	inanimate	furniture	sofa	4	0	1	boats	2	correct	2.28734195670631
70982	1	stim011_animate_aquatic_seahorse_3.png	11	animate	aquatic	seahorse	3	0	1	boats	2	correct	2.28734195670631
71032	1	stim069_animate_insect_butterfly_1.png	69	animate	insect	butterfly	1	0	1	boats	2	correct	2.28734195670631
71082	1	stim072_animate_insect_butterfly_4.png	72	animate	insect	butterfly	4	0	1	boats	2	correct	2.28734195670631
71132	1	stim021_animate_bird_chicken_1.png	21	animate	bird	chicken	1	0	1	boats	2	correct	2.28734195670631
71182	1	stim170_inanimate_plants_sunflower_2.png	170	inanimate	plants	sunflower	2	0	1	boats	2	correct	2.28734195670631
71232	1	stim125_inanimate_fruits_banana_1.png	125	inanimate	fruits	banana	1	0	1	boats	2	correct	2.28734195670631
71282	1	stim192_inanimate_tools_pan_4.png	192	inanimate	tools	pan	4	0	1	boats	2	correct	2.28734195670631
71332	1	stim097_animate_mammal_rhino_1.png	97	animate	mammal	rhino	1	0	1	boats	2	correct	2.28734195670631
71382	1	stim188_inanimate_tools_hammer_4.png	188	inanimate	tools	hammer	4	0	1	boats	2	correct	2.28734195670631
71432	1	stim154_inanimate_furniture_sofa_2.png	154	inanimate	furniture	sofa	2	0	1	boats	2	correct	2.28734195670631
71482	1	stim091_animate_mammal_kangaroo_3.png	91	animate	mammal	kangaroo	3	0	1	boats	2	correct	2.28734195670631
71532	1	stim112_inanimate_clothing_jeans_4.png	112	inanimate	clothing	jeans	4	0	1	boats	2	correct	2.28734195670631
71582	1	stim194_inanimate_tools_scissors_2.png	194	inanimate	tools	scissors	2	0	1	boats	2	correct	2.28734195670631
71632	1	stim006_animate_aquatic_fish_2.png	6	animate	aquatic	fish	2	0	1	boats	2	correct	2.28734195670631
71682	1	stim121_inanimate_fruits_apple_1.png	121	inanimate	fruits	apple	1	0	1	boats	2	correct	2.28734195670631
71732	1	stim137_inanimate_fruits_strawberry_1.png	137	inanimate	fruits	strawberry	1	0	1	boats	2	correct	2.28734195670631
71782	1	stim051_animate_human_clown_3.png	51	animate	human	clown	3	0	1	boats	2	correct	2.28734195670631
71832	1	stim079_animate_insect_grasshopper_3.png	79	animate	insect	grasshopper	3	0	1	boats	2	correct	2.28734195670631
71882	1	stim133_inanimate_fruits_pineapple_1.png	133	inanimate	fruits	pineapple	1	0	1	boats	2	correct	2.28734195670631
71932	1	stim143_inanimate_furniture_bed_3.png	143	inanimate	furniture	bed	3	0	1	boats	2	correct	2.28734195670631
71982	1	stim114_inanimate_clothing_shirt_2.png	114	inanimate	clothing	shirt	2	0	1	boats	2	correct	2.28734195670631
72032	1	stim140_inanimate_fruits_strawberry_4.png	140	inanimate	fruits	strawberry	4	0	1	boats	2	correct	2.28734195670631
72082	1	stim160_inanimate_furniture_table_4.png	160	inanimate	furniture	table	4	0	1	boats	2	correct	2.28734195670631
72132	1	stim186_inanimate_tools_hammer_2.png	186	inanimate	tools	hammer	2	0	1	boats	2	correct	2.28734195670631
72182	1	stim199_inanimate_tools_wrench_3.png	199	inanimate	tools	wrench	3	0	1	boats	2	correct	2.28734195670631
72232	1	stim012_animate_aquatic_seahorse_4.png	12	animate	aquatic	seahorse	4	0	1	boats	2	correct	2.28734195670631
72282	1	stim203_targets_object_boats_3.png	203	targets	object	boats	3	1	1	boats	2	correct	2.28734195670631
72332	1	stim168_inanimate_plants_cactus_4.png	168	inanimate	plants	cactus	4	0	1	boats	2	correct	2.28734195670631
72382	1	stim050_animate_human_clown_2.png	50	animate	human	clown	2	0	1	boats	2	correct	2.28734195670631
72432	1	stim045_animate_human_child_1.png	45	animate	human	child	1	0	1	boats	2	correct	2.28734195670631
72482	1	stim131_inanimate_fruits_grape_3.png	131	inanimate	fruits	grape	3	0	1	boats	2	correct	2.28734195670631
72532	1	stim002_animate_aquatic_crab_2.png	2	animate	aquatic	crab	2	0	1	boats	2	correct	2.28734195670631
72582	1	stim075_animate_insect_dragonfly_3.png	75	animate	insect	dragonfly	3	0	1	boats	2	correct	2.28734195670631
72632	1	stim153_inanimate_furniture_sofa_1.png	153	inanimate	furniture	sofa	1	0	1	boats	2	correct	2.28734195670631
72682	1	stim043_animate_human_baby_3.png	43	animate	human	baby	3	0	1	boats	2	correct	2.28734195670631
72732	1	stim086_animate_mammal_giraffe_2.png	86	animate	mammal	giraffe	2	0	1	boats	2	correct	2.28734195670631
72782	1	stim059_animate_human_sports_3.png	59	animate	human	sports	3	0	1	boats	2	correct	2.28734195670631
72832	1	stim042_animate_human_baby_2.png	42	animate	human	baby	2	0	1	boats	2	correct	2.28734195670631
72882	1	stim028_animate_bird_duck_4.png	28	animate	bird	duck	4	0	1	boats	2	correct	2.28734195670631
72932	1	stim149_inanimate_furniture_closet_1.png	149	inanimate	furniture	closet	1	0	1	boats	2	correct	2.28734195670631
72982	1	stim082_animate_mammal_cow_2.png	82	animate	mammal	cow	2	0	1	boats	2	correct	2.28734195670631
73032	1	stim182_inanimate_tools_broom_2.png	182	inanimate	tools	broom	2	0	1	boats	2	correct	2.28734195670631
73082	1	stim158_inanimate_furniture_table_2.png	158	inanimate	furniture	table	2	0	1	boats	2	correct	2.28734195670631
73132	1	stim083_animate_mammal_cow_3.png	83	animate	mammal	cow	3	0	1	boats	2	correct	2.28734195670631
73182	1	stim013_animate_aquatic_shark_1.png	13	animate	aquatic	shark	1	0	1	boats	2	correct	2.28734195670631
73232	1	stim046_animate_human_child_2.png	46	animate	human	child	2	0	1	boats	2	correct	2.28734195670631
73282	1	stim147_inanimate_furniture_chair_3.png	147	inanimate	furniture	chair	3	0	1	boats	2	correct	2.28734195670631
73332	1	stim036_animate_bird_peacock_4.png	36	animate	bird	peacock	4	0	1	boats	2	correct	2.28734195670631
73382	1	stim026_animate_bird_duck_2.png	26	animate	bird	duck	2	0	1	boats	2	correct	2.28734195670631
73432	1	stim197_inanimate_tools_wrench_1.png	197	inanimate	tools	wrench	1	0	1	boats	2	correct	2.28734195670631
73482	1	stim150_inanimate_furniture_closet_2.png	150	inanimate	furniture	closet	2	0	1	boats	2	correct	2.28734195670631
73532	1	stim165_inanimate_plants_cactus_1.png	165	inanimate	plants	cactus	1	0	1	boats	2	correct	2.28734195670631
73582	1	stim119_inanimate_clothing_socks_3.png	119	inanimate	clothing	socks	3	0	1	boats	2	correct	2.28734195670631
73632	1	stim070_animate_insect_butterfly_2.png	70	animate	insect	butterfly	2	0	1	boats	2	correct	2.28734195670631
73682	1	stim108_inanimate_clothing_hat_4.png	108	inanimate	clothing	hat	4	0	1	boats	2	correct	2.28734195670631
73732	1	stim159_inanimate_furniture_table_3.png	159	inanimate	furniture	table	3	0	1	boats	2	correct	2.28734195670631
73782	1	stim181_inanimate_tools_broom_1.png	181	inanimate	tools	broom	1	0	1	boats	2	correct	2.28734195670631
73832	1	stim089_animate_mammal_kangaroo_1.png	89	animate	mammal	kangaroo	1	0	1	boats	2	correct	2.28734195670631
73882	1	stim030_animate_bird_parrot_2.png	30	animate	bird	parrot	2	0	1	boats	2	correct	2.28734195670631
73932	1	stim060_animate_human_sports_4.png	60	animate	human	sports	4	0	1	boats	2	correct	2.28734195670631
73982	1	stim025_animate_bird_duck_1.png	25	animate	bird	duck	1	0	1	boats	2	correct	2.28734195670631
74032	1	stim005_animate_aquatic_fish_1.png	5	animate	aquatic	fish	1	0	1	boats	2	correct	2.28734195670631
74082	1	stim151_inanimate_furniture_closet_3.png	151	inanimate	furniture	closet	3	0	1	boats	2	correct	2.28734195670631
74132	1	stim128_inanimate_fruits_banana_4.png	128	inanimate	fruits	banana	4	0	1	boats	2	correct	2.28734195670631
74182	1	stim022_animate_bird_chicken_2.png	22	animate	bird	chicken	2	0	1	boats	2	correct	2.28734195670631
74232	1	stim094_animate_mammal_monkey_2.png	94	animate	mammal	monkey	2	0	1	boats	2	correct	2.28734195670631
74282	1	stim039_animate_bird_penguin_3.png	39	animate	bird	penguin	3	0	1	boats	2	correct	2.28734195670631
74332	1	stim183_inanimate_tools_broom_3.png	183	inanimate	tools	broom	3	0	1	boats	2	correct	2.28734195670631
74382	1	stim187_inanimate_tools_hammer_3.png	187	inanimate	tools	hammer	3	0	1	boats	2	correct	2.28734195670631
74432	1	stim178_inanimate_plants_tulip_2.png	178	inanimate	plants	tulip	2	0	1	boats	2	correct	2.28734195670631
74482	1	stim177_inanimate_plants_tulip_1.png	177	inanimate	plants	tulip	1	0	1	boats	2	correct	2.28734195670631
74532	1	stim155_inanimate_furniture_sofa_3.png	155	inanimate	furniture	sofa	3	0	1	boats	2	correct	2.28734195670631
74582	1	stim077_animate_insect_grasshopper_1.png	77	animate	insect	grasshopper	1	0	1	boats	2	correct	2.28734195670631
74632	1	stim014_animate_aquatic_shark_2.png	14	animate	aquatic	shark	2	0	1	boats	2	correct	2.28734195670631
74682	1	stim172_inanimate_plants_sunflower_4.png	172	inanimate	plants	sunflower	4	0	1	boats	2	correct	2.28734195670631
74732	1	stim024_animate_bird_chicken_4.png	24	animate	bird	chicken	4	0	1	boats	2	correct	2.28734195670631
74782	1	stim176_inanimate_plants_tree_4.png	176	inanimate	plants	tree	4	0	1	boats	2	correct	2.28734195670631
74832	1	stim162_inanimate_plants_bush_2.png	162	inanimate	plants	bush	2	0	1	boats	2	correct	2.28734195670631
74882	1	stim142_inanimate_furniture_bed_2.png	142	inanimate	furniture	bed	2	0	1	boats	2	correct	2.28734195670631
74932	1	stim139_inanimate_fruits_strawberry_3.png	139	inanimate	fruits	strawberry	3	0	1	boats	2	correct	2.28734195670631
74982	1	stim105_inanimate_clothing_hat_1.png	105	inanimate	clothing	hat	1	0	1	boats	2	correct	2.28734195670631
75032	1	stim103_inanimate_clothing_gloves_3.png	103	inanimate	clothing	gloves	3	0	1	boats	2	correct	2.28734195670631
75082	1	stim020_animate_aquatic_shrimp_4.png	20	animate	aquatic	shrimp	4	0	1	boats	2	correct	2.28734195670631
75132	1	stim088_animate_mammal_giraffe_4.png	88	animate	mammal	giraffe	4	0	1	boats	2	correct	2.28734195670631
75182	1	stim191_inanimate_tools_pan_3.png	191	inanimate	tools	pan	3	0	1	boats	2	correct	2.28734195670631
75232	1	stim134_inanimate_fruits_pineapple_2.png	134	inanimate	fruits	pineapple	2	0	1	boats	2	correct	2.28734195670631
75282	1	stim053_animate_human_faces_1.png	53	animate	human	faces	1	0	1	boats	2	correct	2.28734195670631
75332	1	stim120_inanimate_clothing_socks_4.png	120	inanimate	clothing	socks	4	0	1	boats	2	correct	2.28734195670631
75382	1	stim132_inanimate_fruits_grape_4.png	132	inanimate	fruits	grape	4	0	1	boats	2	correct	2.28734195670631
75432	1	stim054_animate_human_faces_2.png	54	animate	human	faces	2	0	1	boats	2	correct	2.28734195670631
75482	1	stim171_inanimate_plants_sunflower_3.png	171	inanimate	plants	sunflower	3	0	1	boats	2	correct	2.28734195670631
75532	1	stim115_inanimate_clothing_shirt_3.png	115	inanimate	clothing	shirt	3	0	1	boats	2	correct	2.28734195670631
75582	1	stim122_inanimate_fruits_apple_2.png	122	inanimate	fruits	apple	2	0	1	boats	2	correct	2.28734195670631
75632	1	stim034_animate_bird_peacock_2.png	34	animate	bird	peacock	2	0	1	boats	2	correct	2.28734195670631
75682	1	stim095_animate_mammal_monkey_3.png	95	animate	mammal	monkey	3	0	1	boats	2	correct	2.28734195670631
75732	1	stim085_animate_mammal_giraffe_1.png	85	animate	mammal	giraffe	1	0	1	boats	2	correct	2.28734195670631
75782	1	stim071_animate_insect_butterfly_3.png	71	animate	insect	butterfly	3	0	1	boats	2	correct	2.28734195670631
75832	1	stim200_inanimate_tools_wrench_4.png	200	inanimate	tools	wrench	4	0	1	boats	2	correct	2.28734195670631
75882	1	stim033_animate_bird_peacock_1.png	33	animate	bird	peacock	1	0	1	boats	2	correct	2.28734195670631
75932	1	stim061_animate_insect_ant_1.png	61	animate	insect	ant	1	0	1	boats	2	correct	2.28734195670631
75982	1	stim019_animate_aquatic_shrimp_3.png	19	animate	aquatic	shrimp	3	0	1	boats	2	correct	2.28734195670631
76032	1	stim018_animate_aquatic_shrimp_2.png	18	animate	aquatic	shrimp	2	0	1	boats	2	correct	2.28734195670631
76082	1	stim163_inanimate_plants_bush_3.png	163	inanimate	plants	bush	3	0	1	boats	2	correct	2.28734195670631
76132	1	stim098_animate_mammal_rhino_2.png	98	animate	mammal	rhino	2	0	1	boats	2	correct	2.28734195670631
76182	1	stim193_inanimate_tools_scissors_1.png	193	inanimate	tools	scissors	1	0	1	boats	2	correct	2.28734195670631
76232	1	stim135_inanimate_fruits_pineapple_3.png	135	inanimate	fruits	pineapple	3	0	1	boats	2	correct	2.28734195670631
90999	1	stim093_animate_mammal_monkey_1.png	93	animate	mammal	monkey	1	0	2	stars	1	correct	1.66563234627938
91049	1	stim137_inanimate_fruits_strawberry_1.png	137	inanimate	fruits	strawberry	1	0	2	stars	1	correct	1.66563234627938
91099	1	stim089_animate_mammal_kangaroo_1.png	89	animate	mammal	kangaroo	1	0	2	stars	1	correct	1.66563234627938
91149	1	stim133_inanimate_fruits_pineapple_1.png	133	inanimate	fruits	pineapple	1	0	2	stars	1	correct	1.66563234627938
91199	1	stim134_inanimate_fruits_pineapple_2.png	134	inanimate	fruits	pineapple	2	0	2	stars	1	correct	1.66563234627938
91249	1	stim053_animate_human_faces_1.png	53	animate	human	faces	1	0	2	stars	1	correct	1.66563234627938
91299	1	stim160_inanimate_furniture_table_4.png	160	inanimate	furniture	table	4	0	2	stars	1	correct	1.66563234627938
91349	1	stim146_inanimate_furniture_chair_2.png	146	inanimate	furniture	chair	2	0	2	stars	1	correct	1.66563234627938
91399	1	stim116_inanimate_clothing_shirt_4.png	116	inanimate	clothing	shirt	4	0	2	stars	1	correct	1.66563234627938
91449	1	stim192_inanimate_tools_pan_4.png	192	inanimate	tools	pan	4	0	2	stars	1	correct	1.66563234627938
91499	1	stim128_inanimate_fruits_banana_4.png	128	inanimate	fruits	banana	4	0	2	stars	1	correct	1.66563234627938
91549	1	stim083_animate_mammal_cow_3.png	83	animate	mammal	cow	3	0	2	stars	1	correct	1.66563234627938
91599	1	stim155_inanimate_furniture_sofa_3.png	155	inanimate	furniture	sofa	3	0	2	stars	1	correct	1.66563234627938
91649	1	stim033_animate_bird_peacock_1.png	33	animate	bird	peacock	1	0	2	stars	1	correct	1.66563234627938
91699	1	stim029_animate_bird_parrot_1.png	29	animate	bird	parrot	1	0	2	stars	1	correct	1.66563234627938
91749	1	stim151_inanimate_furniture_closet_3.png	151	inanimate	furniture	closet	3	0	2	stars	1	correct	1.66563234627938
91799	1	stim043_animate_human_baby_3.png	43	animate	human	baby	3	0	2	stars	1	correct	1.66563234627938
91849	1	stim059_animate_human_sports_3.png	59	animate	human	sports	3	0	2	stars	1	correct	1.66563234627938
91899	1	stim114_inanimate_clothing_shirt_2.png	114	inanimate	clothing	shirt	2	0	2	stars	1	correct	1.66563234627938
91949	1	stim106_inanimate_clothing_hat_2.png	106	inanimate	clothing	hat	2	0	2	stars	1	correct	1.66563234627938
91999	1	stim129_inanimate_fruits_grape_1.png	129	inanimate	fruits	grape	1	0	2	stars	1	correct	1.66563234627938
92049	1	stim004_animate_aquatic_crab_4.png	4	animate	aquatic	crab	4	0	2	stars	1	correct	1.66563234627938
92099	1	stim065_animate_insect_bug_1.png	65	animate	insect	bug	1	0	2	stars	1	correct	1.66563234627938
92149	1	stim035_animate_bird_peacock_3.png	35	animate	bird	peacock	3	0	2	stars	1	correct	1.66563234627938
92199	1	stim200_inanimate_tools_wrench_4.png	200	inanimate	tools	wrench	4	0	2	stars	1	correct	1.66563234627938
92249	1	stim132_inanimate_fruits_grape_4.png	132	inanimate	fruits	grape	4	0	2	stars	1	correct	1.66563234627938
92299	1	stim024_animate_bird_chicken_4.png	24	animate	bird	chicken	4	0	2	stars	1	correct	1.66563234627938
92349	1	stim176_inanimate_plants_tree_4.png	176	inanimate	plants	tree	4	0	2	stars	1	correct	1.66563234627938
92399	1	stim066_animate_insect_bug_2.png	66	animate	insect	bug	2	0	2	stars	1	correct	1.66563234627938
92449	1	stim068_animate_insect_bug_4.png	68	animate	insect	bug	4	0	2	stars	1	correct	1.66563234627938
92499	1	stim158_inanimate_furniture_table_2.png	158	inanimate	furniture	table	2	0	2	stars	1	correct	1.66563234627938
92549	1	stim036_animate_bird_peacock_4.png	36	animate	bird	peacock	4	0	2	stars	1	correct	1.66563234627938
92599	1	stim163_inanimate_plants_bush_3.png	163	inanimate	plants	bush	3	0	2	stars	1	correct	1.66563234627938
92649	1	stim012_animate_aquatic_seahorse_4.png	12	animate	aquatic	seahorse	4	0	2	stars	1	correct	1.66563234627938
92699	1	stim028_animate_bird_duck_4.png	28	animate	bird	duck	4	0	2	stars	1	correct	1.66563234627938
92749	1	stim051_animate_human_clown_3.png	51	animate	human	clown	3	0	2	stars	1	correct	1.66563234627938
92799	1	stim118_inanimate_clothing_socks_2.png	118	inanimate	clothing	socks	2	0	2	stars	1	correct	1.66563234627938
92849	1	stim152_inanimate_furniture_closet_4.png	152	inanimate	furniture	closet	4	0	2	stars	1	correct	1.66563234627938
92899	1	stim178_inanimate_plants_tulip_2.png	178	inanimate	plants	tulip	2	0	2	stars	1	correct	1.66563234627938
92949	1	stim196_inanimate_tools_scissors_4.png	196	inanimate	tools	scissors	4	0	2	stars	1	correct	1.66563234627938
92999	1	stim197_inanimate_tools_wrench_1.png	197	inanimate	tools	wrench	1	0	2	stars	1	correct	1.66563234627938
93049	1	stim079_animate_insect_grasshopper_3.png	79	animate	insect	grasshopper	3	0	2	stars	1	correct	1.66563234627938
93099	1	stim127_inanimate_fruits_banana_3.png	127	inanimate	fruits	banana	3	0	2	stars	1	correct	1.66563234627938
93149	1	stim092_animate_mammal_kangaroo_4.png	92	animate	mammal	kangaroo	4	0	2	stars	1	correct	1.66563234627938
93199	1	stim166_inanimate_plants_cactus_2.png	166	inanimate	plants	cactus	2	0	2	stars	1	correct	1.66563234627938
93249	1	stim173_inanimate_plants_tree_1.png	173	inanimate	plants	tree	1	0	2	stars	1	correct	1.66563234627938
93299	1	stim112_inanimate_clothing_jeans_4.png	112	inanimate	clothing	jeans	4	0	2	stars	1	correct	1.66563234627938
93349	1	stim054_animate_human_faces_2.png	54	animate	human	faces	2	0	2	stars	1	correct	1.66563234627938
93399	1	stim162_inanimate_plants_bush_2.png	162	inanimate	plants	bush	2	0	2	stars	1	correct	1.66563234627938
93449	1	stim003_animate_aquatic_crab_3.png	3	animate	aquatic	crab	3	0	2	stars	1	correct	1.66563234627938
93499	1	stim038_animate_bird_penguin_2.png	38	animate	bird	penguin	2	0	2	stars	1	correct	1.66563234627938
93549	1	stim199_inanimate_tools_wrench_3.png	199	inanimate	tools	wrench	3	0	2	stars	1	correct	1.66563234627938
93599	1	stim073_animate_insect_dragonfly_1.png	73	animate	insect	dragonfly	1	0	2	stars	1	correct	1.66563234627938
93649	1	stim143_inanimate_furniture_bed_3.png	143	inanimate	furniture	bed	3	0	2	stars	1	correct	1.66563234627938
93699	1	stim023_animate_bird_chicken_3.png	23	animate	bird	chicken	3	0	2	stars	1	correct	1.66563234627938
93749	1	stim185_inanimate_tools_hammer_1.png	185	inanimate	tools	hammer	1	0	2	stars	1	correct	1.66563234627938
93799	1	stim087_animate_mammal_giraffe_3.png	87	animate	mammal	giraffe	3	0	2	stars	1	correct	1.66563234627938
93849	1	stim120_inanimate_clothing_socks_4.png	120	inanimate	clothing	socks	4	0	2	stars	1	correct	1.66563234627938
93899	1	stim161_inanimate_plants_bush_1.png	161	inanimate	plants	bush	1	0	2	stars	1	correct	1.66563234627938
93949	1	stim165_inanimate_plants_cactus_1.png	165	inanimate	plants	cactus	1	0	2	stars	1	correct	1.66563234627938
93999	1	stim142_inanimate_furniture_bed_2.png	142	inanimate	furniture	bed	2	0	2	stars	1	correct	1.66563234627938
94049	1	stim168_inanimate_plants_cactus_4.png	168	inanimate	plants	cactus	4	0	2	stars	1	correct	1.66563234627938
94099	1	stim167_inanimate_plants_cactus_3.png	167	inanimate	plants	cactus	3	0	2	stars	1	correct	1.66563234627938
94149	1	stim021_animate_bird_chicken_1.png	21	animate	bird	chicken	1	0	2	stars	1	correct	1.66563234627938
94199	1	stim098_animate_mammal_rhino_2.png	98	animate	mammal	rhino	2	0	2	stars	1	correct	1.66563234627938
94249	1	stim078_animate_insect_grasshopper_2.png	78	animate	insect	grasshopper	2	0	2	stars	1	correct	1.66563234627938
94299	1	stim171_inanimate_plants_sunflower_3.png	171	inanimate	plants	sunflower	3	0	2	stars	1	correct	1.66563234627938
94349	1	stim049_animate_human_clown_1.png	49	animate	human	clown	1	0	2	stars	1	correct	1.66563234627938
94399	1	stim107_inanimate_clothing_hat_3.png	107	inanimate	clothing	hat	3	0	2	stars	1	correct	1.66563234627938
94449	1	stim103_inanimate_clothing_gloves_3.png	103	inanimate	clothing	gloves	3	0	2	stars	1	correct	1.66563234627938
94499	1	stim019_animate_aquatic_shrimp_3.png	19	animate	aquatic	shrimp	3	0	2	stars	1	correct	1.66563234627938
94549	1	stim076_animate_insect_dragonfly_4.png	76	animate	insect	dragonfly	4	0	2	stars	1	correct	1.66563234627938
94599	1	stim117_inanimate_clothing_socks_1.png	117	inanimate	clothing	socks	1	0	2	stars	1	correct	1.66563234627938
94649	1	stim130_inanimate_fruits_grape_2.png	130	inanimate	fruits	grape	2	0	2	stars	1	correct	1.66563234627938
94699	1	stim124_inanimate_fruits_apple_4.png	124	inanimate	fruits	apple	4	0	2	stars	1	correct	1.66563234627938
94749	1	stim123_inanimate_fruits_apple_3.png	123	inanimate	fruits	apple	3	0	2	stars	1	correct	1.66563234627938
94799	1	stim194_inanimate_tools_scissors_2.png	194	inanimate	tools	scissors	2	0	2	stars	1	correct	1.66563234627938
94849	1	stim187_inanimate_tools_hammer_3.png	187	inanimate	tools	hammer	3	0	2	stars	1	correct	1.66563234627938
94899	1	stim144_inanimate_furniture_bed_4.png	144	inanimate	furniture	bed	4	0	2	stars	1	correct	1.66563234627938
94949	1	stim063_animate_insect_ant_3.png	63	animate	insect	ant	3	0	2	stars	1	correct	1.66563234627938
94999	1	stim140_inanimate_fruits_strawberry_4.png	140	inanimate	fruits	strawberry	4	0	2	stars	1	correct	1.66563234627938
95049	1	stim191_inanimate_tools_pan_3.png	191	inanimate	tools	pan	3	0	2	stars	1	correct	1.66563234627938
95099	1	stim032_animate_bird_parrot_4.png	32	animate	bird	parrot	4	0	2	stars	1	correct	1.66563234627938
95149	1	stim154_inanimate_furniture_sofa_2.png	154	inanimate	furniture	sofa	2	0	2	stars	1	correct	1.66563234627938
95199	1	stim193_inanimate_tools_scissors_1.png	193	inanimate	tools	scissors	1	0	2	stars	1	correct	1.66563234627938
95249	1	stim088_animate_mammal_giraffe_4.png	88	animate	mammal	giraffe	4	0	2	stars	1	correct	1.66563234627938
95299	1	stim180_inanimate_plants_tulip_4.png	180	inanimate	plants	tulip	4	0	2	stars	1	correct	1.66563234627938
95349	1	stim047_animate_human_child_3.png	47	animate	human	child	3	0	2	stars	1	correct	1.66563234627938
95399	1	stim105_inanimate_clothing_hat_1.png	105	inanimate	clothing	hat	1	0	2	stars	1	correct	1.66563234627938
95449	1	stim040_animate_bird_penguin_4.png	40	animate	bird	penguin	4	0	2	stars	1	correct	1.66563234627938
95499	1	stim164_inanimate_plants_bush_4.png	164	inanimate	plants	bush	4	0	2	stars	1	correct	1.66563234627938
95549	1	stim009_animate_aquatic_seahorse_1.png	9	animate	aquatic	seahorse	1	0	2	stars	1	correct	1.66563234627938
95599	1	stim077_animate_insect_grasshopper_1.png	77	animate	insect	grasshopper	1	0	2	stars	1	correct	1.66563234627938
95649	1	stim189_inanimate_tools_pan_1.png	189	inanimate	tools	pan	1	0	2	stars	1	correct	1.66563234627938
95699	1	stim058_animate_human_sports_2.png	58	animate	human	sports	2	0	2	stars	1	correct	1.66563234627938
95749	1	stim008_animate_aquatic_fish_4.png	8	animate	aquatic	fish	4	0	2	stars	1	correct	1.66563234627938
95799	1	stim086_animate_mammal_giraffe_2.png	86	animate	mammal	giraffe	2	0	2	stars	1	correct	1.66563234627938
95849	1	stim212_targets_shapes_star_4.png	212	targets	shapes	star	4	1	2	stars	1	correct	1.66563234627938
95899	1	stim188_inanimate_tools_hammer_4.png	188	inanimate	tools	hammer	4	0	2	stars	1	correct	1.66563234627938
95949	1	stim030_animate_bird_parrot_2.png	30	animate	bird	parrot	2	0	2	stars	1	correct	1.66563234627938
95999	1	stim016_animate_aquatic_shark_4.png	16	animate	aquatic	shark	4	0	2	stars	1	correct	1.66563234627938
96049	1	stim145_inanimate_furniture_chair_1.png	145	inanimate	furniture	chair	1	0	2	stars	1	correct	1.66563234627938
96099	1	stim110_inanimate_clothing_jeans_2.png	110	inanimate	clothing	jeans	2	0	2	stars	1	correct	1.66563234627938
96149	1	stim131_inanimate_fruits_grape_3.png	131	inanimate	fruits	grape	3	0	2	stars	1	correct	1.66563234627938
96199	1	stim061_animate_insect_ant_1.png	61	animate	insect	ant	1	0	2	stars	1	correct	1.66563234627938
96249	1	stim017_animate_aquatic_shrimp_1.png	17	animate	aquatic	shrimp	1	0	2	stars	1	correct	1.66563234627938
96299	1	stim183_inanimate_tools_broom_3.png	183	inanimate	tools	broom	3	0	2	stars	1	correct	1.66563234627938
96349	1	stim170_inanimate_plants_sunflower_2.png	170	inanimate	plants	sunflower	2	0	2	stars	1	correct	1.66563234627938
96399	1	stim062_animate_insect_ant_2.png	62	animate	insect	ant	2	0	2	stars	1	correct	1.66563234627938
96449	1	stim002_animate_aquatic_crab_2.png	2	animate	aquatic	crab	2	0	2	stars	1	correct	1.66563234627938
96499	1	stim064_animate_insect_ant_4.png	64	animate	insect	ant	4	0	2	stars	1	correct	1.66563234627938
96549	1	stim095_animate_mammal_monkey_3.png	95	animate	mammal	monkey	3	0	2	stars	1	correct	1.66563234627938
96599	1	stim172_inanimate_plants_sunflower_4.png	172	inanimate	plants	sunflower	4	0	2	stars	1	correct	1.66563234627938
96649	1	stim122_inanimate_fruits_apple_2.png	122	inanimate	fruits	apple	2	0	2	stars	1	correct	1.66563234627938
96699	1	stim100_animate_mammal_rhino_4.png	100	animate	mammal	rhino	4	0	2	stars	1	correct	1.66563234627938
96749	1	stim104_inanimate_clothing_gloves_4.png	104	inanimate	clothing	gloves	4	0	2	stars	1	correct	1.66563234627938
96799	1	stim081_animate_mammal_cow_1.png	81	animate	mammal	cow	1	0	2	stars	1	correct	1.66563234627938
96849	1	stim022_animate_bird_chicken_2.png	22	animate	bird	chicken	2	0	2	stars	1	correct	1.66563234627938
96899	1	stim169_inanimate_plants_sunflower_1.png	169	inanimate	plants	sunflower	1	0	2	stars	1	correct	1.66563234627938
96949	1	stim001_animate_aquatic_crab_1.png	1	animate	aquatic	crab	1	0	2	stars	1	correct	1.66563234627938
96999	1	stim147_inanimate_furniture_chair_3.png	147	inanimate	furniture	chair	3	0	2	stars	1	correct	1.66563234627938
97049	1	stim011_animate_aquatic_seahorse_3.png	11	animate	aquatic	seahorse	3	0	2	stars	1	correct	1.66563234627938
97099	1	stim097_animate_mammal_rhino_1.png	97	animate	mammal	rhino	1	0	2	stars	1	correct	1.66563234627938
97149	1	stim139_inanimate_fruits_strawberry_3.png	139	inanimate	fruits	strawberry	3	0	2	stars	1	correct	1.66563234627938
97199	1	stim046_animate_human_child_2.png	46	animate	human	child	2	0	2	stars	1	correct	1.66563234627938
97249	1	stim018_animate_aquatic_shrimp_2.png	18	animate	aquatic	shrimp	2	0	2	stars	1	correct	1.66563234627938
97299	1	stim010_animate_aquatic_seahorse_2.png	10	animate	aquatic	seahorse	2	0	2	stars	1	correct	1.66563234627938
97349	1	stim074_animate_insect_dragonfly_2.png	74	animate	insect	dragonfly	2	0	2	stars	1	correct	1.66563234627938
97399	1	stim096_animate_mammal_monkey_4.png	96	animate	mammal	monkey	4	0	2	stars	1	correct	1.66563234627938
97449	1	stim070_animate_insect_butterfly_2.png	70	animate	insect	butterfly	2	0	2	stars	1	correct	1.66563234627938
97499	1	stim080_animate_insect_grasshopper_4.png	80	animate	insect	grasshopper	4	0	2	stars	1	correct	1.66563234627938
97549	1	stim125_inanimate_fruits_banana_1.png	125	inanimate	fruits	banana	1	0	2	stars	1	correct	1.66563234627938
97599	1	stim015_animate_aquatic_shark_3.png	15	animate	aquatic	shark	3	0	2	stars	1	correct	1.66563234627938
97649	1	stim179_inanimate_plants_tulip_3.png	179	inanimate	plants	tulip	3	0	2	stars	1	correct	1.66563234627938
97699	1	stim101_inanimate_clothing_gloves_1.png	101	inanimate	clothing	gloves	1	0	2	stars	1	correct	1.66563234627938
97749	1	stim156_inanimate_furniture_sofa_4.png	156	inanimate	furniture	sofa	4	0	2	stars	1	correct	1.66563234627938
97799	1	stim148_inanimate_furniture_chair_4.png	148	inanimate	furniture	chair	4	0	2	stars	1	correct	1.66563234627938
97849	1	stim181_inanimate_tools_broom_1.png	181	inanimate	tools	broom	1	0	2	stars	1	correct	1.66563234627938
97899	1	stim069_animate_insect_butterfly_1.png	69	animate	insect	butterfly	1	0	2	stars	1	correct	1.66563234627938
97949	1	stim198_inanimate_tools_wrench_2.png	198	inanimate	tools	wrench	2	0	2	stars	1	correct	1.66563234627938
97999	1	stim119_inanimate_clothing_socks_3.png	119	inanimate	clothing	socks	3	0	2	stars	1	correct	1.66563234627938
98049	1	stim184_inanimate_tools_broom_4.png	184	inanimate	tools	broom	4	0	2	stars	1	correct	1.66563234627938
98099	1	stim020_animate_aquatic_shrimp_4.png	20	animate	aquatic	shrimp	4	0	2	stars	1	correct	1.66563234627938
98149	1	stim111_inanimate_clothing_jeans_3.png	111	inanimate	clothing	jeans	3	0	2	stars	1	correct	1.66563234627938
98199	1	stim067_animate_insect_bug_3.png	67	animate	insect	bug	3	0	2	stars	1	correct	1.66563234627938
98249	1	stim042_animate_human_baby_2.png	42	animate	human	baby	2	0	2	stars	1	correct	1.66563234627938
98299	1	stim109_inanimate_clothing_jeans_1.png	109	inanimate	clothing	jeans	1	0	2	stars	1	correct	1.66563234627938
98349	1	stim136_inanimate_fruits_pineapple_4.png	136	inanimate	fruits	pineapple	4	0	2	stars	1	correct	1.66563234627938
98399	1	stim056_animate_human_faces_4.png	56	animate	human	faces	4	0	2	stars	1	correct	1.66563234627938
98449	1	stim138_inanimate_fruits_strawberry_2.png	138	inanimate	fruits	strawberry	2	0	2	stars	1	correct	1.66563234627938
98499	1	stim150_inanimate_furniture_closet_2.png	150	inanimate	furniture	closet	2	0	2	stars	1	correct	1.66563234627938
98549	1	stim135_inanimate_fruits_pineapple_3.png	135	inanimate	fruits	pineapple	3	0	2	stars	1	correct	1.66563234627938
98599	1	stim121_inanimate_fruits_apple_1.png	121	inanimate	fruits	apple	1	0	2	stars	1	correct	1.66563234627938
98649	1	stim075_animate_insect_dragonfly_3.png	75	animate	insect	dragonfly	3	0	2	stars	1	correct	1.66563234627938
98699	1	stim084_animate_mammal_cow_4.png	84	animate	mammal	cow	4	0	2	stars	1	correct	1.66563234627938
98749	1	stim195_inanimate_tools_scissors_3.png	195	inanimate	tools	scissors	3	0	2	stars	1	correct	1.66563234627938
98799	1	stim048_animate_human_child_4.png	48	animate	human	child	4	0	2	stars	1	correct	1.66563234627938
98849	1	stim149_inanimate_furniture_closet_1.png	149	inanimate	furniture	closet	1	0	2	stars	1	correct	1.66563234627938
98899	1	stim159_inanimate_furniture_table_3.png	159	inanimate	furniture	table	3	0	2	stars	1	correct	1.66563234627938
98949	1	stim175_inanimate_plants_tree_3.png	175	inanimate	plants	tree	3	0	2	stars	1	correct	1.66563234627938
98999	1	stim050_animate_human_clown_2.png	50	animate	human	clown	2	0	2	stars	1	correct	1.66563234627938
99049	1	stim025_animate_bird_duck_1.png	25	animate	bird	duck	1	0	2	stars	1	correct	1.66563234627938
99099	1	stim108_inanimate_clothing_hat_4.png	108	inanimate	clothing	hat	4	0	2	stars	1	correct	1.66563234627938
99149	1	stim085_animate_mammal_giraffe_1.png	85	animate	mammal	giraffe	1	0	2	stars	1	correct	1.66563234627938
99199	1	stim102_inanimate_clothing_gloves_2.png	102	inanimate	clothing	gloves	2	0	2	stars	1	correct	1.66563234627938
99249	1	stim141_inanimate_furniture_bed_1.png	141	inanimate	furniture	bed	1	0	2	stars	1	correct	1.66563234627938
99299	1	stim174_inanimate_plants_tree_2.png	174	inanimate	plants	tree	2	0	2	stars	1	correct	1.66563234627938
99349	1	stim013_animate_aquatic_shark_1.png	13	animate	aquatic	shark	1	0	2	stars	1	correct	1.66563234627938
99399	1	stim072_animate_insect_butterfly_4.png	72	animate	insect	butterfly	4	0	2	stars	1	correct	1.66563234627938
99449	1	stim005_animate_aquatic_fish_1.png	5	animate	aquatic	fish	1	0	2	stars	1	correct	1.66563234627938
99499	1	stim190_inanimate_tools_pan_2.png	190	inanimate	tools	pan	2	0	2	stars	1	correct	1.66563234627938
99549	1	stim037_animate_bird_penguin_1.png	37	animate	bird	penguin	1	0	2	stars	1	correct	1.66563234627938
99599	1	stim026_animate_bird_duck_2.png	26	animate	bird	duck	2	0	2	stars	1	correct	1.66563234627938
99649	1	stim115_inanimate_clothing_shirt_3.png	115	inanimate	clothing	shirt	3	0	2	stars	1	correct	1.66563234627938
99699	1	stim060_animate_human_sports_4.png	60	animate	human	sports	4	0	2	stars	1	correct	1.66563234627938
99749	1	stim041_animate_human_baby_1.png	41	animate	human	baby	1	0	2	stars	1	correct	1.66563234627938
99799	1	stim182_inanimate_tools_broom_2.png	182	inanimate	tools	broom	2	0	2	stars	1	correct	1.66563234627938
99849	1	stim027_animate_bird_duck_3.png	27	animate	bird	duck	3	0	2	stars	1	correct	1.66563234627938
99899	1	stim052_animate_human_clown_4.png	52	animate	human	clown	4	0	2	stars	1	correct	1.66563234627938
99949	1	stim071_animate_insect_butterfly_3.png	71	animate	insect	butterfly	3	0	2	stars	1	correct	1.66563234627938
99999	1	stim099_animate_mammal_rhino_3.png	99	animate	mammal	rhino	3	0	2	stars	1	correct	1.66563234627938
100049	1	stim014_animate_aquatic_shark_2.png	14	animate	aquatic	shark	2	0	2	stars	1	correct	1.66563234627938
100099	1	stim157_inanimate_furniture_table_1.png	157	inanimate	furniture	table	1	0	2	stars	1	correct	1.66563234627938
100149	1	stim044_animate_human_baby_4.png	44	animate	human	baby	4	0	2	stars	1	correct	1.66563234627938
100199	1	stim031_animate_bird_parrot_3.png	31	animate	bird	parrot	3	0	2	stars	1	correct	1.66563234627938
100249	1	stim055_animate_human_faces_3.png	55	animate	human	faces	3	0	2	stars	1	correct	1.66563234627938
100299	1	stim091_animate_mammal_kangaroo_3.png	91	animate	mammal	kangaroo	3	0	2	stars	1	correct	1.66563234627938
100349	1	stim090_animate_mammal_kangaroo_2.png	90	animate	mammal	kangaroo	2	0	2	stars	1	correct	1.66563234627938
100399	1	stim082_animate_mammal_cow_2.png	82	animate	mammal	cow	2	0	2	stars	1	correct	1.66563234627938
100449	1	stim094_animate_mammal_monkey_2.png	94	animate	mammal	monkey	2	0	2	stars	1	correct	1.66563234627938
100499	1	stim177_inanimate_plants_tulip_1.png	177	inanimate	plants	tulip	1	0	2	stars	1	correct	1.66563234627938
100549	1	stim057_animate_human_sports_1.png	57	animate	human	sports	1	0	2	stars	1	correct	1.66563234627938
100599	1	stim045_animate_human_child_1.png	45	animate	human	child	1	0	2	stars	1	correct	1.66563234627938
100649	1	stim153_inanimate_furniture_sofa_1.png	153	inanimate	furniture	sofa	1	0	2	stars	1	correct	1.66563234627938
100699	1	stim034_animate_bird_peacock_2.png	34	animate	bird	peacock	2	0	2	stars	1	correct	1.66563234627938
100749	1	stim039_animate_bird_penguin_3.png	39	animate	bird	penguin	3	0	2	stars	1	correct	1.66563234627938
100799	1	stim006_animate_aquatic_fish_2.png	6	animate	aquatic	fish	2	0	2	stars	1	correct	1.66563234627938
100849	1	stim007_animate_aquatic_fish_3.png	7	animate	aquatic	fish	3	0	2	stars	1	correct	1.66563234627938
100899	1	stim113_inanimate_clothing_shirt_1.png	113	inanimate	clothing	shirt	1	0	2	stars	1	correct	1.66563234627938
100949	1	stim186_inanimate_tools_hammer_2.png	186	inanimate	tools	hammer	2	0	2	stars	1	correct	1.66563234627938
100999	1	stim126_inanimate_fruits_banana_2.png	126	inanimate	fruits	banana	2	0	2	stars	1	correct	1.66563234627938
107999	1	stim139_inanimate_fruits_strawberry_3.png	139	inanimate	fruits	strawberry	3	0	3	boats	1	correct	1.12847605036723
108049	1	stim010_animate_aquatic_seahorse_2.png	10	animate	aquatic	seahorse	2	0	3	boats	1	correct	1.12847605036723
108099	1	stim013_animate_aquatic_shark_1.png	13	animate	aquatic	shark	1	0	3	boats	1	correct	1.12847605036723
108149	1	stim143_inanimate_furniture_bed_3.png	143	inanimate	furniture	bed	3	0	3	boats	1	correct	1.12847605036723
108199	1	stim066_animate_insect_bug_2.png	66	animate	insect	bug	2	0	3	boats	1	correct	1.12847605036723
108249	1	stim002_animate_aquatic_crab_2.png	2	animate	aquatic	crab	2	0	3	boats	1	correct	1.12847605036723
108299	1	stim075_animate_insect_dragonfly_3.png	75	animate	insect	dragonfly	3	0	3	boats	1	correct	1.12847605036723
108349	1	stim192_inanimate_tools_pan_4.png	192	inanimate	tools	pan	4	0	3	boats	1	correct	1.12847605036723
108399	1	stim100_animate_mammal_rhino_4.png	100	animate	mammal	rhino	4	0	3	boats	1	correct	1.12847605036723
108449	1	stim198_inanimate_tools_wrench_2.png	198	inanimate	tools	wrench	2	0	3	boats	1	correct	1.12847605036723
108499	1	stim097_animate_mammal_rhino_1.png	97	animate	mammal	rhino	1	0	3	boats	1	correct	1.12847605036723
108549	1	stim087_animate_mammal_giraffe_3.png	87	animate	mammal	giraffe	3	0	3	boats	1	correct	1.12847605036723
108599	1	stim036_animate_bird_peacock_4.png	36	animate	bird	peacock	4	0	3	boats	1	correct	1.12847605036723
108649	1	stim082_animate_mammal_cow_2.png	82	animate	mammal	cow	2	0	3	boats	1	correct	1.12847605036723
108699	1	stim180_inanimate_plants_tulip_4.png	180	inanimate	plants	tulip	4	0	3	boats	1	correct	1.12847605036723
108749	1	stim074_animate_insect_dragonfly_2.png	74	animate	insect	dragonfly	2	0	3	boats	1	correct	1.12847605036723
108799	1	stim128_inanimate_fruits_banana_4.png	128	inanimate	fruits	banana	4	0	3	boats	1	correct	1.12847605036723
108849	1	stim054_animate_human_faces_2.png	54	animate	human	faces	2	0	3	boats	1	correct	1.12847605036723
108899	1	stim188_inanimate_tools_hammer_4.png	188	inanimate	tools	hammer	4	0	3	boats	1	correct	1.12847605036723
108949	1	stim175_inanimate_plants_tree_3.png	175	inanimate	plants	tree	3	0	3	boats	1	correct	1.12847605036723
108999	1	stim166_inanimate_plants_cactus_2.png	166	inanimate	plants	cactus	2	0	3	boats	1	correct	1.12847605036723
109049	1	stim197_inanimate_tools_wrench_1.png	197	inanimate	tools	wrench	1	0	3	boats	1	correct	1.12847605036723
109099	1	stim177_inanimate_plants_tulip_1.png	177	inanimate	plants	tulip	1	0	3	boats	1	correct	1.12847605036723
109149	1	stim011_animate_aquatic_seahorse_3.png	11	animate	aquatic	seahorse	3	0	3	boats	1	correct	1.12847605036723
109199	1	stim067_animate_insect_bug_3.png	67	animate	insect	bug	3	0	3	boats	1	correct	1.12847605036723
109249	1	stim121_inanimate_fruits_apple_1.png	121	inanimate	fruits	apple	1	0	3	boats	1	correct	1.12847605036723
109299	1	stim019_animate_aquatic_shrimp_3.png	19	animate	aquatic	shrimp	3	0	3	boats	1	correct	1.12847605036723
109349	1	stim049_animate_human_clown_1.png	49	animate	human	clown	1	0	3	boats	1	correct	1.12847605036723
109399	1	stim043_animate_human_baby_3.png	43	animate	human	baby	3	0	3	boats	1	correct	1.12847605036723
109449	1	stim030_animate_bird_parrot_2.png	30	animate	bird	parrot	2	0	3	boats	1	correct	1.12847605036723
109499	1	stim125_inanimate_fruits_banana_1.png	125	inanimate	fruits	banana	1	0	3	boats	1	correct	1.12847605036723
109549	1	stim170_inanimate_plants_sunflower_2.png	170	inanimate	plants	sunflower	2	0	3	boats	1	correct	1.12847605036723
109599	1	stim064_animate_insect_ant_4.png	64	animate	insect	ant	4	0	3	boats	1	correct	1.12847605036723
109649	1	stim132_inanimate_fruits_grape_4.png	132	inanimate	fruits	grape	4	0	3	boats	1	correct	1.12847605036723
109699	1	stim055_animate_human_faces_3.png	55	animate	human	faces	3	0	3	boats	1	correct	1.12847605036723
109749	1	stim156_inanimate_furniture_sofa_4.png	156	inanimate	furniture	sofa	4	0	3	boats	1	correct	1.12847605036723
109799	1	stim047_animate_human_child_3.png	47	animate	human	child	3	0	3	boats	1	correct	1.12847605036723
109849	1	stim096_animate_mammal_monkey_4.png	96	animate	mammal	monkey	4	0	3	boats	1	correct	1.12847605036723
109899	1	stim126_inanimate_fruits_banana_2.png	126	inanimate	fruits	banana	2	0	3	boats	1	correct	1.12847605036723
109949	1	stim039_animate_bird_penguin_3.png	39	animate	bird	penguin	3	0	3	boats	1	correct	1.12847605036723
109999	1	stim123_inanimate_fruits_apple_3.png	123	inanimate	fruits	apple	3	0	3	boats	1	correct	1.12847605036723
110049	1	stim068_animate_insect_bug_4.png	68	animate	insect	bug	4	0	3	boats	1	correct	1.12847605036723
110099	1	stim027_animate_bird_duck_3.png	27	animate	bird	duck	3	0	3	boats	1	correct	1.12847605036723
110149	1	stim196_inanimate_tools_scissors_4.png	196	inanimate	tools	scissors	4	0	3	boats	1	correct	1.12847605036723
110199	1	stim071_animate_insect_butterfly_3.png	71	animate	insect	butterfly	3	0	3	boats	1	correct	1.12847605036723
110249	1	stim038_animate_bird_penguin_2.png	38	animate	bird	penguin	2	0	3	boats	1	correct	1.12847605036723
110299	1	stim102_inanimate_clothing_gloves_2.png	102	inanimate	clothing	gloves	2	0	3	boats	1	correct	1.12847605036723
110349	1	stim142_inanimate_furniture_bed_2.png	142	inanimate	furniture	bed	2	0	3	boats	1	correct	1.12847605036723
110399	1	stim200_inanimate_tools_wrench_4.png	200	inanimate	tools	wrench	4	0	3	boats	1	correct	1.12847605036723
110449	1	stim008_animate_aquatic_fish_4.png	8	animate	aquatic	fish	4	0	3	boats	1	correct	1.12847605036723
110499	1	stim116_inanimate_clothing_shirt_4.png	116	inanimate	clothing	shirt	4	0	3	boats	1	correct	1.12847605036723
110549	1	stim083_animate_mammal_cow_3.png	83	animate	mammal	cow	3	0	3	boats	1	correct	1.12847605036723
110599	1	stim061_animate_insect_ant_1.png	61	animate	insect	ant	1	0	3	boats	1	correct	1.12847605036723
110649	1	stim080_animate_insect_grasshopper_4.png	80	animate	insect	grasshopper	4	0	3	boats	1	correct	1.12847605036723
110699	1	stim033_animate_bird_peacock_1.png	33	animate	bird	peacock	1	0	3	boats	1	correct	1.12847605036723
110749	1	stim041_animate_human_baby_1.png	41	animate	human	baby	1	0	3	boats	1	correct	1.12847605036723
110799	1	stim119_inanimate_clothing_socks_3.png	119	inanimate	clothing	socks	3	0	3	boats	1	correct	1.12847605036723
110849	1	stim178_inanimate_plants_tulip_2.png	178	inanimate	plants	tulip	2	0	3	boats	1	correct	1.12847605036723
110899	1	stim108_inanimate_clothing_hat_4.png	108	inanimate	clothing	hat	4	0	3	boats	1	correct	1.12847605036723
110949	1	stim022_animate_bird_chicken_2.png	22	animate	bird	chicken	2	0	3	boats	1	correct	1.12847605036723
110999	1	stim037_animate_bird_penguin_1.png	37	animate	bird	penguin	1	0	3	boats	1	correct	1.12847605036723
111049	1	stim025_animate_bird_duck_1.png	25	animate	bird	duck	1	0	3	boats	1	correct	1.12847605036723
111099	1	stim146_inanimate_furniture_chair_2.png	146	inanimate	furniture	chair	2	0	3	boats	1	correct	1.12847605036723
111149	1	stim076_animate_insect_dragonfly_4.png	76	animate	insect	dragonfly	4	0	3	boats	1	correct	1.12847605036723
111199	1	stim034_animate_bird_peacock_2.png	34	animate	bird	peacock	2	0	3	boats	1	correct	1.12847605036723
111249	1	stim173_inanimate_plants_tree_1.png	173	inanimate	plants	tree	1	0	3	boats	1	correct	1.12847605036723
111299	1	stim001_animate_aquatic_crab_1.png	1	animate	aquatic	crab	1	0	3	boats	1	correct	1.12847605036723
111349	1	stim138_inanimate_fruits_strawberry_2.png	138	inanimate	fruits	strawberry	2	0	3	boats	1	correct	1.12847605036723
111399	1	stim136_inanimate_fruits_pineapple_4.png	136	inanimate	fruits	pineapple	4	0	3	boats	1	correct	1.12847605036723
111449	1	stim110_inanimate_clothing_jeans_2.png	110	inanimate	clothing	jeans	2	0	3	boats	1	correct	1.12847605036723
111499	1	stim095_animate_mammal_monkey_3.png	95	animate	mammal	monkey	3	0	3	boats	1	correct	1.12847605036723
111549	1	stim045_animate_human_child_1.png	45	animate	human	child	1	0	3	boats	1	correct	1.12847605036723
111599	1	stim093_animate_mammal_monkey_1.png	93	animate	mammal	monkey	1	0	3	boats	1	correct	1.12847605036723
111649	1	stim150_inanimate_furniture_closet_2.png	150	inanimate	furniture	closet	2	0	3	boats	1	correct	1.12847605036723
111699	1	stim144_inanimate_furniture_bed_4.png	144	inanimate	furniture	bed	4	0	3	boats	1	correct	1.12847605036723
111749	1	stim028_animate_bird_duck_4.png	28	animate	bird	duck	4	0	3	boats	1	correct	1.12847605036723
111799	1	stim141_inanimate_furniture_bed_1.png	141	inanimate	furniture	bed	1	0	3	boats	1	correct	1.12847605036723
111849	1	stim090_animate_mammal_kangaroo_2.png	90	animate	mammal	kangaroo	2	0	3	boats	1	correct	1.12847605036723
111899	1	stim091_animate_mammal_kangaroo_3.png	91	animate	mammal	kangaroo	3	0	3	boats	1	correct	1.12847605036723
111949	1	stim006_animate_aquatic_fish_2.png	6	animate	aquatic	fish	2	0	3	boats	1	correct	1.12847605036723
111999	1	stim118_inanimate_clothing_socks_2.png	118	inanimate	clothing	socks	2	0	3	boats	1	correct	1.12847605036723
112049	1	stim122_inanimate_fruits_apple_2.png	122	inanimate	fruits	apple	2	0	3	boats	1	correct	1.12847605036723
112099	1	stim193_inanimate_tools_scissors_1.png	193	inanimate	tools	scissors	1	0	3	boats	1	correct	1.12847605036723
112149	1	stim057_animate_human_sports_1.png	57	animate	human	sports	1	0	3	boats	1	correct	1.12847605036723
112199	1	stim155_inanimate_furniture_sofa_3.png	155	inanimate	furniture	sofa	3	0	3	boats	1	correct	1.12847605036723
112249	1	stim084_animate_mammal_cow_4.png	84	animate	mammal	cow	4	0	3	boats	1	correct	1.12847605036723
112299	1	stim086_animate_mammal_giraffe_2.png	86	animate	mammal	giraffe	2	0	3	boats	1	correct	1.12847605036723
112349	1	stim053_animate_human_faces_1.png	53	animate	human	faces	1	0	3	boats	1	correct	1.12847605036723
112399	1	stim107_inanimate_clothing_hat_3.png	107	inanimate	clothing	hat	3	0	3	boats	1	correct	1.12847605036723
112449	1	stim021_animate_bird_chicken_1.png	21	animate	bird	chicken	1	0	3	boats	1	correct	1.12847605036723
112499	1	stim202_targets_object_boats_2.png	202	targets	object	boats	2	1	3	boats	1	correct	1.12847605036723
112549	1	stim059_animate_human_sports_3.png	59	animate	human	sports	3	0	3	boats	1	correct	1.12847605036723
112599	1	stim023_animate_bird_chicken_3.png	23	animate	bird	chicken	3	0	3	boats	1	correct	1.12847605036723
112649	1	stim183_inanimate_tools_broom_3.png	183	inanimate	tools	broom	3	0	3	boats	1	correct	1.12847605036723
112699	1	stim184_inanimate_tools_broom_4.png	184	inanimate	tools	broom	4	0	3	boats	1	correct	1.12847605036723
112749	1	stim199_inanimate_tools_wrench_3.png	199	inanimate	tools	wrench	3	0	3	boats	1	correct	1.12847605036723
112799	1	stim085_animate_mammal_giraffe_1.png	85	animate	mammal	giraffe	1	0	3	boats	1	correct	1.12847605036723
112849	1	stim031_animate_bird_parrot_3.png	31	animate	bird	parrot	3	0	3	boats	1	correct	1.12847605036723
112899	1	stim099_animate_mammal_rhino_3.png	99	animate	mammal	rhino	3	0	3	boats	1	correct	1.12847605036723
112949	1	stim185_inanimate_tools_hammer_1.png	185	inanimate	tools	hammer	1	0	3	boats	1	correct	1.12847605036723
112999	1	stim117_inanimate_clothing_socks_1.png	117	inanimate	clothing	socks	1	0	3	boats	1	correct	1.12847605036723
113049	1	stim176_inanimate_plants_tree_4.png	176	inanimate	plants	tree	4	0	3	boats	1	correct	1.12847605036723
113099	1	stim092_animate_mammal_kangaroo_4.png	92	animate	mammal	kangaroo	4	0	3	boats	1	correct	1.12847605036723
113149	1	stim088_animate_mammal_giraffe_4.png	88	animate	mammal	giraffe	4	0	3	boats	1	correct	1.12847605036723
113199	1	stim115_inanimate_clothing_shirt_3.png	115	inanimate	clothing	shirt	3	0	3	boats	1	correct	1.12847605036723
113249	1	stim017_animate_aquatic_shrimp_1.png	17	animate	aquatic	shrimp	1	0	3	boats	1	correct	1.12847605036723
113299	1	stim164_inanimate_plants_bush_4.png	164	inanimate	plants	bush	4	0	3	boats	1	correct	1.12847605036723
113349	1	stim134_inanimate_fruits_pineapple_2.png	134	inanimate	fruits	pineapple	2	0	3	boats	1	correct	1.12847605036723
113399	1	stim070_animate_insect_butterfly_2.png	70	animate	insect	butterfly	2	0	3	boats	1	correct	1.12847605036723
113449	1	stim073_animate_insect_dragonfly_1.png	73	animate	insect	dragonfly	1	0	3	boats	1	correct	1.12847605036723
113499	1	stim079_animate_insect_grasshopper_3.png	79	animate	insect	grasshopper	3	0	3	boats	1	correct	1.12847605036723
113549	1	stim131_inanimate_fruits_grape_3.png	131	inanimate	fruits	grape	3	0	3	boats	1	correct	1.12847605036723
113599	1	stim062_animate_insect_ant_2.png	62	animate	insect	ant	2	0	3	boats	1	correct	1.12847605036723
113649	1	stim094_animate_mammal_monkey_2.png	94	animate	mammal	monkey	2	0	3	boats	1	correct	1.12847605036723
113699	1	stim112_inanimate_clothing_jeans_4.png	112	inanimate	clothing	jeans	4	0	3	boats	1	correct	1.12847605036723
113749	1	stim167_inanimate_plants_cactus_3.png	167	inanimate	plants	cactus	3	0	3	boats	1	correct	1.12847605036723
113799	1	stim174_inanimate_plants_tree_2.png	174	inanimate	plants	tree	2	0	3	boats	1	correct	1.12847605036723
113849	1	stim165_inanimate_plants_cactus_1.png	165	inanimate	plants	cactus	1	0	3	boats	1	correct	1.12847605036723
113899	1	stim145_inanimate_furniture_chair_1.png	145	inanimate	furniture	chair	1	0	3	boats	1	correct	1.12847605036723
113949	1	stim072_animate_insect_butterfly_4.png	72	animate	insect	butterfly	4	0	3	boats	1	correct	1.12847605036723
113999	1	stim113_inanimate_clothing_shirt_1.png	113	inanimate	clothing	shirt	1	0	3	boats	1	correct	1.12847605036723
114049	1	stim069_animate_insect_butterfly_1.png	69	animate	insect	butterfly	1	0	3	boats	1	correct	1.12847605036723
114099	1	stim187_inanimate_tools_hammer_3.png	187	inanimate	tools	hammer	3	0	3	boats	1	correct	1.12847605036723
114149	1	stim015_animate_aquatic_shark_3.png	15	animate	aquatic	shark	3	0	3	boats	1	correct	1.12847605036723
114199	1	stim078_animate_insect_grasshopper_2.png	78	animate	insect	grasshopper	2	0	3	boats	1	correct	1.12847605036723
114249	1	stim158_inanimate_furniture_table_2.png	158	inanimate	furniture	table	2	0	3	boats	1	correct	1.12847605036723
114299	1	stim182_inanimate_tools_broom_2.png	182	inanimate	tools	broom	2	0	3	boats	1	correct	1.12847605036723
114349	1	stim137_inanimate_fruits_strawberry_1.png	137	inanimate	fruits	strawberry	1	0	3	boats	1	correct	1.12847605036723
114399	1	stim130_inanimate_fruits_grape_2.png	130	inanimate	fruits	grape	2	0	3	boats	1	correct	1.12847605036723
114449	1	stim058_animate_human_sports_2.png	58	animate	human	sports	2	0	3	boats	1	correct	1.12847605036723
114499	1	stim186_inanimate_tools_hammer_2.png	186	inanimate	tools	hammer	2	0	3	boats	1	correct	1.12847605036723
114549	1	stim014_animate_aquatic_shark_2.png	14	animate	aquatic	shark	2	0	3	boats	1	correct	1.12847605036723
114599	1	stim159_inanimate_furniture_table_3.png	159	inanimate	furniture	table	3	0	3	boats	1	correct	1.12847605036723
114649	1	stim153_inanimate_furniture_sofa_1.png	153	inanimate	furniture	sofa	1	0	3	boats	1	correct	1.12847605036723
114699	1	stim133_inanimate_fruits_pineapple_1.png	133	inanimate	fruits	pineapple	1	0	3	boats	1	correct	1.12847605036723
114749	1	stim026_animate_bird_duck_2.png	26	animate	bird	duck	2	0	3	boats	1	correct	1.12847605036723
114799	1	stim111_inanimate_clothing_jeans_3.png	111	inanimate	clothing	jeans	3	0	3	boats	1	correct	1.12847605036723
114849	1	stim162_inanimate_plants_bush_2.png	162	inanimate	plants	bush	2	0	3	boats	1	correct	1.12847605036723
114899	1	stim024_animate_bird_chicken_4.png	24	animate	bird	chicken	4	0	3	boats	1	correct	1.12847605036723
114949	1	stim194_inanimate_tools_scissors_2.png	194	inanimate	tools	scissors	2	0	3	boats	1	correct	1.12847605036723
114999	1	stim040_animate_bird_penguin_4.png	40	animate	bird	penguin	4	0	3	boats	1	correct	1.12847605036723
115049	1	stim147_inanimate_furniture_chair_3.png	147	inanimate	furniture	chair	3	0	3	boats	1	correct	1.12847605036723
115099	1	stim020_animate_aquatic_shrimp_4.png	20	animate	aquatic	shrimp	4	0	3	boats	1	correct	1.12847605036723
115149	1	stim161_inanimate_plants_bush_1.png	161	inanimate	plants	bush	1	0	3	boats	1	correct	1.12847605036723
115199	1	stim003_animate_aquatic_crab_3.png	3	animate	aquatic	crab	3	0	3	boats	1	correct	1.12847605036723
115249	1	stim035_animate_bird_peacock_3.png	35	animate	bird	peacock	3	0	3	boats	1	correct	1.12847605036723
115299	1	stim005_animate_aquatic_fish_1.png	5	animate	aquatic	fish	1	0	3	boats	1	correct	1.12847605036723
115349	1	stim048_animate_human_child_4.png	48	animate	human	child	4	0	3	boats	1	correct	1.12847605036723
115399	1	stim129_inanimate_fruits_grape_1.png	129	inanimate	fruits	grape	1	0	3	boats	1	correct	1.12847605036723
115449	1	stim109_inanimate_clothing_jeans_1.png	109	inanimate	clothing	jeans	1	0	3	boats	1	correct	1.12847605036723
115499	1	stim105_inanimate_clothing_hat_1.png	105	inanimate	clothing	hat	1	0	3	boats	1	correct	1.12847605036723
115549	1	stim140_inanimate_fruits_strawberry_4.png	140	inanimate	fruits	strawberry	4	0	3	boats	1	correct	1.12847605036723
115599	1	stim181_inanimate_tools_broom_1.png	181	inanimate	tools	broom	1	0	3	boats	1	correct	1.12847605036723
115649	1	stim179_inanimate_plants_tulip_3.png	179	inanimate	plants	tulip	3	0	3	boats	1	correct	1.12847605036723
115699	1	stim163_inanimate_plants_bush_3.png	163	inanimate	plants	bush	3	0	3	boats	1	correct	1.12847605036723
115749	1	stim063_animate_insect_ant_3.png	63	animate	insect	ant	3	0	3	boats	1	correct	1.12847605036723
115799	1	stim077_animate_insect_grasshopper_1.png	77	animate	insect	grasshopper	1	0	3	boats	1	correct	1.12847605036723
115849	1	stim012_animate_aquatic_seahorse_4.png	12	animate	aquatic	seahorse	4	0	3	boats	1	correct	1.12847605036723
115899	1	stim007_animate_aquatic_fish_3.png	7	animate	aquatic	fish	3	0	3	boats	1	correct	1.12847605036723
115949	1	stim044_animate_human_baby_4.png	44	animate	human	baby	4	0	3	boats	1	correct	1.12847605036723
115999	1	stim004_animate_aquatic_crab_4.png	4	animate	aquatic	crab	4	0	3	boats	1	correct	1.12847605036723
116049	1	stim171_inanimate_plants_sunflower_3.png	171	inanimate	plants	sunflower	3	0	3	boats	1	correct	1.12847605036723
116099	1	stim106_inanimate_clothing_hat_2.png	106	inanimate	clothing	hat	2	0	3	boats	1	correct	1.12847605036723
116149	1	stim032_animate_bird_parrot_4.png	32	animate	bird	parrot	4	0	3	boats	1	correct	1.12847605036723
116199	1	stim056_animate_human_faces_4.png	56	animate	human	faces	4	0	3	boats	1	correct	1.12847605036723
116249	1	stim114_inanimate_clothing_shirt_2.png	114	inanimate	clothing	shirt	2	0	3	boats	1	correct	1.12847605036723
116299	1	stim060_animate_human_sports_4.png	60	animate	human	sports	4	0	3	boats	1	correct	1.12847605036723
116349	1	stim029_animate_bird_parrot_1.png	29	animate	bird	parrot	1	0	3	boats	1	correct	1.12847605036723
116399	1	stim191_inanimate_tools_pan_3.png	191	inanimate	tools	pan	3	0	3	boats	1	correct	1.12847605036723
116449	1	stim009_animate_aquatic_seahorse_1.png	9	animate	aquatic	seahorse	1	0	3	boats	1	correct	1.12847605036723
116499	1	stim190_inanimate_tools_pan_2.png	190	inanimate	tools	pan	2	0	3	boats	1	correct	1.12847605036723
116549	1	stim189_inanimate_tools_pan_1.png	189	inanimate	tools	pan	1	0	3	boats	1	correct	1.12847605036723
116599	1	stim157_inanimate_furniture_table_1.png	157	inanimate	furniture	table	1	0	3	boats	1	correct	1.12847605036723
116649	1	stim065_animate_insect_bug_1.png	65	animate	insect	bug	1	0	3	boats	1	correct	1.12847605036723
116699	1	stim169_inanimate_plants_sunflower_1.png	169	inanimate	plants	sunflower	1	0	3	boats	1	correct	1.12847605036723
116749	1	stim016_animate_aquatic_shark_4.png	16	animate	aquatic	shark	4	0	3	boats	1	correct	1.12847605036723
116799	1	stim148_inanimate_furniture_chair_4.png	148	inanimate	furniture	chair	4	0	3	boats	1	correct	1.12847605036723
116849	1	stim151_inanimate_furniture_closet_3.png	151	inanimate	furniture	closet	3	0	3	boats	1	correct	1.12847605036723
116899	1	stim051_animate_human_clown_3.png	51	animate	human	clown	3	0	3	boats	1	correct	1.12847605036723
116949	1	stim081_animate_mammal_cow_1.png	81	animate	mammal	cow	1	0	3	boats	1	correct	1.12847605036723
116999	1	stim042_animate_human_baby_2.png	42	animate	human	baby	2	0	3	boats	1	correct	1.12847605036723
117049	1	stim120_inanimate_clothing_socks_4.png	120	inanimate	clothing	socks	4	0	3	boats	1	correct	1.12847605036723
117099	1	stim168_inanimate_plants_cactus_4.png	168	inanimate	plants	cactus	4	0	3	boats	1	correct	1.12847605036723
117149	1	stim046_animate_human_child_2.png	46	animate	human	child	2	0	3	boats	1	correct	1.12847605036723
117199	1	stim103_inanimate_clothing_gloves_3.png	103	inanimate	clothing	gloves	3	0	3	boats	1	correct	1.12847605036723
117249	1	stim101_inanimate_clothing_gloves_1.png	101	inanimate	clothing	gloves	1	0	3	boats	1	correct	1.12847605036723
117299	1	stim124_inanimate_fruits_apple_4.png	124	inanimate	fruits	apple	4	0	3	boats	1	correct	1.12847605036723
117349	1	stim104_inanimate_clothing_gloves_4.png	104	inanimate	clothing	gloves	4	0	3	boats	1	correct	1.12847605036723
117399	1	stim135_inanimate_fruits_pineapple_3.png	135	inanimate	fruits	pineapple	3	0	3	boats	1	correct	1.12847605036723
117449	1	stim160_inanimate_furniture_table_4.png	160	inanimate	furniture	table	4	0	3	boats	1	correct	1.12847605036723
117499	1	stim127_inanimate_fruits_banana_3.png	127	inanimate	fruits	banana	3	0	3	boats	1	correct	1.12847605036723
117549	1	stim149_inanimate_furniture_closet_1.png	149	inanimate	furniture	closet	1	0	3	boats	1	correct	1.12847605036723
117599	1	stim052_animate_human_clown_4.png	52	animate	human	clown	4	0	3	boats	1	correct	1.12847605036723
117649	1	stim152_inanimate_furniture_closet_4.png	152	inanimate	furniture	closet	4	0	3	boats	1	correct	1.12847605036723
117699	1	stim050_animate_human_clown_2.png	50	animate	human	clown	2	0	3	boats	1	correct	1.12847605036723
117749	1	stim154_inanimate_furniture_sofa_2.png	154	inanimate	furniture	sofa	2	0	3	boats	1	correct	1.12847605036723
117799	1	stim172_inanimate_plants_sunflower_4.png	172	inanimate	plants	sunflower	4	0	3	boats	1	correct	1.12847605036723
117849	1	stim098_animate_mammal_rhino_2.png	98	animate	mammal	rhino	2	0	3	boats	1	correct	1.12847605036723
117899	1	stim195_inanimate_tools_scissors_3.png	195	inanimate	tools	scissors	3	0	3	boats	1	correct	1.12847605036723
117949	1	stim089_animate_mammal_kangaroo_1.png	89	animate	mammal	kangaroo	1	0	3	boats	1	correct	1.12847605036723
117999	1	stim018_animate_aquatic_shrimp_2.png	18	animate	aquatic	shrimp	2	0	3	boats	1	correct	1.12847605036723
122766	1	stim014_animate_aquatic_shark_2.png	14	animate	aquatic	shark	2	0	4	boats	3	correct	1.18117007016372
122816	1	stim043_animate_human_baby_3.png	43	animate	human	baby	3	0	4	boats	3	correct	1.18117007016372
122866	1	stim002_animate_aquatic_crab_2.png	2	animate	aquatic	crab	2	0	4	boats	3	correct	1.18117007016372
122916	1	stim076_animate_insect_dragonfly_4.png	76	animate	insect	dragonfly	4	0	4	boats	3	correct	1.18117007016372
122966	1	stim023_animate_bird_chicken_3.png	23	animate	bird	chicken	3	0	4	boats	3	correct	1.18117007016372
123016	1	stim184_inanimate_tools_broom_4.png	184	inanimate	tools	broom	4	0	4	boats	3	correct	1.18117007016372
123066	1	stim173_inanimate_plants_tree_1.png	173	inanimate	plants	tree	1	0	4	boats	3	correct	1.18117007016372
123116	1	stim101_inanimate_clothing_gloves_1.png	101	inanimate	clothing	gloves	1	0	4	boats	3	correct	1.18117007016372
123166	1	stim024_animate_bird_chicken_4.png	24	animate	bird	chicken	4	0	4	boats	3	correct	1.18117007016372
123216	1	stim015_animate_aquatic_shark_3.png	15	animate	aquatic	shark	3	0	4	boats	3	correct	1.18117007016372
123266	1	stim064_animate_insect_ant_4.png	64	animate	insect	ant	4	0	4	boats	3	correct	1.18117007016372
123316	1	stim190_inanimate_tools_pan_2.png	190	inanimate	tools	pan	2	0	4	boats	3	correct	1.18117007016372
123366	1	stim191_inanimate_tools_pan_3.png	191	inanimate	tools	pan	3	0	4	boats	3	correct	1.18117007016372
123416	1	stim063_animate_insect_ant_3.png	63	animate	insect	ant	3	0	4	boats	3	correct	1.18117007016372
123466	1	stim189_inanimate_tools_pan_1.png	189	inanimate	tools	pan	1	0	4	boats	3	correct	1.18117007016372
123516	1	stim052_animate_human_clown_4.png	52	animate	human	clown	4	0	4	boats	3	correct	1.18117007016372
123566	1	stim135_inanimate_fruits_pineapple_3.png	135	inanimate	fruits	pineapple	3	0	4	boats	3	correct	1.18117007016372
123616	1	stim096_animate_mammal_monkey_4.png	96	animate	mammal	monkey	4	0	4	boats	3	correct	1.18117007016372
123666	1	stim025_animate_bird_duck_1.png	25	animate	bird	duck	1	0	4	boats	3	correct	1.18117007016372
123716	1	stim032_animate_bird_parrot_4.png	32	animate	bird	parrot	4	0	4	boats	3	correct	1.18117007016372
123766	1	stim166_inanimate_plants_cactus_2.png	166	inanimate	plants	cactus	2	0	4	boats	3	correct	1.18117007016372
123816	1	stim177_inanimate_plants_tulip_1.png	177	inanimate	plants	tulip	1	0	4	boats	3	correct	1.18117007016372
123866	1	stim138_inanimate_fruits_strawberry_2.png	138	inanimate	fruits	strawberry	2	0	4	boats	3	correct	1.18117007016372
123916	1	stim118_inanimate_clothing_socks_2.png	118	inanimate	clothing	socks	2	0	4	boats	3	correct	1.18117007016372
123966	1	stim044_animate_human_baby_4.png	44	animate	human	baby	4	0	4	boats	3	correct	1.18117007016372
124016	1	stim172_inanimate_plants_sunflower_4.png	172	inanimate	plants	sunflower	4	0	4	boats	3	correct	1.18117007016372
124066	1	stim036_animate_bird_peacock_4.png	36	animate	bird	peacock	4	0	4	boats	3	correct	1.18117007016372
124116	1	stim125_inanimate_fruits_banana_1.png	125	inanimate	fruits	banana	1	0	4	boats	3	correct	1.18117007016372
124166	1	stim110_inanimate_clothing_jeans_2.png	110	inanimate	clothing	jeans	2	0	4	boats	3	correct	1.18117007016372
124216	1	stim040_animate_bird_penguin_4.png	40	animate	bird	penguin	4	0	4	boats	3	correct	1.18117007016372
124266	1	stim105_inanimate_clothing_hat_1.png	105	inanimate	clothing	hat	1	0	4	boats	3	correct	1.18117007016372
124316	1	stim169_inanimate_plants_sunflower_1.png	169	inanimate	plants	sunflower	1	0	4	boats	3	correct	1.18117007016372
124366	1	stim005_animate_aquatic_fish_1.png	5	animate	aquatic	fish	1	0	4	boats	3	correct	1.18117007016372
124416	1	stim104_inanimate_clothing_gloves_4.png	104	inanimate	clothing	gloves	4	0	4	boats	3	correct	1.18117007016372
124466	1	stim145_inanimate_furniture_chair_1.png	145	inanimate	furniture	chair	1	0	4	boats	3	correct	1.18117007016372
124516	1	stim178_inanimate_plants_tulip_2.png	178	inanimate	plants	tulip	2	0	4	boats	3	correct	1.18117007016372
124566	1	stim179_inanimate_plants_tulip_3.png	179	inanimate	plants	tulip	3	0	4	boats	3	correct	1.18117007016372
124616	1	stim123_inanimate_fruits_apple_3.png	123	inanimate	fruits	apple	3	0	4	boats	3	correct	1.18117007016372
124666	1	stim126_inanimate_fruits_banana_2.png	126	inanimate	fruits	banana	2	0	4	boats	3	correct	1.18117007016372
124716	1	stim077_animate_insect_grasshopper_1.png	77	animate	insect	grasshopper	1	0	4	boats	3	correct	1.18117007016372
124766	1	stim069_animate_insect_butterfly_1.png	69	animate	insect	butterfly	1	0	4	boats	3	correct	1.18117007016372
124816	1	stim124_inanimate_fruits_apple_4.png	124	inanimate	fruits	apple	4	0	4	boats	3	correct	1.18117007016372
124866	1	stim016_animate_aquatic_shark_4.png	16	animate	aquatic	shark	4	0	4	boats	3	correct	1.18117007016372
124916	1	stim142_inanimate_furniture_bed_2.png	142	inanimate	furniture	bed	2	0	4	boats	3	correct	1.18117007016372
124966	1	stim133_inanimate_fruits_pineapple_1.png	133	inanimate	fruits	pineapple	1	0	4	boats	3	correct	1.18117007016372
125016	1	stim134_inanimate_fruits_pineapple_2.png	134	inanimate	fruits	pineapple	2	0	4	boats	3	correct	1.18117007016372
125066	1	stim020_animate_aquatic_shrimp_4.png	20	animate	aquatic	shrimp	4	0	4	boats	3	correct	1.18117007016372
125116	1	stim087_animate_mammal_giraffe_3.png	87	animate	mammal	giraffe	3	0	4	boats	3	correct	1.18117007016372
125166	1	stim047_animate_human_child_3.png	47	animate	human	child	3	0	4	boats	3	correct	1.18117007016372
125216	1	stim001_animate_aquatic_crab_1.png	1	animate	aquatic	crab	1	0	4	boats	3	correct	1.18117007016372
125266	1	stim071_animate_insect_butterfly_3.png	71	animate	insect	butterfly	3	0	4	boats	3	correct	1.18117007016372
125316	1	stim203_targets_object_boats_3.png	203	targets	object	boats	3	1	4	boats	3	correct	1.18117007016372
125366	1	stim059_animate_human_sports_3.png	59	animate	human	sports	3	0	4	boats	3	correct	1.18117007016372
125416	1	stim080_animate_insect_grasshopper_4.png	80	animate	insect	grasshopper	4	0	4	boats	3	correct	1.18117007016372
125466	1	stim095_animate_mammal_monkey_3.png	95	animate	mammal	monkey	3	0	4	boats	3	correct	1.18117007016372
125516	1	stim022_animate_bird_chicken_2.png	22	animate	bird	chicken	2	0	4	boats	3	correct	1.18117007016372
125566	1	stim153_inanimate_furniture_sofa_1.png	153	inanimate	furniture	sofa	1	0	4	boats	3	correct	1.18117007016372
125616	1	stim010_animate_aquatic_seahorse_2.png	10	animate	aquatic	seahorse	2	0	4	boats	3	correct	1.18117007016372
125666	1	stim060_animate_human_sports_4.png	60	animate	human	sports	4	0	4	boats	3	correct	1.18117007016372
125716	1	stim146_inanimate_furniture_chair_2.png	146	inanimate	furniture	chair	2	0	4	boats	3	correct	1.18117007016372
125766	1	stim012_animate_aquatic_seahorse_4.png	12	animate	aquatic	seahorse	4	0	4	boats	3	correct	1.18117007016372
125816	1	stim067_animate_insect_bug_3.png	67	animate	insect	bug	3	0	4	boats	3	correct	1.18117007016372
125866	1	stim119_inanimate_clothing_socks_3.png	119	inanimate	clothing	socks	3	0	4	boats	3	correct	1.18117007016372
125916	1	stim013_animate_aquatic_shark_1.png	13	animate	aquatic	shark	1	0	4	boats	3	correct	1.18117007016372
125966	1	stim003_animate_aquatic_crab_3.png	3	animate	aquatic	crab	3	0	4	boats	3	correct	1.18117007016372
126016	1	stim084_animate_mammal_cow_4.png	84	animate	mammal	cow	4	0	4	boats	3	correct	1.18117007016372
126066	1	stim046_animate_human_child_2.png	46	animate	human	child	2	0	4	boats	3	correct	1.18117007016372
126116	1	stim109_inanimate_clothing_jeans_1.png	109	inanimate	clothing	jeans	1	0	4	boats	3	correct	1.18117007016372
126166	1	stim089_animate_mammal_kangaroo_1.png	89	animate	mammal	kangaroo	1	0	4	boats	3	correct	1.18117007016372
126216	1	stim160_inanimate_furniture_table_4.png	160	inanimate	furniture	table	4	0	4	boats	3	correct	1.18117007016372
126266	1	stim175_inanimate_plants_tree_3.png	175	inanimate	plants	tree	3	0	4	boats	3	correct	1.18117007016372
126316	1	stim186_inanimate_tools_hammer_2.png	186	inanimate	tools	hammer	2	0	4	boats	3	correct	1.18117007016372
126366	1	stim159_inanimate_furniture_table_3.png	159	inanimate	furniture	table	3	0	4	boats	3	correct	1.18117007016372
126416	1	stim097_animate_mammal_rhino_1.png	97	animate	mammal	rhino	1	0	4	boats	3	correct	1.18117007016372
126466	1	stim078_animate_insect_grasshopper_2.png	78	animate	insect	grasshopper	2	0	4	boats	3	correct	1.18117007016372
126516	1	stim056_animate_human_faces_4.png	56	animate	human	faces	4	0	4	boats	3	correct	1.18117007016372
126566	1	stim090_animate_mammal_kangaroo_2.png	90	animate	mammal	kangaroo	2	0	4	boats	3	correct	1.18117007016372
126616	1	stim174_inanimate_plants_tree_2.png	174	inanimate	plants	tree	2	0	4	boats	3	correct	1.18117007016372
126666	1	stim111_inanimate_clothing_jeans_3.png	111	inanimate	clothing	jeans	3	0	4	boats	3	correct	1.18117007016372
126716	1	stim030_animate_bird_parrot_2.png	30	animate	bird	parrot	2	0	4	boats	3	correct	1.18117007016372
126766	1	stim039_animate_bird_penguin_3.png	39	animate	bird	penguin	3	0	4	boats	3	correct	1.18117007016372
126816	1	stim164_inanimate_plants_bush_4.png	164	inanimate	plants	bush	4	0	4	boats	3	correct	1.18117007016372
126866	1	stim116_inanimate_clothing_shirt_4.png	116	inanimate	clothing	shirt	4	0	4	boats	3	correct	1.18117007016372
126916	1	stim086_animate_mammal_giraffe_2.png	86	animate	mammal	giraffe	2	0	4	boats	3	correct	1.18117007016372
126966	1	stim088_animate_mammal_giraffe_4.png	88	animate	mammal	giraffe	4	0	4	boats	3	correct	1.18117007016372
127016	1	stim117_inanimate_clothing_socks_1.png	117	inanimate	clothing	socks	1	0	4	boats	3	correct	1.18117007016372
127066	1	stim038_animate_bird_penguin_2.png	38	animate	bird	penguin	2	0	4	boats	3	correct	1.18117007016372
127116	1	stim061_animate_insect_ant_1.png	61	animate	insect	ant	1	0	4	boats	3	correct	1.18117007016372
127166	1	stim149_inanimate_furniture_closet_1.png	149	inanimate	furniture	closet	1	0	4	boats	3	correct	1.18117007016372
127216	1	stim007_animate_aquatic_fish_3.png	7	animate	aquatic	fish	3	0	4	boats	3	correct	1.18117007016372
127266	1	stim196_inanimate_tools_scissors_4.png	196	inanimate	tools	scissors	4	0	4	boats	3	correct	1.18117007016372
127316	1	stim114_inanimate_clothing_shirt_2.png	114	inanimate	clothing	shirt	2	0	4	boats	3	correct	1.18117007016372
127366	1	stim122_inanimate_fruits_apple_2.png	122	inanimate	fruits	apple	2	0	4	boats	3	correct	1.18117007016372
127416	1	stim099_animate_mammal_rhino_3.png	99	animate	mammal	rhino	3	0	4	boats	3	correct	1.18117007016372
127466	1	stim132_inanimate_fruits_grape_4.png	132	inanimate	fruits	grape	4	0	4	boats	3	correct	1.18117007016372
127516	1	stim027_animate_bird_duck_3.png	27	animate	bird	duck	3	0	4	boats	3	correct	1.18117007016372
127566	1	stim148_inanimate_furniture_chair_4.png	148	inanimate	furniture	chair	4	0	4	boats	3	correct	1.18117007016372
127616	1	stim171_inanimate_plants_sunflower_3.png	171	inanimate	plants	sunflower	3	0	4	boats	3	correct	1.18117007016372
127666	1	stim193_inanimate_tools_scissors_1.png	193	inanimate	tools	scissors	1	0	4	boats	3	correct	1.18117007016372
127716	1	stim017_animate_aquatic_shrimp_1.png	17	animate	aquatic	shrimp	1	0	4	boats	3	correct	1.18117007016372
127766	1	stim057_animate_human_sports_1.png	57	animate	human	sports	1	0	4	boats	3	correct	1.18117007016372
127816	1	stim018_animate_aquatic_shrimp_2.png	18	animate	aquatic	shrimp	2	0	4	boats	3	correct	1.18117007016372
127866	1	stim152_inanimate_furniture_closet_4.png	152	inanimate	furniture	closet	4	0	4	boats	3	correct	1.18117007016372
127916	1	stim028_animate_bird_duck_4.png	28	animate	bird	duck	4	0	4	boats	3	correct	1.18117007016372
127966	1	stim094_animate_mammal_monkey_2.png	94	animate	mammal	monkey	2	0	4	boats	3	correct	1.18117007016372
128016	1	stim154_inanimate_furniture_sofa_2.png	154	inanimate	furniture	sofa	2	0	4	boats	3	correct	1.18117007016372
128066	1	stim208_targets_object_boats_4.png	208	targets	object	boats	4	1	4	boats	3	correct	1.18117007016372
128116	1	stim161_inanimate_plants_bush_1.png	161	inanimate	plants	bush	1	0	4	boats	3	correct	1.18117007016372
128166	1	stim070_animate_insect_butterfly_2.png	70	animate	insect	butterfly	2	0	4	boats	3	correct	1.18117007016372
128216	1	stim130_inanimate_fruits_grape_2.png	130	inanimate	fruits	grape	2	0	4	boats	3	correct	1.18117007016372
128266	1	stim011_animate_aquatic_seahorse_3.png	11	animate	aquatic	seahorse	3	0	4	boats	3	correct	1.18117007016372
128316	1	stim198_inanimate_tools_wrench_2.png	198	inanimate	tools	wrench	2	0	4	boats	3	correct	1.18117007016372
128366	1	stim158_inanimate_furniture_table_2.png	158	inanimate	furniture	table	2	0	4	boats	3	correct	1.18117007016372
128416	1	stim176_inanimate_plants_tree_4.png	176	inanimate	plants	tree	4	0	4	boats	3	correct	1.18117007016372
128466	1	stim055_animate_human_faces_3.png	55	animate	human	faces	3	0	4	boats	3	correct	1.18117007016372
128516	1	stim181_inanimate_tools_broom_1.png	181	inanimate	tools	broom	1	0	4	boats	3	correct	1.18117007016372
128566	1	stim008_animate_aquatic_fish_4.png	8	animate	aquatic	fish	4	0	4	boats	3	correct	1.18117007016372
128616	1	stim082_animate_mammal_cow_2.png	82	animate	mammal	cow	2	0	4	boats	3	correct	1.18117007016372
128666	1	stim194_inanimate_tools_scissors_2.png	194	inanimate	tools	scissors	2	0	4	boats	3	correct	1.18117007016372
128716	1	stim197_inanimate_tools_wrench_1.png	197	inanimate	tools	wrench	1	0	4	boats	3	correct	1.18117007016372
128766	1	stim183_inanimate_tools_broom_3.png	183	inanimate	tools	broom	3	0	4	boats	3	correct	1.18117007016372
128816	1	stim147_inanimate_furniture_chair_3.png	147	inanimate	furniture	chair	3	0	4	boats	3	correct	1.18117007016372
128866	1	stim167_inanimate_plants_cactus_3.png	167	inanimate	plants	cactus	3	0	4	boats	3	correct	1.18117007016372
128916	1	stim112_inanimate_clothing_jeans_4.png	112	inanimate	clothing	jeans	4	0	4	boats	3	correct	1.18117007016372
128966	1	stim048_animate_human_child_4.png	48	animate	human	child	4	0	4	boats	3	correct	1.18117007016372
129016	1	stim049_animate_human_clown_1.png	49	animate	human	clown	1	0	4	boats	3	correct	1.18117007016372
129066	1	stim140_inanimate_fruits_strawberry_4.png	140	inanimate	fruits	strawberry	4	0	4	boats	3	correct	1.18117007016372
129116	1	stim136_inanimate_fruits_pineapple_4.png	136	inanimate	fruits	pineapple	4	0	4	boats	3	correct	1.18117007016372
129166	1	stim150_inanimate_furniture_closet_2.png	150	inanimate	furniture	closet	2	0	4	boats	3	correct	1.18117007016372
129216	1	stim098_animate_mammal_rhino_2.png	98	animate	mammal	rhino	2	0	4	boats	3	correct	1.18117007016372
129266	1	stim103_inanimate_clothing_gloves_3.png	103	inanimate	clothing	gloves	3	0	4	boats	3	correct	1.18117007016372
129316	1	stim006_animate_aquatic_fish_2.png	6	animate	aquatic	fish	2	0	4	boats	3	correct	1.18117007016372
129366	1	stim185_inanimate_tools_hammer_1.png	185	inanimate	tools	hammer	1	0	4	boats	3	correct	1.18117007016372
129416	1	stim042_animate_human_baby_2.png	42	animate	human	baby	2	0	4	boats	3	correct	1.18117007016372
129466	1	stim083_animate_mammal_cow_3.png	83	animate	mammal	cow	3	0	4	boats	3	correct	1.18117007016372
129516	1	stim081_animate_mammal_cow_1.png	81	animate	mammal	cow	1	0	4	boats	3	correct	1.18117007016372
129566	1	stim031_animate_bird_parrot_3.png	31	animate	bird	parrot	3	0	4	boats	3	correct	1.18117007016372
129616	1	stim139_inanimate_fruits_strawberry_3.png	139	inanimate	fruits	strawberry	3	0	4	boats	3	correct	1.18117007016372
129666	1	stim141_inanimate_furniture_bed_1.png	141	inanimate	furniture	bed	1	0	4	boats	3	correct	1.18117007016372
129716	1	stim120_inanimate_clothing_socks_4.png	120	inanimate	clothing	socks	4	0	4	boats	3	correct	1.18117007016372
129766	1	stim115_inanimate_clothing_shirt_3.png	115	inanimate	clothing	shirt	3	0	4	boats	3	correct	1.18117007016372
129816	1	stim201_targets_object_boats_1.png	201	targets	object	boats	1	1	4	boats	3	correct	1.18117007016372
129866	1	stim127_inanimate_fruits_banana_3.png	127	inanimate	fruits	banana	3	0	4	boats	3	correct	1.18117007016372
129916	1	stim100_animate_mammal_rhino_4.png	100	animate	mammal	rhino	4	0	4	boats	3	correct	1.18117007016372
129966	1	stim029_animate_bird_parrot_1.png	29	animate	bird	parrot	1	0	4	boats	3	correct	1.18117007016372
130016	1	stim107_inanimate_clothing_hat_3.png	107	inanimate	clothing	hat	3	0	4	boats	3	correct	1.18117007016372
130066	1	stim074_animate_insect_dragonfly_2.png	74	animate	insect	dragonfly	2	0	4	boats	3	correct	1.18117007016372
130116	1	stim137_inanimate_fruits_strawberry_1.png	137	inanimate	fruits	strawberry	1	0	4	boats	3	correct	1.18117007016372
130166	1	stim035_animate_bird_peacock_3.png	35	animate	bird	peacock	3	0	4	boats	3	correct	1.18117007016372
130216	1	stim195_inanimate_tools_scissors_3.png	195	inanimate	tools	scissors	3	0	4	boats	3	correct	1.18117007016372
130266	1	stim053_animate_human_faces_1.png	53	animate	human	faces	1	0	4	boats	3	correct	1.18117007016372
130316	1	stim093_animate_mammal_monkey_1.png	93	animate	mammal	monkey	1	0	4	boats	3	correct	1.18117007016372
130366	1	stim155_inanimate_furniture_sofa_3.png	155	inanimate	furniture	sofa	3	0	4	boats	3	correct	1.18117007016372
130416	1	stim102_inanimate_clothing_gloves_2.png	102	inanimate	clothing	gloves	2	0	4	boats	3	correct	1.18117007016372
130466	1	stim085_animate_mammal_giraffe_1.png	85	animate	mammal	giraffe	1	0	4	boats	3	correct	1.18117007016372
130516	1	stim065_animate_insect_bug_1.png	65	animate	insect	bug	1	0	4	boats	3	correct	1.18117007016372
130566	1	stim151_inanimate_furniture_closet_3.png	151	inanimate	furniture	closet	3	0	4	boats	3	correct	1.18117007016372
130616	1	stim156_inanimate_furniture_sofa_4.png	156	inanimate	furniture	sofa	4	0	4	boats	3	correct	1.18117007016372
130666	1	stim113_inanimate_clothing_shirt_1.png	113	inanimate	clothing	shirt	1	0	4	boats	3	correct	1.18117007016372
130716	1	stim200_inanimate_tools_wrench_4.png	200	inanimate	tools	wrench	4	0	4	boats	3	correct	1.18117007016372
130766	1	stim026_animate_bird_duck_2.png	26	animate	bird	duck	2	0	4	boats	3	correct	1.18117007016372
130816	1	stim163_inanimate_plants_bush_3.png	163	inanimate	plants	bush	3	0	4	boats	3	correct	1.18117007016372
130866	1	stim129_inanimate_fruits_grape_1.png	129	inanimate	fruits	grape	1	0	4	boats	3	correct	1.18117007016372
130916	1	stim188_inanimate_tools_hammer_4.png	188	inanimate	tools	hammer	4	0	4	boats	3	correct	1.18117007016372
130966	1	stim004_animate_aquatic_crab_4.png	4	animate	aquatic	crab	4	0	4	boats	3	correct	1.18117007016372
131016	1	stim050_animate_human_clown_2.png	50	animate	human	clown	2	0	4	boats	3	correct	1.18117007016372
131066	1	stim192_inanimate_tools_pan_4.png	192	inanimate	tools	pan	4	0	4	boats	3	correct	1.18117007016372
131116	1	stim162_inanimate_plants_bush_2.png	162	inanimate	plants	bush	2	0	4	boats	3	correct	1.18117007016372
131166	1	stim092_animate_mammal_kangaroo_4.png	92	animate	mammal	kangaroo	4	0	4	boats	3	correct	1.18117007016372
131216	1	stim037_animate_bird_penguin_1.png	37	animate	bird	penguin	1	0	4	boats	3	correct	1.18117007016372
131266	1	stim106_inanimate_clothing_hat_2.png	106	inanimate	clothing	hat	2	0	4	boats	3	correct	1.18117007016372
131316	1	stim157_inanimate_furniture_table_1.png	157	inanimate	furniture	table	1	0	4	boats	3	correct	1.18117007016372
131366	1	stim091_animate_mammal_kangaroo_3.png	91	animate	mammal	kangaroo	3	0	4	boats	3	correct	1.18117007016372
131416	1	stim033_animate_bird_peacock_1.png	33	animate	bird	peacock	1	0	4	boats	3	correct	1.18117007016372
131466	1	stim182_inanimate_tools_broom_2.png	182	inanimate	tools	broom	2	0	4	boats	3	correct	1.18117007016372
131516	1	stim034_animate_bird_peacock_2.png	34	animate	bird	peacock	2	0	4	boats	3	correct	1.18117007016372
131566	1	stim128_inanimate_fruits_banana_4.png	128	inanimate	fruits	banana	4	0	4	boats	3	correct	1.18117007016372
131616	1	stim054_animate_human_faces_2.png	54	animate	human	faces	2	0	4	boats	3	correct	1.18117007016372
131666	1	stim170_inanimate_plants_sunflower_2.png	170	inanimate	plants	sunflower	2	0	4	boats	3	correct	1.18117007016372
131716	1	stim168_inanimate_plants_cactus_4.png	168	inanimate	plants	cactus	4	0	4	boats	3	correct	1.18117007016372
131766	1	stim072_animate_insect_butterfly_4.png	72	animate	insect	butterfly	4	0	4	boats	3	correct	1.18117007016372
131816	1	stim068_animate_insect_bug_4.png	68	animate	insect	bug	4	0	4	boats	3	correct	1.18117007016372
131866	1	stim051_animate_human_clown_3.png	51	animate	human	clown	3	0	4	boats	3	correct	1.18117007016372
131916	1	stim066_animate_insect_bug_2.png	66	animate	insect	bug	2	0	4	boats	3	correct	1.18117007016372
131966	1	stim143_inanimate_furniture_bed_3.png	143	inanimate	furniture	bed	3	0	4	boats	3	correct	1.18117007016372
132016	1	stim041_animate_human_baby_1.png	41	animate	human	baby	1	0	4	boats	3	correct	1.18117007016372
132066	1	stim180_inanimate_plants_tulip_4.png	180	inanimate	plants	tulip	4	0	4	boats	3	correct	1.18117007016372
132116	1	stim187_inanimate_tools_hammer_3.png	187	inanimate	tools	hammer	3	0	4	boats	3	correct	1.18117007016372
132166	1	stim062_animate_insect_ant_2.png	62	animate	insect	ant	2	0	4	boats	3	correct	1.18117007016372
132216	1	stim021_animate_bird_chicken_1.png	21	animate	bird	chicken	1	0	4	boats	3	correct	1.18117007016372
132266	1	stim108_inanimate_clothing_hat_4.png	108	inanimate	clothing	hat	4	0	4	boats	3	correct	1.18117007016372
132316	1	stim045_animate_human_child_1.png	45	animate	human	child	1	0	4	boats	3	correct	1.18117007016372
132366	1	stim009_animate_aquatic_seahorse_1.png	9	animate	aquatic	seahorse	1	0	4	boats	3	correct	1.18117007016372
132416	1	stim075_animate_insect_dragonfly_3.png	75	animate	insect	dragonfly	3	0	4	boats	3	correct	1.18117007016372
132466	1	stim144_inanimate_furniture_bed_4.png	144	inanimate	furniture	bed	4	0	4	boats	3	correct	1.18117007016372
132516	1	stim165_inanimate_plants_cactus_1.png	165	inanimate	plants	cactus	1	0	4	boats	3	correct	1.18117007016372
132566	1	stim058_animate_human_sports_2.png	58	animate	human	sports	2	0	4	boats	3	correct	1.18117007016372
132616	1	stim121_inanimate_fruits_apple_1.png	121	inanimate	fruits	apple	1	0	4	boats	3	correct	1.18117007016372
132666	1	stim131_inanimate_fruits_grape_3.png	131	inanimate	fruits	grape	3	0	4	boats	3	correct	1.18117007016372
132716	1	stim079_animate_insect_grasshopper_3.png	79	animate	insect	grasshopper	3	0	4	boats	3	correct	1.18117007016372
132766	1	stim019_animate_aquatic_shrimp_3.png	19	animate	aquatic	shrimp	3	0	4	boats	3	correct	1.18117007016372
132816	1	stim199_inanimate_tools_wrench_3.png	199	inanimate	tools	wrench	3	0	4	boats	3	correct	1.18117007016372
132866	1	stim073_animate_insect_dragonfly_1.png	73	animate	insect	dragonfly	1	0	4	boats	3	correct	1.18117007016372
137800	1	stim053_animate_human_faces_1.png	53	animate	human	faces	1	0	5	boats	2	correct	1.22275272420347
137850	1	stim095_animate_mammal_monkey_3.png	95	animate	mammal	monkey	3	0	5	boats	2	correct	1.22275272420347
137900	1	stim182_inanimate_tools_broom_2.png	182	inanimate	tools	broom	2	0	5	boats	2	correct	1.22275272420347
137950	1	stim081_animate_mammal_cow_1.png	81	animate	mammal	cow	1	0	5	boats	2	correct	1.22275272420347
138000	1	stim048_animate_human_child_4.png	48	animate	human	child	4	0	5	boats	2	correct	1.22275272420347
138050	1	stim024_animate_bird_chicken_4.png	24	animate	bird	chicken	4	0	5	boats	2	correct	1.22275272420347
138100	1	stim175_inanimate_plants_tree_3.png	175	inanimate	plants	tree	3	0	5	boats	2	correct	1.22275272420347
138150	1	stim155_inanimate_furniture_sofa_3.png	155	inanimate	furniture	sofa	3	0	5	boats	2	correct	1.22275272420347
138200	1	stim122_inanimate_fruits_apple_2.png	122	inanimate	fruits	apple	2	0	5	boats	2	correct	1.22275272420347
138250	1	stim108_inanimate_clothing_hat_4.png	108	inanimate	clothing	hat	4	0	5	boats	2	correct	1.22275272420347
138300	1	stim005_animate_aquatic_fish_1.png	5	animate	aquatic	fish	1	0	5	boats	2	correct	1.22275272420347
138350	1	stim189_inanimate_tools_pan_1.png	189	inanimate	tools	pan	1	0	5	boats	2	correct	1.22275272420347
138400	1	stim111_inanimate_clothing_jeans_3.png	111	inanimate	clothing	jeans	3	0	5	boats	2	correct	1.22275272420347
138450	1	stim190_inanimate_tools_pan_2.png	190	inanimate	tools	pan	2	0	5	boats	2	correct	1.22275272420347
138500	1	stim049_animate_human_clown_1.png	49	animate	human	clown	1	0	5	boats	2	correct	1.22275272420347
138550	1	stim112_inanimate_clothing_jeans_4.png	112	inanimate	clothing	jeans	4	0	5	boats	2	correct	1.22275272420347
138600	1	stim063_animate_insect_ant_3.png	63	animate	insect	ant	3	0	5	boats	2	correct	1.22275272420347
138650	1	stim043_animate_human_baby_3.png	43	animate	human	baby	3	0	5	boats	2	correct	1.22275272420347
138700	1	stim052_animate_human_clown_4.png	52	animate	human	clown	4	0	5	boats	2	correct	1.22275272420347
138750	1	stim172_inanimate_plants_sunflower_4.png	172	inanimate	plants	sunflower	4	0	5	boats	2	correct	1.22275272420347
138800	1	stim117_inanimate_clothing_socks_1.png	117	inanimate	clothing	socks	1	0	5	boats	2	correct	1.22275272420347
138850	1	stim026_animate_bird_duck_2.png	26	animate	bird	duck	2	0	5	boats	2	correct	1.22275272420347
138900	1	stim149_inanimate_furniture_closet_1.png	149	inanimate	furniture	closet	1	0	5	boats	2	correct	1.22275272420347
138950	1	stim034_animate_bird_peacock_2.png	34	animate	bird	peacock	2	0	5	boats	2	correct	1.22275272420347
139000	1	stim163_inanimate_plants_bush_3.png	163	inanimate	plants	bush	3	0	5	boats	2	correct	1.22275272420347
139050	1	stim036_animate_bird_peacock_4.png	36	animate	bird	peacock	4	0	5	boats	2	correct	1.22275272420347
139100	1	stim028_animate_bird_duck_4.png	28	animate	bird	duck	4	0	5	boats	2	correct	1.22275272420347
139150	1	stim075_animate_insect_dragonfly_3.png	75	animate	insect	dragonfly	3	0	5	boats	2	correct	1.22275272420347
139200	1	stim011_animate_aquatic_seahorse_3.png	11	animate	aquatic	seahorse	3	0	5	boats	2	correct	1.22275272420347
139250	1	stim162_inanimate_plants_bush_2.png	162	inanimate	plants	bush	2	0	5	boats	2	correct	1.22275272420347
139300	1	stim197_inanimate_tools_wrench_1.png	197	inanimate	tools	wrench	1	0	5	boats	2	correct	1.22275272420347
139350	1	stim115_inanimate_clothing_shirt_3.png	115	inanimate	clothing	shirt	3	0	5	boats	2	correct	1.22275272420347
139400	1	stim188_inanimate_tools_hammer_4.png	188	inanimate	tools	hammer	4	0	5	boats	2	correct	1.22275272420347
139450	1	stim174_inanimate_plants_tree_2.png	174	inanimate	plants	tree	2	0	5	boats	2	correct	1.22275272420347
139500	1	stim137_inanimate_fruits_strawberry_1.png	137	inanimate	fruits	strawberry	1	0	5	boats	2	correct	1.22275272420347
139550	1	stim077_animate_insect_grasshopper_1.png	77	animate	insect	grasshopper	1	0	5	boats	2	correct	1.22275272420347
139600	1	stim079_animate_insect_grasshopper_3.png	79	animate	insect	grasshopper	3	0	5	boats	2	correct	1.22275272420347
139650	1	stim125_inanimate_fruits_banana_1.png	125	inanimate	fruits	banana	1	0	5	boats	2	correct	1.22275272420347
139700	1	stim080_animate_insect_grasshopper_4.png	80	animate	insect	grasshopper	4	0	5	boats	2	correct	1.22275272420347
139750	1	stim032_animate_bird_parrot_4.png	32	animate	bird	parrot	4	0	5	boats	2	correct	1.22275272420347
139800	1	stim056_animate_human_faces_4.png	56	animate	human	faces	4	0	5	boats	2	correct	1.22275272420347
139850	1	stim007_animate_aquatic_fish_3.png	7	animate	aquatic	fish	3	0	5	boats	2	correct	1.22275272420347
139900	1	stim090_animate_mammal_kangaroo_2.png	90	animate	mammal	kangaroo	2	0	5	boats	2	correct	1.22275272420347
139950	1	stim151_inanimate_furniture_closet_3.png	151	inanimate	furniture	closet	3	0	5	boats	2	correct	1.22275272420347
140000	1	stim146_inanimate_furniture_chair_2.png	146	inanimate	furniture	chair	2	0	5	boats	2	correct	1.22275272420347
140050	1	stim020_animate_aquatic_shrimp_4.png	20	animate	aquatic	shrimp	4	0	5	boats	2	correct	1.22275272420347
140100	1	stim113_inanimate_clothing_shirt_1.png	113	inanimate	clothing	shirt	1	0	5	boats	2	correct	1.22275272420347
140150	1	stim156_inanimate_furniture_sofa_4.png	156	inanimate	furniture	sofa	4	0	5	boats	2	correct	1.22275272420347
140200	1	stim132_inanimate_fruits_grape_4.png	132	inanimate	fruits	grape	4	0	5	boats	2	correct	1.22275272420347
140250	1	stim046_animate_human_child_2.png	46	animate	human	child	2	0	5	boats	2	correct	1.22275272420347
140300	1	stim061_animate_insect_ant_1.png	61	animate	insect	ant	1	0	5	boats	2	correct	1.22275272420347
140350	1	stim042_animate_human_baby_2.png	42	animate	human	baby	2	0	5	boats	2	correct	1.22275272420347
140400	1	stim133_inanimate_fruits_pineapple_1.png	133	inanimate	fruits	pineapple	1	0	5	boats	2	correct	1.22275272420347
140450	1	stim087_animate_mammal_giraffe_3.png	87	animate	mammal	giraffe	3	0	5	boats	2	correct	1.22275272420347
140500	1	stim160_inanimate_furniture_table_4.png	160	inanimate	furniture	table	4	0	5	boats	2	correct	1.22275272420347
140550	1	stim013_animate_aquatic_shark_1.png	13	animate	aquatic	shark	1	0	5	boats	2	correct	1.22275272420347
140600	1	stim067_animate_insect_bug_3.png	67	animate	insect	bug	3	0	5	boats	2	correct	1.22275272420347
140650	1	stim183_inanimate_tools_broom_3.png	183	inanimate	tools	broom	3	0	5	boats	2	correct	1.22275272420347
140700	1	stim150_inanimate_furniture_closet_2.png	150	inanimate	furniture	closet	2	0	5	boats	2	correct	1.22275272420347
140750	1	stim140_inanimate_fruits_strawberry_4.png	140	inanimate	fruits	strawberry	4	0	5	boats	2	correct	1.22275272420347
140800	1	stim059_animate_human_sports_3.png	59	animate	human	sports	3	0	5	boats	2	correct	1.22275272420347
140850	1	stim103_inanimate_clothing_gloves_3.png	103	inanimate	clothing	gloves	3	0	5	boats	2	correct	1.22275272420347
140900	1	stim145_inanimate_furniture_chair_1.png	145	inanimate	furniture	chair	1	0	5	boats	2	correct	1.22275272420347
140950	1	stim035_animate_bird_peacock_3.png	35	animate	bird	peacock	3	0	5	boats	2	correct	1.22275272420347
141000	1	stim126_inanimate_fruits_banana_2.png	126	inanimate	fruits	banana	2	0	5	boats	2	correct	1.22275272420347
141050	1	stim110_inanimate_clothing_jeans_2.png	110	inanimate	clothing	jeans	2	0	5	boats	2	correct	1.22275272420347
141100	1	stim010_animate_aquatic_seahorse_2.png	10	animate	aquatic	seahorse	2	0	5	boats	2	correct	1.22275272420347
141150	1	stim102_inanimate_clothing_gloves_2.png	102	inanimate	clothing	gloves	2	0	5	boats	2	correct	1.22275272420347
141200	1	stim023_animate_bird_chicken_3.png	23	animate	bird	chicken	3	0	5	boats	2	correct	1.22275272420347
141250	1	stim124_inanimate_fruits_apple_4.png	124	inanimate	fruits	apple	4	0	5	boats	2	correct	1.22275272420347
141300	1	stim139_inanimate_fruits_strawberry_3.png	139	inanimate	fruits	strawberry	3	0	5	boats	2	correct	1.22275272420347
141350	1	stim074_animate_insect_dragonfly_2.png	74	animate	insect	dragonfly	2	0	5	boats	2	correct	1.22275272420347
141400	1	stim199_inanimate_tools_wrench_3.png	199	inanimate	tools	wrench	3	0	5	boats	2	correct	1.22275272420347
141450	1	stim027_animate_bird_duck_3.png	27	animate	bird	duck	3	0	5	boats	2	correct	1.22275272420347
141500	1	stim118_inanimate_clothing_socks_2.png	118	inanimate	clothing	socks	2	0	5	boats	2	correct	1.22275272420347
141550	1	stim041_animate_human_baby_1.png	41	animate	human	baby	1	0	5	boats	2	correct	1.22275272420347
141600	1	stim078_animate_insect_grasshopper_2.png	78	animate	insect	grasshopper	2	0	5	boats	2	correct	1.22275272420347
141650	1	stim019_animate_aquatic_shrimp_3.png	19	animate	aquatic	shrimp	3	0	5	boats	2	correct	1.22275272420347
141700	1	stim170_inanimate_plants_sunflower_2.png	170	inanimate	plants	sunflower	2	0	5	boats	2	correct	1.22275272420347
141750	1	stim100_animate_mammal_rhino_4.png	100	animate	mammal	rhino	4	0	5	boats	2	correct	1.22275272420347
141800	1	stim094_animate_mammal_monkey_2.png	94	animate	mammal	monkey	2	0	5	boats	2	correct	1.22275272420347
141850	1	stim107_inanimate_clothing_hat_3.png	107	inanimate	clothing	hat	3	0	5	boats	2	correct	1.22275272420347
141900	1	stim203_targets_object_boats_3.png	203	targets	object	boats	3	1	5	boats	2	correct	1.22275272420347
141950	1	stim051_animate_human_clown_3.png	51	animate	human	clown	3	0	5	boats	2	correct	1.22275272420347
142000	1	stim038_animate_bird_penguin_2.png	38	animate	bird	penguin	2	0	5	boats	2	correct	1.22275272420347
142050	1	stim064_animate_insect_ant_4.png	64	animate	insect	ant	4	0	5	boats	2	correct	1.22275272420347
142100	1	stim037_animate_bird_penguin_1.png	37	animate	bird	penguin	1	0	5	boats	2	correct	1.22275272420347
142150	1	stim106_inanimate_clothing_hat_2.png	106	inanimate	clothing	hat	2	0	5	boats	2	correct	1.22275272420347
142200	1	stim167_inanimate_plants_cactus_3.png	167	inanimate	plants	cactus	3	0	5	boats	2	correct	1.22275272420347
142250	1	stim159_inanimate_furniture_table_3.png	159	inanimate	furniture	table	3	0	5	boats	2	correct	1.22275272420347
142300	1	stim016_animate_aquatic_shark_4.png	16	animate	aquatic	shark	4	0	5	boats	2	correct	1.22275272420347
142350	1	stim089_animate_mammal_kangaroo_1.png	89	animate	mammal	kangaroo	1	0	5	boats	2	correct	1.22275272420347
142400	1	stim014_animate_aquatic_shark_2.png	14	animate	aquatic	shark	2	0	5	boats	2	correct	1.22275272420347
142450	1	stim130_inanimate_fruits_grape_2.png	130	inanimate	fruits	grape	2	0	5	boats	2	correct	1.22275272420347
