onset	duration	stimulusname	stimulusnumber	levelA	levelB	levelC	withinexemplarnumber	istarget	trialnumber	condition	response	correct	rt
28244	1	stim135_inanimate_fruits_pineapple_3.png	135	inanimate	fruits	pineapple	3	0	1	stars	2	correct	1.65221698248911
28444	1	stim055_animate_human_faces_3.png	55	animate	human	faces	3	0	1	stars	2	correct	1.65221698248911
28644	1	stim048_animate_human_child_4.png	48	animate	human	child	4	0	1	stars	2	correct	1.65221698248911
28844	1	stim076_animate_insect_dragonfly_4.png	76	animate	insect	dragonfly	4	0	1	stars	2	correct	1.65221698248911
29044	1	stim069_animate_insect_butterfly_1.png	69	animate	insect	butterfly	1	0	1	stars	2	correct	1.65221698248911
29244	1	stim031_animate_bird_parrot_3.png	31	animate	bird	parrot	3	0	1	stars	2	correct	1.65221698248911
29444	1	stim176_inanimate_plants_tree_4.png	176	inanimate	plants	tree	4	0	1	stars	2	correct	1.65221698248911
29644	1	stim137_inanimate_fruits_strawberry_1.png	137	inanimate	fruits	strawberry	1	0	1	stars	2	correct	1.65221698248911
29844	1	stim028_animate_bird_duck_4.png	28	animate	bird	duck	4	0	1	stars	2	correct	1.65221698248911
30044	1	stim110_inanimate_clothing_jeans_2.png	110	inanimate	clothing	jeans	2	0	1	stars	2	correct	1.65221698248911
30244	1	stim091_animate_mammal_kangaroo_3.png	91	animate	mammal	kangaroo	3	0	1	stars	2	correct	1.65221698248911
30444	1	stim112_inanimate_clothing_jeans_4.png	112	inanimate	clothing	jeans	4	0	1	stars	2	correct	1.65221698248911
30644	1	stim067_animate_insect_bug_3.png	67	animate	insect	bug	3	0	1	stars	2	correct	1.65221698248911
30844	1	stim125_inanimate_fruits_banana_1.png	125	inanimate	fruits	banana	1	0	1	stars	2	correct	1.65221698248911
31044	1	stim139_inanimate_fruits_strawberry_3.png	139	inanimate	fruits	strawberry	3	0	1	stars	2	correct	1.65221698248911
31244	1	stim138_inanimate_fruits_strawberry_2.png	138	inanimate	fruits	strawberry	2	0	1	stars	2	correct	1.65221698248911
31444	1	stim001_animate_aquatic_crab_1.png	1	animate	aquatic	crab	1	0	1	stars	2	correct	1.65221698248911
31644	1	stim042_animate_human_baby_2.png	42	animate	human	baby	2	0	1	stars	2	correct	1.65221698248911
31844	1	stim061_animate_insect_ant_1.png	61	animate	insect	ant	1	0	1	stars	2	correct	1.65221698248911
32044	1	stim167_inanimate_plants_cactus_3.png	167	inanimate	plants	cactus	3	0	1	stars	2	correct	1.65221698248911
32244	1	stim126_inanimate_fruits_banana_2.png	126	inanimate	fruits	banana	2	0	1	stars	2	correct	1.65221698248911
32444	1	stim184_inanimate_tools_broom_4.png	184	inanimate	tools	broom	4	0	1	stars	2	correct	1.65221698248911
32644	1	stim158_inanimate_furniture_table_2.png	158	inanimate	furniture	table	2	0	1	stars	2	correct	1.65221698248911
32844	1	stim094_animate_mammal_monkey_2.png	94	animate	mammal	monkey	2	0	1	stars	2	correct	1.65221698248911
33044	1	stim107_inanimate_clothing_hat_3.png	107	inanimate	clothing	hat	3	0	1	stars	2	correct	1.65221698248911
33244	1	stim145_inanimate_furniture_chair_1.png	145	inanimate	furniture	chair	1	0	1	stars	2	correct	1.65221698248911
33444	1	stim134_inanimate_fruits_pineapple_2.png	134	inanimate	fruits	pineapple	2	0	1	stars	2	correct	1.65221698248911
33644	1	stim005_animate_aquatic_fish_1.png	5	animate	aquatic	fish	1	0	1	stars	2	correct	1.65221698248911
33844	1	stim018_animate_aquatic_shrimp_2.png	18	animate	aquatic	shrimp	2	0	1	stars	2	correct	1.65221698248911
34044	1	stim089_animate_mammal_kangaroo_1.png	89	animate	mammal	kangaroo	1	0	1	stars	2	correct	1.65221698248911
34244	1	stim190_inanimate_tools_pan_2.png	190	inanimate	tools	pan	2	0	1	stars	2	correct	1.65221698248911
34444	1	stim012_animate_aquatic_seahorse_4.png	12	animate	aquatic	seahorse	4	0	1	stars	2	correct	1.65221698248911
34644	1	stim165_inanimate_plants_cactus_1.png	165	inanimate	plants	cactus	1	0	1	stars	2	correct	1.65221698248911
34844	1	stim193_inanimate_tools_scissors_1.png	193	inanimate	tools	scissors	1	0	1	stars	2	correct	1.65221698248911
35044	1	stim182_inanimate_tools_broom_2.png	182	inanimate	tools	broom	2	0	1	stars	2	correct	1.65221698248911
35244	1	stim074_animate_insect_dragonfly_2.png	74	animate	insect	dragonfly	2	0	1	stars	2	correct	1.65221698248911
35444	1	stim143_inanimate_furniture_bed_3.png	143	inanimate	furniture	bed	3	0	1	stars	2	correct	1.65221698248911
35644	1	stim150_inanimate_furniture_closet_2.png	150	inanimate	furniture	closet	2	0	1	stars	2	correct	1.65221698248911
35844	1	stim127_inanimate_fruits_banana_3.png	127	inanimate	fruits	banana	3	0	1	stars	2	correct	1.65221698248911
36044	1	stim054_animate_human_faces_2.png	54	animate	human	faces	2	0	1	stars	2	correct	1.65221698248911
36244	1	stim047_animate_human_child_3.png	47	animate	human	child	3	0	1	stars	2	correct	1.65221698248911
36444	1	stim171_inanimate_plants_sunflower_3.png	171	inanimate	plants	sunflower	3	0	1	stars	2	correct	1.65221698248911
36644	1	stim105_inanimate_clothing_hat_1.png	105	inanimate	clothing	hat	1	0	1	stars	2	correct	1.65221698248911
36844	1	stim058_animate_human_sports_2.png	58	animate	human	sports	2	0	1	stars	2	correct	1.65221698248911
37044	1	stim192_inanimate_tools_pan_4.png	192	inanimate	tools	pan	4	0	1	stars	2	correct	1.65221698248911
37244	1	stim088_animate_mammal_giraffe_4.png	88	animate	mammal	giraffe	4	0	1	stars	2	correct	1.65221698248911
37444	1	stim083_animate_mammal_cow_3.png	83	animate	mammal	cow	3	0	1	stars	2	correct	1.65221698248911
37644	1	stim140_inanimate_fruits_strawberry_4.png	140	inanimate	fruits	strawberry	4	0	1	stars	2	correct	1.65221698248911
37844	1	stim186_inanimate_tools_hammer_2.png	186	inanimate	tools	hammer	2	0	1	stars	2	correct	1.65221698248911
38044	1	stim013_animate_aquatic_shark_1.png	13	animate	aquatic	shark	1	0	1	stars	2	correct	1.65221698248911
38244	1	stim142_inanimate_furniture_bed_2.png	142	inanimate	furniture	bed	2	0	1	stars	2	correct	1.65221698248911
38444	1	stim009_animate_aquatic_seahorse_1.png	9	animate	aquatic	seahorse	1	0	1	stars	2	correct	1.65221698248911
38644	1	stim149_inanimate_furniture_closet_1.png	149	inanimate	furniture	closet	1	0	1	stars	2	correct	1.65221698248911
38844	1	stim116_inanimate_clothing_shirt_4.png	116	inanimate	clothing	shirt	4	0	1	stars	2	correct	1.65221698248911
39044	1	stim066_animate_insect_bug_2.png	66	animate	insect	bug	2	0	1	stars	2	correct	1.65221698248911
39244	1	stim003_animate_aquatic_crab_3.png	3	animate	aquatic	crab	3	0	1	stars	2	correct	1.65221698248911
39444	1	stim075_animate_insect_dragonfly_3.png	75	animate	insect	dragonfly	3	0	1	stars	2	correct	1.65221698248911
39644	1	stim082_animate_mammal_cow_2.png	82	animate	mammal	cow	2	0	1	stars	2	correct	1.65221698248911
39844	1	stim199_inanimate_tools_wrench_3.png	199	inanimate	tools	wrench	3	0	1	stars	2	correct	1.65221698248911
40044	1	stim124_inanimate_fruits_apple_4.png	124	inanimate	fruits	apple	4	0	1	stars	2	correct	1.65221698248911
40244	1	stim051_animate_human_clown_3.png	51	animate	human	clown	3	0	1	stars	2	correct	1.65221698248911
40444	1	stim093_animate_mammal_monkey_1.png	93	animate	mammal	monkey	1	0	1	stars	2	correct	1.65221698248911
40644	1	stim019_animate_aquatic_shrimp_3.png	19	animate	aquatic	shrimp	3	0	1	stars	2	correct	1.65221698248911
40844	1	stim169_inanimate_plants_sunflower_1.png	169	inanimate	plants	sunflower	1	0	1	stars	2	correct	1.65221698248911
41044	1	stim059_animate_human_sports_3.png	59	animate	human	sports	3	0	1	stars	2	correct	1.65221698248911
41244	1	stim097_animate_mammal_rhino_1.png	97	animate	mammal	rhino	1	0	1	stars	2	correct	1.65221698248911
41444	1	stim078_animate_insect_grasshopper_2.png	78	animate	insect	grasshopper	2	0	1	stars	2	correct	1.65221698248911
41644	1	stim213_targets_shapes_star_1.png	213	targets	shapes	star	1	1	1	stars	2	correct	1.65221698248911
41844	1	stim161_inanimate_plants_bush_1.png	161	inanimate	plants	bush	1	0	1	stars	2	correct	1.65221698248911
42044	1	stim099_animate_mammal_rhino_3.png	99	animate	mammal	rhino	3	0	1	stars	2	correct	1.65221698248911
42244	1	stim111_inanimate_clothing_jeans_3.png	111	inanimate	clothing	jeans	3	0	1	stars	2	correct	1.65221698248911
42444	1	stim043_animate_human_baby_3.png	43	animate	human	baby	3	0	1	stars	2	correct	1.65221698248911
42644	1	stim108_inanimate_clothing_hat_4.png	108	inanimate	clothing	hat	4	0	1	stars	2	correct	1.65221698248911
42844	1	stim173_inanimate_plants_tree_1.png	173	inanimate	plants	tree	1	0	1	stars	2	correct	1.65221698248911
43044	1	stim036_animate_bird_peacock_4.png	36	animate	bird	peacock	4	0	1	stars	2	correct	1.65221698248911
43244	1	stim120_inanimate_clothing_socks_4.png	120	inanimate	clothing	socks	4	0	1	stars	2	correct	1.65221698248911
43444	1	stim154_inanimate_furniture_sofa_2.png	154	inanimate	furniture	sofa	2	0	1	stars	2	correct	1.65221698248911
43644	1	stim168_inanimate_plants_cactus_4.png	168	inanimate	plants	cactus	4	0	1	stars	2	correct	1.65221698248911
43844	1	stim174_inanimate_plants_tree_2.png	174	inanimate	plants	tree	2	0	1	stars	2	correct	1.65221698248911
44044	1	stim131_inanimate_fruits_grape_3.png	131	inanimate	fruits	grape	3	0	1	stars	2	correct	1.65221698248911
44244	1	stim033_animate_bird_peacock_1.png	33	animate	bird	peacock	1	0	1	stars	2	correct	1.65221698248911
44444	1	stim052_animate_human_clown_4.png	52	animate	human	clown	4	0	1	stars	2	correct	1.65221698248911
44644	1	stim170_inanimate_plants_sunflower_2.png	170	inanimate	plants	sunflower	2	0	1	stars	2	correct	1.65221698248911
44844	1	stim072_animate_insect_butterfly_4.png	72	animate	insect	butterfly	4	0	1	stars	2	correct	1.65221698248911
45044	1	stim098_animate_mammal_rhino_2.png	98	animate	mammal	rhino	2	0	1	stars	2	correct	1.65221698248911
45244	1	stim119_inanimate_clothing_socks_3.png	119	inanimate	clothing	socks	3	0	1	stars	2	correct	1.65221698248911
45444	1	stim172_inanimate_plants_sunflower_4.png	172	inanimate	plants	sunflower	4	0	1	stars	2	correct	1.65221698248911
45644	1	stim189_inanimate_tools_pan_1.png	189	inanimate	tools	pan	1	0	1	stars	2	correct	1.65221698248911
45844	1	stim006_animate_aquatic_fish_2.png	6	animate	aquatic	fish	2	0	1	stars	2	correct	1.65221698248911
46044	1	stim007_animate_aquatic_fish_3.png	7	animate	aquatic	fish	3	0	1	stars	2	correct	1.65221698248911
46244	1	stim155_inanimate_furniture_sofa_3.png	155	inanimate	furniture	sofa	3	0	1	stars	2	correct	1.65221698248911
46444	1	stim090_animate_mammal_kangaroo_2.png	90	animate	mammal	kangaroo	2	0	1	stars	2	correct	1.65221698248911
46644	1	stim115_inanimate_clothing_shirt_3.png	115	inanimate	clothing	shirt	3	0	1	stars	2	correct	1.65221698248911
46844	1	stim136_inanimate_fruits_pineapple_4.png	136	inanimate	fruits	pineapple	4	0	1	stars	2	correct	1.65221698248911
47044	1	stim133_inanimate_fruits_pineapple_1.png	133	inanimate	fruits	pineapple	1	0	1	stars	2	correct	1.65221698248911
47244	1	stim166_inanimate_plants_cactus_2.png	166	inanimate	plants	cactus	2	0	1	stars	2	correct	1.65221698248911
47444	1	stim046_animate_human_child_2.png	46	animate	human	child	2	0	1	stars	2	correct	1.65221698248911
47644	1	stim017_animate_aquatic_shrimp_1.png	17	animate	aquatic	shrimp	1	0	1	stars	2	correct	1.65221698248911
47844	1	stim121_inanimate_fruits_apple_1.png	121	inanimate	fruits	apple	1	0	1	stars	2	correct	1.65221698248911
48044	1	stim008_animate_aquatic_fish_4.png	8	animate	aquatic	fish	4	0	1	stars	2	correct	1.65221698248911
48244	1	stim021_animate_bird_chicken_1.png	21	animate	bird	chicken	1	0	1	stars	2	correct	1.65221698248911
48444	1	stim014_animate_aquatic_shark_2.png	14	animate	aquatic	shark	2	0	1	stars	2	correct	1.65221698248911
48644	1	stim103_inanimate_clothing_gloves_3.png	103	inanimate	clothing	gloves	3	0	1	stars	2	correct	1.65221698248911
48844	1	stim194_inanimate_tools_scissors_2.png	194	inanimate	tools	scissors	2	0	1	stars	2	correct	1.65221698248911
49044	1	stim160_inanimate_furniture_table_4.png	160	inanimate	furniture	table	4	0	1	stars	2	correct	1.65221698248911
49244	1	stim195_inanimate_tools_scissors_3.png	195	inanimate	tools	scissors	3	0	1	stars	2	correct	1.65221698248911
49444	1	stim177_inanimate_plants_tulip_1.png	177	inanimate	plants	tulip	1	0	1	stars	2	correct	1.65221698248911
49644	1	stim064_animate_insect_ant_4.png	64	animate	insect	ant	4	0	1	stars	2	correct	1.65221698248911
49844	1	stim175_inanimate_plants_tree_3.png	175	inanimate	plants	tree	3	0	1	stars	2	correct	1.65221698248911
50044	1	stim141_inanimate_furniture_bed_1.png	141	inanimate	furniture	bed	1	0	1	stars	2	correct	1.65221698248911
50244	1	stim056_animate_human_faces_4.png	56	animate	human	faces	4	0	1	stars	2	correct	1.65221698248911
50444	1	stim147_inanimate_furniture_chair_3.png	147	inanimate	furniture	chair	3	0	1	stars	2	correct	1.65221698248911
50644	1	stim102_inanimate_clothing_gloves_2.png	102	inanimate	clothing	gloves	2	0	1	stars	2	correct	1.65221698248911
50844	1	stim123_inanimate_fruits_apple_3.png	123	inanimate	fruits	apple	3	0	1	stars	2	correct	1.65221698248911
51044	1	stim122_inanimate_fruits_apple_2.png	122	inanimate	fruits	apple	2	0	1	stars	2	correct	1.65221698248911
51244	1	stim095_animate_mammal_monkey_3.png	95	animate	mammal	monkey	3	0	1	stars	2	correct	1.65221698248911
51444	1	stim104_inanimate_clothing_gloves_4.png	104	inanimate	clothing	gloves	4	0	1	stars	2	correct	1.65221698248911
51644	1	stim060_animate_human_sports_4.png	60	animate	human	sports	4	0	1	stars	2	correct	1.65221698248911
51844	1	stim049_animate_human_clown_1.png	49	animate	human	clown	1	0	1	stars	2	correct	1.65221698248911
52044	1	stim179_inanimate_plants_tulip_3.png	179	inanimate	plants	tulip	3	0	1	stars	2	correct	1.65221698248911
52244	1	stim011_animate_aquatic_seahorse_3.png	11	animate	aquatic	seahorse	3	0	1	stars	2	correct	1.65221698248911
52444	1	stim004_animate_aquatic_crab_4.png	4	animate	aquatic	crab	4	0	1	stars	2	correct	1.65221698248911
52644	1	stim062_animate_insect_ant_2.png	62	animate	insect	ant	2	0	1	stars	2	correct	1.65221698248911
52844	1	stim129_inanimate_fruits_grape_1.png	129	inanimate	fruits	grape	1	0	1	stars	2	correct	1.65221698248911
53044	1	stim085_animate_mammal_giraffe_1.png	85	animate	mammal	giraffe	1	0	1	stars	2	correct	1.65221698248911
53244	1	stim159_inanimate_furniture_table_3.png	159	inanimate	furniture	table	3	0	1	stars	2	correct	1.65221698248911
53444	1	stim210_targets_shapes_star_2.png	210	targets	shapes	star	2	1	1	stars	2	correct	1.65221698248911
53644	1	stim153_inanimate_furniture_sofa_1.png	153	inanimate	furniture	sofa	1	0	1	stars	2	correct	1.65221698248911
53844	1	stim045_animate_human_child_1.png	45	animate	human	child	1	0	1	stars	2	correct	1.65221698248911
54044	1	stim073_animate_insect_dragonfly_1.png	73	animate	insect	dragonfly	1	0	1	stars	2	correct	1.65221698248911
54244	1	stim044_animate_human_baby_4.png	44	animate	human	baby	4	0	1	stars	2	correct	1.65221698248911
54444	1	stim039_animate_bird_penguin_3.png	39	animate	bird	penguin	3	0	1	stars	2	correct	1.65221698248911
54644	1	stim040_animate_bird_penguin_4.png	40	animate	bird	penguin	4	0	1	stars	2	correct	1.65221698248911
54844	1	stim027_animate_bird_duck_3.png	27	animate	bird	duck	3	0	1	stars	2	correct	1.65221698248911
55044	1	stim050_animate_human_clown_2.png	50	animate	human	clown	2	0	1	stars	2	correct	1.65221698248911
55244	1	stim025_animate_bird_duck_1.png	25	animate	bird	duck	1	0	1	stars	2	correct	1.65221698248911
55444	1	stim002_animate_aquatic_crab_2.png	2	animate	aquatic	crab	2	0	1	stars	2	correct	1.65221698248911
55644	1	stim132_inanimate_fruits_grape_4.png	132	inanimate	fruits	grape	4	0	1	stars	2	correct	1.65221698248911
55844	1	stim113_inanimate_clothing_shirt_1.png	113	inanimate	clothing	shirt	1	0	1	stars	2	correct	1.65221698248911
56044	1	stim081_animate_mammal_cow_1.png	81	animate	mammal	cow	1	0	1	stars	2	correct	1.65221698248911
56244	1	stim079_animate_insect_grasshopper_3.png	79	animate	insect	grasshopper	3	0	1	stars	2	correct	1.65221698248911
56444	1	stim106_inanimate_clothing_hat_2.png	106	inanimate	clothing	hat	2	0	1	stars	2	correct	1.65221698248911
56644	1	stim144_inanimate_furniture_bed_4.png	144	inanimate	furniture	bed	4	0	1	stars	2	correct	1.65221698248911
56844	1	stim024_animate_bird_chicken_4.png	24	animate	bird	chicken	4	0	1	stars	2	correct	1.65221698248911
57044	1	stim030_animate_bird_parrot_2.png	30	animate	bird	parrot	2	0	1	stars	2	correct	1.65221698248911
57244	1	stim016_animate_aquatic_shark_4.png	16	animate	aquatic	shark	4	0	1	stars	2	correct	1.65221698248911
57444	1	stim053_animate_human_faces_1.png	53	animate	human	faces	1	0	1	stars	2	correct	1.65221698248911
57644	1	stim197_inanimate_tools_wrench_1.png	197	inanimate	tools	wrench	1	0	1	stars	2	correct	1.65221698248911
57844	1	stim151_inanimate_furniture_closet_3.png	151	inanimate	furniture	closet	3	0	1	stars	2	correct	1.65221698248911
58044	1	stim157_inanimate_furniture_table_1.png	157	inanimate	furniture	table	1	0	1	stars	2	correct	1.65221698248911
58244	1	stim096_animate_mammal_monkey_4.png	96	animate	mammal	monkey	4	0	1	stars	2	correct	1.65221698248911
58444	1	stim146_inanimate_furniture_chair_2.png	146	inanimate	furniture	chair	2	0	1	stars	2	correct	1.65221698248911
58644	1	stim015_animate_aquatic_shark_3.png	15	animate	aquatic	shark	3	0	1	stars	2	correct	1.65221698248911
58844	1	stim178_inanimate_plants_tulip_2.png	178	inanimate	plants	tulip	2	0	1	stars	2	correct	1.65221698248911
59044	1	stim037_animate_bird_penguin_1.png	37	animate	bird	penguin	1	0	1	stars	2	correct	1.65221698248911
59244	1	stim200_inanimate_tools_wrench_4.png	200	inanimate	tools	wrench	4	0	1	stars	2	correct	1.65221698248911
59444	1	stim070_animate_insect_butterfly_2.png	70	animate	insect	butterfly	2	0	1	stars	2	correct	1.65221698248911
59644	1	stim063_animate_insect_ant_3.png	63	animate	insect	ant	3	0	1	stars	2	correct	1.65221698248911
59844	1	stim183_inanimate_tools_broom_3.png	183	inanimate	tools	broom	3	0	1	stars	2	correct	1.65221698248911
60044	1	stim128_inanimate_fruits_banana_4.png	128	inanimate	fruits	banana	4	0	1	stars	2	correct	1.65221698248911
60244	1	stim118_inanimate_clothing_socks_2.png	118	inanimate	clothing	socks	2	0	1	stars	2	correct	1.65221698248911
60444	1	stim035_animate_bird_peacock_3.png	35	animate	bird	peacock	3	0	1	stars	2	correct	1.65221698248911
60644	1	stim071_animate_insect_butterfly_3.png	71	animate	insect	butterfly	3	0	1	stars	2	correct	1.65221698248911
60844	1	stim020_animate_aquatic_shrimp_4.png	20	animate	aquatic	shrimp	4	0	1	stars	2	correct	1.65221698248911
61044	1	stim162_inanimate_plants_bush_2.png	162	inanimate	plants	bush	2	0	1	stars	2	correct	1.65221698248911
61244	1	stim100_animate_mammal_rhino_4.png	100	animate	mammal	rhino	4	0	1	stars	2	correct	1.65221698248911
61444	1	stim026_animate_bird_duck_2.png	26	animate	bird	duck	2	0	1	stars	2	correct	1.65221698248911
61644	1	stim038_animate_bird_penguin_2.png	38	animate	bird	penguin	2	0	1	stars	2	correct	1.65221698248911
61844	1	stim187_inanimate_tools_hammer_3.png	187	inanimate	tools	hammer	3	0	1	stars	2	correct	1.65221698248911
62044	1	stim087_animate_mammal_giraffe_3.png	87	animate	mammal	giraffe	3	0	1	stars	2	correct	1.65221698248911
62244	1	stim117_inanimate_clothing_socks_1.png	117	inanimate	clothing	socks	1	0	1	stars	2	correct	1.65221698248911
62444	1	stim114_inanimate_clothing_shirt_2.png	114	inanimate	clothing	shirt	2	0	1	stars	2	correct	1.65221698248911
62644	1	stim185_inanimate_tools_hammer_1.png	185	inanimate	tools	hammer	1	0	1	stars	2	correct	1.65221698248911
62844	1	stim023_animate_bird_chicken_3.png	23	animate	bird	chicken	3	0	1	stars	2	correct	1.65221698248911
63044	1	stim101_inanimate_clothing_gloves_1.png	101	inanimate	clothing	gloves	1	0	1	stars	2	correct	1.65221698248911
63244	1	stim080_animate_insect_grasshopper_4.png	80	animate	insect	grasshopper	4	0	1	stars	2	correct	1.65221698248911
63444	1	stim130_inanimate_fruits_grape_2.png	130	inanimate	fruits	grape	2	0	1	stars	2	correct	1.65221698248911
63644	1	stim032_animate_bird_parrot_4.png	32	animate	bird	parrot	4	0	1	stars	2	correct	1.65221698248911
63844	1	stim181_inanimate_tools_broom_1.png	181	inanimate	tools	broom	1	0	1	stars	2	correct	1.65221698248911
64044	1	stim034_animate_bird_peacock_2.png	34	animate	bird	peacock	2	0	1	stars	2	correct	1.65221698248911
64244	1	stim163_inanimate_plants_bush_3.png	163	inanimate	plants	bush	3	0	1	stars	2	correct	1.65221698248911
64444	1	stim092_animate_mammal_kangaroo_4.png	92	animate	mammal	kangaroo	4	0	1	stars	2	correct	1.65221698248911
64644	1	stim196_inanimate_tools_scissors_4.png	196	inanimate	tools	scissors	4	0	1	stars	2	correct	1.65221698248911
64844	1	stim188_inanimate_tools_hammer_4.png	188	inanimate	tools	hammer	4	0	1	stars	2	correct	1.65221698248911
65044	1	stim068_animate_insect_bug_4.png	68	animate	insect	bug	4	0	1	stars	2	correct	1.65221698248911
65244	1	stim152_inanimate_furniture_closet_4.png	152	inanimate	furniture	closet	4	0	1	stars	2	correct	1.65221698248911
65444	1	stim057_animate_human_sports_1.png	57	animate	human	sports	1	0	1	stars	2	correct	1.65221698248911
65644	1	stim084_animate_mammal_cow_4.png	84	animate	mammal	cow	4	0	1	stars	2	correct	1.65221698248911
65844	1	stim086_animate_mammal_giraffe_2.png	86	animate	mammal	giraffe	2	0	1	stars	2	correct	1.65221698248911
66044	1	stim156_inanimate_furniture_sofa_4.png	156	inanimate	furniture	sofa	4	0	1	stars	2	correct	1.65221698248911
66244	1	stim164_inanimate_plants_bush_4.png	164	inanimate	plants	bush	4	0	1	stars	2	correct	1.65221698248911
66444	1	stim148_inanimate_furniture_chair_4.png	148	inanimate	furniture	chair	4	0	1	stars	2	correct	1.65221698248911
66644	1	stim180_inanimate_plants_tulip_4.png	180	inanimate	plants	tulip	4	0	1	stars	2	correct	1.65221698248911
66844	1	stim077_animate_insect_grasshopper_1.png	77	animate	insect	grasshopper	1	0	1	stars	2	correct	1.65221698248911
67044	1	stim010_animate_aquatic_seahorse_2.png	10	animate	aquatic	seahorse	2	0	1	stars	2	correct	1.65221698248911
67244	1	stim022_animate_bird_chicken_2.png	22	animate	bird	chicken	2	0	1	stars	2	correct	1.65221698248911
67444	1	stim191_inanimate_tools_pan_3.png	191	inanimate	tools	pan	3	0	1	stars	2	correct	1.65221698248911
67644	1	stim198_inanimate_tools_wrench_2.png	198	inanimate	tools	wrench	2	0	1	stars	2	correct	1.65221698248911
67844	1	stim109_inanimate_clothing_jeans_1.png	109	inanimate	clothing	jeans	1	0	1	stars	2	correct	1.65221698248911
68044	1	stim041_animate_human_baby_1.png	41	animate	human	baby	1	0	1	stars	2	correct	1.65221698248911
68244	1	stim065_animate_insect_bug_1.png	65	animate	insect	bug	1	0	1	stars	2	correct	1.65221698248911
68444	1	stim029_animate_bird_parrot_1.png	29	animate	bird	parrot	1	0	1	stars	2	correct	1.65221698248911
77261	1	stim027_animate_bird_duck_3.png	27	animate	bird	duck	3	0	2	stars	4	correct	2.72073276402239
77461	1	stim130_inanimate_fruits_grape_2.png	130	inanimate	fruits	grape	2	0	2	stars	4	correct	2.72073276402239
77661	1	stim188_inanimate_tools_hammer_4.png	188	inanimate	tools	hammer	4	0	2	stars	4	correct	2.72073276402239
77861	1	stim057_animate_human_sports_1.png	57	animate	human	sports	1	0	2	stars	4	correct	2.72073276402239
78061	1	stim089_animate_mammal_kangaroo_1.png	89	animate	mammal	kangaroo	1	0	2	stars	4	correct	2.72073276402239
78261	1	stim123_inanimate_fruits_apple_3.png	123	inanimate	fruits	apple	3	0	2	stars	4	correct	2.72073276402239
78461	1	stim042_animate_human_baby_2.png	42	animate	human	baby	2	0	2	stars	4	correct	2.72073276402239
78661	1	stim077_animate_insect_grasshopper_1.png	77	animate	insect	grasshopper	1	0	2	stars	4	correct	2.72073276402239
78861	1	stim088_animate_mammal_giraffe_4.png	88	animate	mammal	giraffe	4	0	2	stars	4	correct	2.72073276402239
79061	1	stim091_animate_mammal_kangaroo_3.png	91	animate	mammal	kangaroo	3	0	2	stars	4	correct	2.72073276402239
79261	1	stim148_inanimate_furniture_chair_4.png	148	inanimate	furniture	chair	4	0	2	stars	4	correct	2.72073276402239
79461	1	stim026_animate_bird_duck_2.png	26	animate	bird	duck	2	0	2	stars	4	correct	2.72073276402239
79661	1	stim104_inanimate_clothing_gloves_4.png	104	inanimate	clothing	gloves	4	0	2	stars	4	correct	2.72073276402239
79861	1	stim047_animate_human_child_3.png	47	animate	human	child	3	0	2	stars	4	correct	2.72073276402239
80061	1	stim013_animate_aquatic_shark_1.png	13	animate	aquatic	shark	1	0	2	stars	4	correct	2.72073276402239
80261	1	stim069_animate_insect_butterfly_1.png	69	animate	insect	butterfly	1	0	2	stars	4	correct	2.72073276402239
80461	1	stim157_inanimate_furniture_table_1.png	157	inanimate	furniture	table	1	0	2	stars	4	correct	2.72073276402239
80661	1	stim007_animate_aquatic_fish_3.png	7	animate	aquatic	fish	3	0	2	stars	4	correct	2.72073276402239
80861	1	stim028_animate_bird_duck_4.png	28	animate	bird	duck	4	0	2	stars	4	correct	2.72073276402239
81061	1	stim133_inanimate_fruits_pineapple_1.png	133	inanimate	fruits	pineapple	1	0	2	stars	4	correct	2.72073276402239
81261	1	stim053_animate_human_faces_1.png	53	animate	human	faces	1	0	2	stars	4	correct	2.72073276402239
81461	1	stim054_animate_human_faces_2.png	54	animate	human	faces	2	0	2	stars	4	correct	2.72073276402239
81661	1	stim079_animate_insect_grasshopper_3.png	79	animate	insect	grasshopper	3	0	2	stars	4	correct	2.72073276402239
81861	1	stim008_animate_aquatic_fish_4.png	8	animate	aquatic	fish	4	0	2	stars	4	correct	2.72073276402239
82061	1	stim109_inanimate_clothing_jeans_1.png	109	inanimate	clothing	jeans	1	0	2	stars	4	correct	2.72073276402239
82261	1	stim001_animate_aquatic_crab_1.png	1	animate	aquatic	crab	1	0	2	stars	4	correct	2.72073276402239
82462	1	stim184_inanimate_tools_broom_4.png	184	inanimate	tools	broom	4	0	2	stars	4	correct	2.72073276402239
82661	1	stim067_animate_insect_bug_3.png	67	animate	insect	bug	3	0	2	stars	4	correct	2.72073276402239
82861	1	stim110_inanimate_clothing_jeans_2.png	110	inanimate	clothing	jeans	2	0	2	stars	4	correct	2.72073276402239
83061	1	stim161_inanimate_plants_bush_1.png	161	inanimate	plants	bush	1	0	2	stars	4	correct	2.72073276402239
83262	1	stim005_animate_aquatic_fish_1.png	5	animate	aquatic	fish	1	0	2	stars	4	correct	2.72073276402239
83461	1	stim155_inanimate_furniture_sofa_3.png	155	inanimate	furniture	sofa	3	0	2	stars	4	correct	2.72073276402239
83661	1	stim106_inanimate_clothing_hat_2.png	106	inanimate	clothing	hat	2	0	2	stars	4	correct	2.72073276402239
83861	1	stim085_animate_mammal_giraffe_1.png	85	animate	mammal	giraffe	1	0	2	stars	4	correct	2.72073276402239
84062	1	stim107_inanimate_clothing_hat_3.png	107	inanimate	clothing	hat	3	0	2	stars	4	correct	2.72073276402239
84261	1	stim119_inanimate_clothing_socks_3.png	119	inanimate	clothing	socks	3	0	2	stars	4	correct	2.72073276402239
84462	1	stim118_inanimate_clothing_socks_2.png	118	inanimate	clothing	socks	2	0	2	stars	4	correct	2.72073276402239
84662	1	stim112_inanimate_clothing_jeans_4.png	112	inanimate	clothing	jeans	4	0	2	stars	4	correct	2.72073276402239
84862	1	stim134_inanimate_fruits_pineapple_2.png	134	inanimate	fruits	pineapple	2	0	2	stars	4	correct	2.72073276402239
85062	1	stim082_animate_mammal_cow_2.png	82	animate	mammal	cow	2	0	2	stars	4	correct	2.72073276402239
85262	1	stim055_animate_human_faces_3.png	55	animate	human	faces	3	0	2	stars	4	correct	2.72073276402239
85462	1	stim059_animate_human_sports_3.png	59	animate	human	sports	3	0	2	stars	4	correct	2.72073276402239
85662	1	stim158_inanimate_furniture_table_2.png	158	inanimate	furniture	table	2	0	2	stars	4	correct	2.72073276402239
85862	1	stim181_inanimate_tools_broom_1.png	181	inanimate	tools	broom	1	0	2	stars	4	correct	2.72073276402239
86062	1	stim097_animate_mammal_rhino_1.png	97	animate	mammal	rhino	1	0	2	stars	4	correct	2.72073276402239
86262	1	stim164_inanimate_plants_bush_4.png	164	inanimate	plants	bush	4	0	2	stars	4	correct	2.72073276402239
86462	1	stim216_targets_shapes_star_4.png	216	targets	shapes	star	4	1	2	stars	4	correct	2.72073276402239
86662	1	stim036_animate_bird_peacock_4.png	36	animate	bird	peacock	4	0	2	stars	4	correct	2.72073276402239
86862	1	stim034_animate_bird_peacock_2.png	34	animate	bird	peacock	2	0	2	stars	4	correct	2.72073276402239
87062	1	stim198_inanimate_tools_wrench_2.png	198	inanimate	tools	wrench	2	0	2	stars	4	correct	2.72073276402239
87262	1	stim175_inanimate_plants_tree_3.png	175	inanimate	plants	tree	3	0	2	stars	4	correct	2.72073276402239
87462	1	stim167_inanimate_plants_cactus_3.png	167	inanimate	plants	cactus	3	0	2	stars	4	correct	2.72073276402239
87662	1	stim166_inanimate_plants_cactus_2.png	166	inanimate	plants	cactus	2	0	2	stars	4	correct	2.72073276402239
87862	1	stim076_animate_insect_dragonfly_4.png	76	animate	insect	dragonfly	4	0	2	stars	4	correct	2.72073276402239
88062	1	stim156_inanimate_furniture_sofa_4.png	156	inanimate	furniture	sofa	4	0	2	stars	4	correct	2.72073276402239
88262	1	stim045_animate_human_child_1.png	45	animate	human	child	1	0	2	stars	4	correct	2.72073276402239
88462	1	stim131_inanimate_fruits_grape_3.png	131	inanimate	fruits	grape	3	0	2	stars	4	correct	2.72073276402239
88662	1	stim064_animate_insect_ant_4.png	64	animate	insect	ant	4	0	2	stars	4	correct	2.72073276402239
88862	1	stim024_animate_bird_chicken_4.png	24	animate	bird	chicken	4	0	2	stars	4	correct	2.72073276402239
89062	1	stim180_inanimate_plants_tulip_4.png	180	inanimate	plants	tulip	4	0	2	stars	4	correct	2.72073276402239
89262	1	stim063_animate_insect_ant_3.png	63	animate	insect	ant	3	0	2	stars	4	correct	2.72073276402239
89462	1	stim015_animate_aquatic_shark_3.png	15	animate	aquatic	shark	3	0	2	stars	4	correct	2.72073276402239
89662	1	stim020_animate_aquatic_shrimp_4.png	20	animate	aquatic	shrimp	4	0	2	stars	4	correct	2.72073276402239
89862	1	stim160_inanimate_furniture_table_4.png	160	inanimate	furniture	table	4	0	2	stars	4	correct	2.72073276402239
90062	1	stim103_inanimate_clothing_gloves_3.png	103	inanimate	clothing	gloves	3	0	2	stars	4	correct	2.72073276402239
90262	1	stim004_animate_aquatic_crab_4.png	4	animate	aquatic	crab	4	0	2	stars	4	correct	2.72073276402239
90462	1	stim073_animate_insect_dragonfly_1.png	73	animate	insect	dragonfly	1	0	2	stars	4	correct	2.72073276402239
90662	1	stim153_inanimate_furniture_sofa_1.png	153	inanimate	furniture	sofa	1	0	2	stars	4	correct	2.72073276402239
90862	1	stim002_animate_aquatic_crab_2.png	2	animate	aquatic	crab	2	0	2	stars	4	correct	2.72073276402239
91062	1	stim116_inanimate_clothing_shirt_4.png	116	inanimate	clothing	shirt	4	0	2	stars	4	correct	2.72073276402239
91262	1	stim010_animate_aquatic_seahorse_2.png	10	animate	aquatic	seahorse	2	0	2	stars	4	correct	2.72073276402239
91462	1	stim068_animate_insect_bug_4.png	68	animate	insect	bug	4	0	2	stars	4	correct	2.72073276402239
91662	1	stim012_animate_aquatic_seahorse_4.png	12	animate	aquatic	seahorse	4	0	2	stars	4	correct	2.72073276402239
91862	1	stim179_inanimate_plants_tulip_3.png	179	inanimate	plants	tulip	3	0	2	stars	4	correct	2.72073276402239
92062	1	stim182_inanimate_tools_broom_2.png	182	inanimate	tools	broom	2	0	2	stars	4	correct	2.72073276402239
92262	1	stim122_inanimate_fruits_apple_2.png	122	inanimate	fruits	apple	2	0	2	stars	4	correct	2.72073276402239
92462	1	stim151_inanimate_furniture_closet_3.png	151	inanimate	furniture	closet	3	0	2	stars	4	correct	2.72073276402239
92662	1	stim052_animate_human_clown_4.png	52	animate	human	clown	4	0	2	stars	4	correct	2.72073276402239
92862	1	stim083_animate_mammal_cow_3.png	83	animate	mammal	cow	3	0	2	stars	4	correct	2.72073276402239
93062	1	stim121_inanimate_fruits_apple_1.png	121	inanimate	fruits	apple	1	0	2	stars	4	correct	2.72073276402239
93262	1	stim009_animate_aquatic_seahorse_1.png	9	animate	aquatic	seahorse	1	0	2	stars	4	correct	2.72073276402239
93462	1	stim147_inanimate_furniture_chair_3.png	147	inanimate	furniture	chair	3	0	2	stars	4	correct	2.72073276402239
93662	1	stim214_targets_shapes_star_2.png	214	targets	shapes	star	2	1	2	stars	4	correct	2.72073276402239
93862	1	stim178_inanimate_plants_tulip_2.png	178	inanimate	plants	tulip	2	0	2	stars	4	correct	2.72073276402239
94062	1	stim128_inanimate_fruits_banana_4.png	128	inanimate	fruits	banana	4	0	2	stars	4	correct	2.72073276402239
94262	1	stim125_inanimate_fruits_banana_1.png	125	inanimate	fruits	banana	1	0	2	stars	4	correct	2.72073276402239
94462	1	stim108_inanimate_clothing_hat_4.png	108	inanimate	clothing	hat	4	0	2	stars	4	correct	2.72073276402239
94662	1	stim037_animate_bird_penguin_1.png	37	animate	bird	penguin	1	0	2	stars	4	correct	2.72073276402239
94862	1	stim062_animate_insect_ant_2.png	62	animate	insect	ant	2	0	2	stars	4	correct	2.72073276402239
95062	1	stim011_animate_aquatic_seahorse_3.png	11	animate	aquatic	seahorse	3	0	2	stars	4	correct	2.72073276402239
95262	1	stim081_animate_mammal_cow_1.png	81	animate	mammal	cow	1	0	2	stars	4	correct	2.72073276402239
95462	1	stim060_animate_human_sports_4.png	60	animate	human	sports	4	0	2	stars	4	correct	2.72073276402239
95662	1	stim086_animate_mammal_giraffe_2.png	86	animate	mammal	giraffe	2	0	2	stars	4	correct	2.72073276402239
95862	1	stim038_animate_bird_penguin_2.png	38	animate	bird	penguin	2	0	2	stars	4	correct	2.72073276402239
96062	1	stim094_animate_mammal_monkey_2.png	94	animate	mammal	monkey	2	0	2	stars	4	correct	2.72073276402239
96262	1	stim162_inanimate_plants_bush_2.png	162	inanimate	plants	bush	2	0	2	stars	4	correct	2.72073276402239
96462	1	stim074_animate_insect_dragonfly_2.png	74	animate	insect	dragonfly	2	0	2	stars	4	correct	2.72073276402239
96662	1	stim033_animate_bird_peacock_1.png	33	animate	bird	peacock	1	0	2	stars	4	correct	2.72073276402239
96862	1	stim102_inanimate_clothing_gloves_2.png	102	inanimate	clothing	gloves	2	0	2	stars	4	correct	2.72073276402239
97062	1	stim190_inanimate_tools_pan_2.png	190	inanimate	tools	pan	2	0	2	stars	4	correct	2.72073276402239
97262	1	stim056_animate_human_faces_4.png	56	animate	human	faces	4	0	2	stars	4	correct	2.72073276402239
97462	1	stim022_animate_bird_chicken_2.png	22	animate	bird	chicken	2	0	2	stars	4	correct	2.72073276402239
97662	1	stim017_animate_aquatic_shrimp_1.png	17	animate	aquatic	shrimp	1	0	2	stars	4	correct	2.72073276402239
97862	1	stim177_inanimate_plants_tulip_1.png	177	inanimate	plants	tulip	1	0	2	stars	4	correct	2.72073276402239
98062	1	stim173_inanimate_plants_tree_1.png	173	inanimate	plants	tree	1	0	2	stars	4	correct	2.72073276402239
98262	1	stim200_inanimate_tools_wrench_4.png	200	inanimate	tools	wrench	4	0	2	stars	4	correct	2.72073276402239
98462	1	stim187_inanimate_tools_hammer_3.png	187	inanimate	tools	hammer	3	0	2	stars	4	correct	2.72073276402239
98662	1	stim029_animate_bird_parrot_1.png	29	animate	bird	parrot	1	0	2	stars	4	correct	2.72073276402239
98862	1	stim087_animate_mammal_giraffe_3.png	87	animate	mammal	giraffe	3	0	2	stars	4	correct	2.72073276402239
99062	1	stim006_animate_aquatic_fish_2.png	6	animate	aquatic	fish	2	0	2	stars	4	correct	2.72073276402239
99262	1	stim048_animate_human_child_4.png	48	animate	human	child	4	0	2	stars	4	correct	2.72073276402239
99462	1	stim095_animate_mammal_monkey_3.png	95	animate	mammal	monkey	3	0	2	stars	4	correct	2.72073276402239
99662	1	stim041_animate_human_baby_1.png	41	animate	human	baby	1	0	2	stars	4	correct	2.72073276402239
99862	1	stim030_animate_bird_parrot_2.png	30	animate	bird	parrot	2	0	2	stars	4	correct	2.72073276402239
100062	1	stim072_animate_insect_butterfly_4.png	72	animate	insect	butterfly	4	0	2	stars	4	correct	2.72073276402239
100262	1	stim186_inanimate_tools_hammer_2.png	186	inanimate	tools	hammer	2	0	2	stars	4	correct	2.72073276402239
100462	1	stim210_targets_shapes_star_2.png	210	targets	shapes	star	2	1	2	stars	4	correct	2.72073276402239
100662	1	stim061_animate_insect_ant_1.png	61	animate	insect	ant	1	0	2	stars	4	correct	2.72073276402239
100862	1	stim099_animate_mammal_rhino_3.png	99	animate	mammal	rhino	3	0	2	stars	4	correct	2.72073276402239
101062	1	stim149_inanimate_furniture_closet_1.png	149	inanimate	furniture	closet	1	0	2	stars	4	correct	2.72073276402239
101262	1	stim183_inanimate_tools_broom_3.png	183	inanimate	tools	broom	3	0	2	stars	4	correct	2.72073276402239
101462	1	stim172_inanimate_plants_sunflower_4.png	172	inanimate	plants	sunflower	4	0	2	stars	4	correct	2.72073276402239
101662	1	stim101_inanimate_clothing_gloves_1.png	101	inanimate	clothing	gloves	1	0	2	stars	4	correct	2.72073276402239
101862	1	stim137_inanimate_fruits_strawberry_1.png	137	inanimate	fruits	strawberry	1	0	2	stars	4	correct	2.72073276402239
102062	1	stim018_animate_aquatic_shrimp_2.png	18	animate	aquatic	shrimp	2	0	2	stars	4	correct	2.72073276402239
102262	1	stim098_animate_mammal_rhino_2.png	98	animate	mammal	rhino	2	0	2	stars	4	correct	2.72073276402239
102462	1	stim025_animate_bird_duck_1.png	25	animate	bird	duck	1	0	2	stars	4	correct	2.72073276402239
102662	1	stim132_inanimate_fruits_grape_4.png	132	inanimate	fruits	grape	4	0	2	stars	4	correct	2.72073276402239
102862	1	stim196_inanimate_tools_scissors_4.png	196	inanimate	tools	scissors	4	0	2	stars	4	correct	2.72073276402239
103062	1	stim143_inanimate_furniture_bed_3.png	143	inanimate	furniture	bed	3	0	2	stars	4	correct	2.72073276402239
103262	1	stim127_inanimate_fruits_banana_3.png	127	inanimate	fruits	banana	3	0	2	stars	4	correct	2.72073276402239
103462	1	stim144_inanimate_furniture_bed_4.png	144	inanimate	furniture	bed	4	0	2	stars	4	correct	2.72073276402239
103662	1	stim111_inanimate_clothing_jeans_3.png	111	inanimate	clothing	jeans	3	0	2	stars	4	correct	2.72073276402239
103862	1	stim145_inanimate_furniture_chair_1.png	145	inanimate	furniture	chair	1	0	2	stars	4	correct	2.72073276402239
104062	1	stim185_inanimate_tools_hammer_1.png	185	inanimate	tools	hammer	1	0	2	stars	4	correct	2.72073276402239
104262	1	stim136_inanimate_fruits_pineapple_4.png	136	inanimate	fruits	pineapple	4	0	2	stars	4	correct	2.72073276402239
104462	1	stim039_animate_bird_penguin_3.png	39	animate	bird	penguin	3	0	2	stars	4	correct	2.72073276402239
104662	1	stim195_inanimate_tools_scissors_3.png	195	inanimate	tools	scissors	3	0	2	stars	4	correct	2.72073276402239
104862	1	stim129_inanimate_fruits_grape_1.png	129	inanimate	fruits	grape	1	0	2	stars	4	correct	2.72073276402239
105062	1	stim189_inanimate_tools_pan_1.png	189	inanimate	tools	pan	1	0	2	stars	4	correct	2.72073276402239
105262	1	stim100_animate_mammal_rhino_4.png	100	animate	mammal	rhino	4	0	2	stars	4	correct	2.72073276402239
105462	1	stim003_animate_aquatic_crab_3.png	3	animate	aquatic	crab	3	0	2	stars	4	correct	2.72073276402239
105662	1	stim096_animate_mammal_monkey_4.png	96	animate	mammal	monkey	4	0	2	stars	4	correct	2.72073276402239
105862	1	stim168_inanimate_plants_cactus_4.png	168	inanimate	plants	cactus	4	0	2	stars	4	correct	2.72073276402239
106062	1	stim199_inanimate_tools_wrench_3.png	199	inanimate	tools	wrench	3	0	2	stars	4	correct	2.72073276402239
106262	1	stim023_animate_bird_chicken_3.png	23	animate	bird	chicken	3	0	2	stars	4	correct	2.72073276402239
106462	1	stim016_animate_aquatic_shark_4.png	16	animate	aquatic	shark	4	0	2	stars	4	correct	2.72073276402239
106662	1	stim197_inanimate_tools_wrench_1.png	197	inanimate	tools	wrench	1	0	2	stars	4	correct	2.72073276402239
106862	1	stim050_animate_human_clown_2.png	50	animate	human	clown	2	0	2	stars	4	correct	2.72073276402239
107062	1	stim105_inanimate_clothing_hat_1.png	105	inanimate	clothing	hat	1	0	2	stars	4	correct	2.72073276402239
107262	1	stim040_animate_bird_penguin_4.png	40	animate	bird	penguin	4	0	2	stars	4	correct	2.72073276402239
107462	1	stim120_inanimate_clothing_socks_4.png	120	inanimate	clothing	socks	4	0	2	stars	4	correct	2.72073276402239
107662	1	stim124_inanimate_fruits_apple_4.png	124	inanimate	fruits	apple	4	0	2	stars	4	correct	2.72073276402239
107862	1	stim135_inanimate_fruits_pineapple_3.png	135	inanimate	fruits	pineapple	3	0	2	stars	4	correct	2.72073276402239
108062	1	stim093_animate_mammal_monkey_1.png	93	animate	mammal	monkey	1	0	2	stars	4	correct	2.72073276402239
108262	1	stim126_inanimate_fruits_banana_2.png	126	inanimate	fruits	banana	2	0	2	stars	4	correct	2.72073276402239
108462	1	stim150_inanimate_furniture_closet_2.png	150	inanimate	furniture	closet	2	0	2	stars	4	correct	2.72073276402239
108662	1	stim212_targets_shapes_star_4.png	212	targets	shapes	star	4	1	2	stars	4	correct	2.72073276402239
108862	1	stim193_inanimate_tools_scissors_1.png	193	inanimate	tools	scissors	1	0	2	stars	4	correct	2.72073276402239
109062	1	stim115_inanimate_clothing_shirt_3.png	115	inanimate	clothing	shirt	3	0	2	stars	4	correct	2.72073276402239
109262	1	stim192_inanimate_tools_pan_4.png	192	inanimate	tools	pan	4	0	2	stars	4	correct	2.72073276402239
109462	1	stim058_animate_human_sports_2.png	58	animate	human	sports	2	0	2	stars	4	correct	2.72073276402239
109662	1	stim084_animate_mammal_cow_4.png	84	animate	mammal	cow	4	0	2	stars	4	correct	2.72073276402239
109862	1	stim194_inanimate_tools_scissors_2.png	194	inanimate	tools	scissors	2	0	2	stars	4	correct	2.72073276402239
110062	1	stim065_animate_insect_bug_1.png	65	animate	insect	bug	1	0	2	stars	4	correct	2.72073276402239
110262	1	stim146_inanimate_furniture_chair_2.png	146	inanimate	furniture	chair	2	0	2	stars	4	correct	2.72073276402239
110462	1	stim070_animate_insect_butterfly_2.png	70	animate	insect	butterfly	2	0	2	stars	4	correct	2.72073276402239
110662	1	stim021_animate_bird_chicken_1.png	21	animate	bird	chicken	1	0	2	stars	4	correct	2.72073276402239
110862	1	stim171_inanimate_plants_sunflower_3.png	171	inanimate	plants	sunflower	3	0	2	stars	4	correct	2.72073276402239
111062	1	stim046_animate_human_child_2.png	46	animate	human	child	2	0	2	stars	4	correct	2.72073276402239
111262	1	stim170_inanimate_plants_sunflower_2.png	170	inanimate	plants	sunflower	2	0	2	stars	4	correct	2.72073276402239
111462	1	stim159_inanimate_furniture_table_3.png	159	inanimate	furniture	table	3	0	2	stars	4	correct	2.72073276402239
111662	1	stim092_animate_mammal_kangaroo_4.png	92	animate	mammal	kangaroo	4	0	2	stars	4	correct	2.72073276402239
111862	1	stim071_animate_insect_butterfly_3.png	71	animate	insect	butterfly	3	0	2	stars	4	correct	2.72073276402239
112062	1	stim044_animate_human_baby_4.png	44	animate	human	baby	4	0	2	stars	4	correct	2.72073276402239
112262	1	stim138_inanimate_fruits_strawberry_2.png	138	inanimate	fruits	strawberry	2	0	2	stars	4	correct	2.72073276402239
112462	1	stim152_inanimate_furniture_closet_4.png	152	inanimate	furniture	closet	4	0	2	stars	4	correct	2.72073276402239
112662	1	stim139_inanimate_fruits_strawberry_3.png	139	inanimate	fruits	strawberry	3	0	2	stars	4	correct	2.72073276402239
112862	1	stim078_animate_insect_grasshopper_2.png	78	animate	insect	grasshopper	2	0	2	stars	4	correct	2.72073276402239
113062	1	stim117_inanimate_clothing_socks_1.png	117	inanimate	clothing	socks	1	0	2	stars	4	correct	2.72073276402239
113262	1	stim035_animate_bird_peacock_3.png	35	animate	bird	peacock	3	0	2	stars	4	correct	2.72073276402239
113462	1	stim174_inanimate_plants_tree_2.png	174	inanimate	plants	tree	2	0	2	stars	4	correct	2.72073276402239
113662	1	stim191_inanimate_tools_pan_3.png	191	inanimate	tools	pan	3	0	2	stars	4	correct	2.72073276402239
113862	1	stim142_inanimate_furniture_bed_2.png	142	inanimate	furniture	bed	2	0	2	stars	4	correct	2.72073276402239
114062	1	stim176_inanimate_plants_tree_4.png	176	inanimate	plants	tree	4	0	2	stars	4	correct	2.72073276402239
114262	1	stim049_animate_human_clown_1.png	49	animate	human	clown	1	0	2	stars	4	correct	2.72073276402239
114462	1	stim114_inanimate_clothing_shirt_2.png	114	inanimate	clothing	shirt	2	0	2	stars	4	correct	2.72073276402239
114662	1	stim066_animate_insect_bug_2.png	66	animate	insect	bug	2	0	2	stars	4	correct	2.72073276402239
114862	1	stim140_inanimate_fruits_strawberry_4.png	140	inanimate	fruits	strawberry	4	0	2	stars	4	correct	2.72073276402239
115062	1	stim051_animate_human_clown_3.png	51	animate	human	clown	3	0	2	stars	4	correct	2.72073276402239
115262	1	stim165_inanimate_plants_cactus_1.png	165	inanimate	plants	cactus	1	0	2	stars	4	correct	2.72073276402239
115462	1	stim080_animate_insect_grasshopper_4.png	80	animate	insect	grasshopper	4	0	2	stars	4	correct	2.72073276402239
115662	1	stim141_inanimate_furniture_bed_1.png	141	inanimate	furniture	bed	1	0	2	stars	4	correct	2.72073276402239
115862	1	stim014_animate_aquatic_shark_2.png	14	animate	aquatic	shark	2	0	2	stars	4	correct	2.72073276402239
116062	1	stim031_animate_bird_parrot_3.png	31	animate	bird	parrot	3	0	2	stars	4	correct	2.72073276402239
116262	1	stim043_animate_human_baby_3.png	43	animate	human	baby	3	0	2	stars	4	correct	2.72073276402239
116462	1	stim019_animate_aquatic_shrimp_3.png	19	animate	aquatic	shrimp	3	0	2	stars	4	correct	2.72073276402239
116662	1	stim032_animate_bird_parrot_4.png	32	animate	bird	parrot	4	0	2	stars	4	correct	2.72073276402239
116862	1	stim154_inanimate_furniture_sofa_2.png	154	inanimate	furniture	sofa	2	0	2	stars	4	correct	2.72073276402239
117062	1	stim113_inanimate_clothing_shirt_1.png	113	inanimate	clothing	shirt	1	0	2	stars	4	correct	2.72073276402239
117262	1	stim163_inanimate_plants_bush_3.png	163	inanimate	plants	bush	3	0	2	stars	4	correct	2.72073276402239
117462	1	stim090_animate_mammal_kangaroo_2.png	90	animate	mammal	kangaroo	2	0	2	stars	4	correct	2.72073276402239
117662	1	stim169_inanimate_plants_sunflower_1.png	169	inanimate	plants	sunflower	1	0	2	stars	4	correct	2.72073276402239
117862	1	stim075_animate_insect_dragonfly_3.png	75	animate	insect	dragonfly	3	0	2	stars	4	correct	2.72073276402239
127863	1	stim097_animate_mammal_rhino_1.png	97	animate	mammal	rhino	1	0	3	boats	2	incorrect	2.11018279359632
128063	1	stim197_inanimate_tools_wrench_1.png	197	inanimate	tools	wrench	1	0	3	boats	2	incorrect	2.11018279359632
128263	1	stim142_inanimate_furniture_bed_2.png	142	inanimate	furniture	bed	2	0	3	boats	2	incorrect	2.11018279359632
128463	1	stim152_inanimate_furniture_closet_4.png	152	inanimate	furniture	closet	4	0	3	boats	2	incorrect	2.11018279359632
128663	1	stim058_animate_human_sports_2.png	58	animate	human	sports	2	0	3	boats	2	incorrect	2.11018279359632
128863	1	stim138_inanimate_fruits_strawberry_2.png	138	inanimate	fruits	strawberry	2	0	3	boats	2	incorrect	2.11018279359632
129063	1	stim100_animate_mammal_rhino_4.png	100	animate	mammal	rhino	4	0	3	boats	2	incorrect	2.11018279359632
129263	1	stim102_inanimate_clothing_gloves_2.png	102	inanimate	clothing	gloves	2	0	3	boats	2	incorrect	2.11018279359632
129463	1	stim186_inanimate_tools_hammer_2.png	186	inanimate	tools	hammer	2	0	3	boats	2	incorrect	2.11018279359632
129663	1	stim085_animate_mammal_giraffe_1.png	85	animate	mammal	giraffe	1	0	3	boats	2	incorrect	2.11018279359632
129863	1	stim184_inanimate_tools_broom_4.png	184	inanimate	tools	broom	4	0	3	boats	2	incorrect	2.11018279359632
130063	1	stim048_animate_human_child_4.png	48	animate	human	child	4	0	3	boats	2	incorrect	2.11018279359632
130263	1	stim079_animate_insect_grasshopper_3.png	79	animate	insect	grasshopper	3	0	3	boats	2	incorrect	2.11018279359632
130463	1	stim095_animate_mammal_monkey_3.png	95	animate	mammal	monkey	3	0	3	boats	2	incorrect	2.11018279359632
130663	1	stim107_inanimate_clothing_hat_3.png	107	inanimate	clothing	hat	3	0	3	boats	2	incorrect	2.11018279359632
130863	1	stim114_inanimate_clothing_shirt_2.png	114	inanimate	clothing	shirt	2	0	3	boats	2	incorrect	2.11018279359632
131063	1	stim013_animate_aquatic_shark_1.png	13	animate	aquatic	shark	1	0	3	boats	2	incorrect	2.11018279359632
131263	1	stim028_animate_bird_duck_4.png	28	animate	bird	duck	4	0	3	boats	2	incorrect	2.11018279359632
131463	1	stim042_animate_human_baby_2.png	42	animate	human	baby	2	0	3	boats	2	incorrect	2.11018279359632
131663	1	stim044_animate_human_baby_4.png	44	animate	human	baby	4	0	3	boats	2	incorrect	2.11018279359632
131863	1	stim169_inanimate_plants_sunflower_1.png	169	inanimate	plants	sunflower	1	0	3	boats	2	incorrect	2.11018279359632
132063	1	stim199_inanimate_tools_wrench_3.png	199	inanimate	tools	wrench	3	0	3	boats	2	incorrect	2.11018279359632
132263	1	stim119_inanimate_clothing_socks_3.png	119	inanimate	clothing	socks	3	0	3	boats	2	incorrect	2.11018279359632
132463	1	stim123_inanimate_fruits_apple_3.png	123	inanimate	fruits	apple	3	0	3	boats	2	incorrect	2.11018279359632
132663	1	stim070_animate_insect_butterfly_2.png	70	animate	insect	butterfly	2	0	3	boats	2	incorrect	2.11018279359632
132863	1	stim075_animate_insect_dragonfly_3.png	75	animate	insect	dragonfly	3	0	3	boats	2	incorrect	2.11018279359632
133063	1	stim135_inanimate_fruits_pineapple_3.png	135	inanimate	fruits	pineapple	3	0	3	boats	2	incorrect	2.11018279359632
133263	1	stim182_inanimate_tools_broom_2.png	182	inanimate	tools	broom	2	0	3	boats	2	incorrect	2.11018279359632
133463	1	stim193_inanimate_tools_scissors_1.png	193	inanimate	tools	scissors	1	0	3	boats	2	incorrect	2.11018279359632
133663	1	stim101_inanimate_clothing_gloves_1.png	101	inanimate	clothing	gloves	1	0	3	boats	2	incorrect	2.11018279359632
133863	1	stim046_animate_human_child_2.png	46	animate	human	child	2	0	3	boats	2	incorrect	2.11018279359632
134063	1	stim014_animate_aquatic_shark_2.png	14	animate	aquatic	shark	2	0	3	boats	2	incorrect	2.11018279359632
134263	1	stim108_inanimate_clothing_hat_4.png	108	inanimate	clothing	hat	4	0	3	boats	2	incorrect	2.11018279359632
134463	1	stim188_inanimate_tools_hammer_4.png	188	inanimate	tools	hammer	4	0	3	boats	2	incorrect	2.11018279359632
134663	1	stim106_inanimate_clothing_hat_2.png	106	inanimate	clothing	hat	2	0	3	boats	2	incorrect	2.11018279359632
134863	1	stim016_animate_aquatic_shark_4.png	16	animate	aquatic	shark	4	0	3	boats	2	incorrect	2.11018279359632
135063	1	stim168_inanimate_plants_cactus_4.png	168	inanimate	plants	cactus	4	0	3	boats	2	incorrect	2.11018279359632
135263	1	stim001_animate_aquatic_crab_1.png	1	animate	aquatic	crab	1	0	3	boats	2	incorrect	2.11018279359632
135463	1	stim133_inanimate_fruits_pineapple_1.png	133	inanimate	fruits	pineapple	1	0	3	boats	2	incorrect	2.11018279359632
135663	1	stim061_animate_insect_ant_1.png	61	animate	insect	ant	1	0	3	boats	2	incorrect	2.11018279359632
135863	1	stim137_inanimate_fruits_strawberry_1.png	137	inanimate	fruits	strawberry	1	0	3	boats	2	incorrect	2.11018279359632
136063	1	stim064_animate_insect_ant_4.png	64	animate	insect	ant	4	0	3	boats	2	incorrect	2.11018279359632
136263	1	stim059_animate_human_sports_3.png	59	animate	human	sports	3	0	3	boats	2	incorrect	2.11018279359632
136463	1	stim166_inanimate_plants_cactus_2.png	166	inanimate	plants	cactus	2	0	3	boats	2	incorrect	2.11018279359632
136663	1	stim143_inanimate_furniture_bed_3.png	143	inanimate	furniture	bed	3	0	3	boats	2	incorrect	2.11018279359632
136863	1	stim196_inanimate_tools_scissors_4.png	196	inanimate	tools	scissors	4	0	3	boats	2	incorrect	2.11018279359632
137063	1	stim171_inanimate_plants_sunflower_3.png	171	inanimate	plants	sunflower	3	0	3	boats	2	incorrect	2.11018279359632
137263	1	stim177_inanimate_plants_tulip_1.png	177	inanimate	plants	tulip	1	0	3	boats	2	incorrect	2.11018279359632
137463	1	stim067_animate_insect_bug_3.png	67	animate	insect	bug	3	0	3	boats	2	incorrect	2.11018279359632
137663	1	stim018_animate_aquatic_shrimp_2.png	18	animate	aquatic	shrimp	2	0	3	boats	2	incorrect	2.11018279359632
137863	1	stim122_inanimate_fruits_apple_2.png	122	inanimate	fruits	apple	2	0	3	boats	2	incorrect	2.11018279359632
138063	1	stim187_inanimate_tools_hammer_3.png	187	inanimate	tools	hammer	3	0	3	boats	2	incorrect	2.11018279359632
138263	1	stim053_animate_human_faces_1.png	53	animate	human	faces	1	0	3	boats	2	incorrect	2.11018279359632
138463	1	stim025_animate_bird_duck_1.png	25	animate	bird	duck	1	0	3	boats	2	incorrect	2.11018279359632
138663	1	stim203_targets_object_boats_3.png	203	targets	object	boats	3	1	3	boats	2	incorrect	2.11018279359632
138863	1	stim125_inanimate_fruits_banana_1.png	125	inanimate	fruits	banana	1	0	3	boats	2	incorrect	2.11018279359632
139063	1	stim200_inanimate_tools_wrench_4.png	200	inanimate	tools	wrench	4	0	3	boats	2	incorrect	2.11018279359632
139263	1	stim118_inanimate_clothing_socks_2.png	118	inanimate	clothing	socks	2	0	3	boats	2	incorrect	2.11018279359632
139463	1	stim088_animate_mammal_giraffe_4.png	88	animate	mammal	giraffe	4	0	3	boats	2	incorrect	2.11018279359632
139663	1	stim110_inanimate_clothing_jeans_2.png	110	inanimate	clothing	jeans	2	0	3	boats	2	incorrect	2.11018279359632
139863	1	stim083_animate_mammal_cow_3.png	83	animate	mammal	cow	3	0	3	boats	2	incorrect	2.11018279359632
140063	1	stim120_inanimate_clothing_socks_4.png	120	inanimate	clothing	socks	4	0	3	boats	2	incorrect	2.11018279359632
140263	1	stim094_animate_mammal_monkey_2.png	94	animate	mammal	monkey	2	0	3	boats	2	incorrect	2.11018279359632
140463	1	stim041_animate_human_baby_1.png	41	animate	human	baby	1	0	3	boats	2	incorrect	2.11018279359632
140663	1	stim065_animate_insect_bug_1.png	65	animate	insect	bug	1	0	3	boats	2	incorrect	2.11018279359632
140863	1	stim134_inanimate_fruits_pineapple_2.png	134	inanimate	fruits	pineapple	2	0	3	boats	2	incorrect	2.11018279359632
141063	1	stim006_animate_aquatic_fish_2.png	6	animate	aquatic	fish	2	0	3	boats	2	incorrect	2.11018279359632
141263	1	stim087_animate_mammal_giraffe_3.png	87	animate	mammal	giraffe	3	0	3	boats	2	incorrect	2.11018279359632
141463	1	stim180_inanimate_plants_tulip_4.png	180	inanimate	plants	tulip	4	0	3	boats	2	incorrect	2.11018279359632
141663	1	stim175_inanimate_plants_tree_3.png	175	inanimate	plants	tree	3	0	3	boats	2	incorrect	2.11018279359632
141863	1	stim002_animate_aquatic_crab_2.png	2	animate	aquatic	crab	2	0	3	boats	2	incorrect	2.11018279359632
142063	1	stim055_animate_human_faces_3.png	55	animate	human	faces	3	0	3	boats	2	incorrect	2.11018279359632
142263	1	stim035_animate_bird_peacock_3.png	35	animate	bird	peacock	3	0	3	boats	2	incorrect	2.11018279359632
142463	1	stim155_inanimate_furniture_sofa_3.png	155	inanimate	furniture	sofa	3	0	3	boats	2	incorrect	2.11018279359632
142663	1	stim068_animate_insect_bug_4.png	68	animate	insect	bug	4	0	3	boats	2	incorrect	2.11018279359632
142863	1	stim011_animate_aquatic_seahorse_3.png	11	animate	aquatic	seahorse	3	0	3	boats	2	incorrect	2.11018279359632
143063	1	stim010_animate_aquatic_seahorse_2.png	10	animate	aquatic	seahorse	2	0	3	boats	2	incorrect	2.11018279359632
143263	1	stim098_animate_mammal_rhino_2.png	98	animate	mammal	rhino	2	0	3	boats	2	incorrect	2.11018279359632
143463	1	stim178_inanimate_plants_tulip_2.png	178	inanimate	plants	tulip	2	0	3	boats	2	incorrect	2.11018279359632
143663	1	stim150_inanimate_furniture_closet_2.png	150	inanimate	furniture	closet	2	0	3	boats	2	incorrect	2.11018279359632
143863	1	stim009_animate_aquatic_seahorse_1.png	9	animate	aquatic	seahorse	1	0	3	boats	2	incorrect	2.11018279359632
144063	1	stim136_inanimate_fruits_pineapple_4.png	136	inanimate	fruits	pineapple	4	0	3	boats	2	incorrect	2.11018279359632
144263	1	stim129_inanimate_fruits_grape_1.png	129	inanimate	fruits	grape	1	0	3	boats	2	incorrect	2.11018279359632
144463	1	stim081_animate_mammal_cow_1.png	81	animate	mammal	cow	1	0	3	boats	2	incorrect	2.11018279359632
144663	1	stim030_animate_bird_parrot_2.png	30	animate	bird	parrot	2	0	3	boats	2	incorrect	2.11018279359632
144863	1	stim116_inanimate_clothing_shirt_4.png	116	inanimate	clothing	shirt	4	0	3	boats	2	incorrect	2.11018279359632
145063	1	stim096_animate_mammal_monkey_4.png	96	animate	mammal	monkey	4	0	3	boats	2	incorrect	2.11018279359632
145263	1	stim189_inanimate_tools_pan_1.png	189	inanimate	tools	pan	1	0	3	boats	2	incorrect	2.11018279359632
145463	1	stim021_animate_bird_chicken_1.png	21	animate	bird	chicken	1	0	3	boats	2	incorrect	2.11018279359632
145663	1	stim003_animate_aquatic_crab_3.png	3	animate	aquatic	crab	3	0	3	boats	2	incorrect	2.11018279359632
145863	1	stim020_animate_aquatic_shrimp_4.png	20	animate	aquatic	shrimp	4	0	3	boats	2	incorrect	2.11018279359632
146063	1	stim063_animate_insect_ant_3.png	63	animate	insect	ant	3	0	3	boats	2	incorrect	2.11018279359632
146263	1	stim205_targets_object_boats_1.png	205	targets	object	boats	1	1	3	boats	2	incorrect	2.11018279359632
146463	1	stim111_inanimate_clothing_jeans_3.png	111	inanimate	clothing	jeans	3	0	3	boats	2	incorrect	2.11018279359632
146663	1	stim195_inanimate_tools_scissors_3.png	195	inanimate	tools	scissors	3	0	3	boats	2	incorrect	2.11018279359632
146863	1	stim185_inanimate_tools_hammer_1.png	185	inanimate	tools	hammer	1	0	3	boats	2	incorrect	2.11018279359632
147063	1	stim005_animate_aquatic_fish_1.png	5	animate	aquatic	fish	1	0	3	boats	2	incorrect	2.11018279359632
147263	1	stim170_inanimate_plants_sunflower_2.png	170	inanimate	plants	sunflower	2	0	3	boats	2	incorrect	2.11018279359632
147463	1	stim103_inanimate_clothing_gloves_3.png	103	inanimate	clothing	gloves	3	0	3	boats	2	incorrect	2.11018279359632
147663	1	stim127_inanimate_fruits_banana_3.png	127	inanimate	fruits	banana	3	0	3	boats	2	incorrect	2.11018279359632
147863	1	stim191_inanimate_tools_pan_3.png	191	inanimate	tools	pan	3	0	3	boats	2	incorrect	2.11018279359632
148063	1	stim084_animate_mammal_cow_4.png	84	animate	mammal	cow	4	0	3	boats	2	incorrect	2.11018279359632
148263	1	stim054_animate_human_faces_2.png	54	animate	human	faces	2	0	3	boats	2	incorrect	2.11018279359632
148463	1	stim121_inanimate_fruits_apple_1.png	121	inanimate	fruits	apple	1	0	3	boats	2	incorrect	2.11018279359632
148663	1	stim074_animate_insect_dragonfly_2.png	74	animate	insect	dragonfly	2	0	3	boats	2	incorrect	2.11018279359632
148863	1	stim026_animate_bird_duck_2.png	26	animate	bird	duck	2	0	3	boats	2	incorrect	2.11018279359632
149063	1	stim049_animate_human_clown_1.png	49	animate	human	clown	1	0	3	boats	2	incorrect	2.11018279359632
149263	1	stim019_animate_aquatic_shrimp_3.png	19	animate	aquatic	shrimp	3	0	3	boats	2	incorrect	2.11018279359632
149463	1	stim174_inanimate_plants_tree_2.png	174	inanimate	plants	tree	2	0	3	boats	2	incorrect	2.11018279359632
149663	1	stim007_animate_aquatic_fish_3.png	7	animate	aquatic	fish	3	0	3	boats	2	incorrect	2.11018279359632
149863	1	stim115_inanimate_clothing_shirt_3.png	115	inanimate	clothing	shirt	3	0	3	boats	2	incorrect	2.11018279359632
150063	1	stim024_animate_bird_chicken_4.png	24	animate	bird	chicken	4	0	3	boats	2	incorrect	2.11018279359632
150263	1	stim126_inanimate_fruits_banana_2.png	126	inanimate	fruits	banana	2	0	3	boats	2	incorrect	2.11018279359632
150463	1	stim023_animate_bird_chicken_3.png	23	animate	bird	chicken	3	0	3	boats	2	incorrect	2.11018279359632
150663	1	stim077_animate_insect_grasshopper_1.png	77	animate	insect	grasshopper	1	0	3	boats	2	incorrect	2.11018279359632
150863	1	stim052_animate_human_clown_4.png	52	animate	human	clown	4	0	3	boats	2	incorrect	2.11018279359632
151063	1	stim149_inanimate_furniture_closet_1.png	149	inanimate	furniture	closet	1	0	3	boats	2	incorrect	2.11018279359632
151263	1	stim192_inanimate_tools_pan_4.png	192	inanimate	tools	pan	4	0	3	boats	2	incorrect	2.11018279359632
151463	1	stim037_animate_bird_penguin_1.png	37	animate	bird	penguin	1	0	3	boats	2	incorrect	2.11018279359632
151663	1	stim141_inanimate_furniture_bed_1.png	141	inanimate	furniture	bed	1	0	3	boats	2	incorrect	2.11018279359632
151863	1	stim050_animate_human_clown_2.png	50	animate	human	clown	2	0	3	boats	2	incorrect	2.11018279359632
152063	1	stim062_animate_insect_ant_2.png	62	animate	insect	ant	2	0	3	boats	2	incorrect	2.11018279359632
152263	1	stim173_inanimate_plants_tree_1.png	173	inanimate	plants	tree	1	0	3	boats	2	incorrect	2.11018279359632
152463	1	stim071_animate_insect_butterfly_3.png	71	animate	insect	butterfly	3	0	3	boats	2	incorrect	2.11018279359632
152663	1	stim056_animate_human_faces_4.png	56	animate	human	faces	4	0	3	boats	2	incorrect	2.11018279359632
152863	1	stim162_inanimate_plants_bush_2.png	162	inanimate	plants	bush	2	0	3	boats	2	incorrect	2.11018279359632
153063	1	stim172_inanimate_plants_sunflower_4.png	172	inanimate	plants	sunflower	4	0	3	boats	2	incorrect	2.11018279359632
153263	1	stim164_inanimate_plants_bush_4.png	164	inanimate	plants	bush	4	0	3	boats	2	incorrect	2.11018279359632
153463	1	stim073_animate_insect_dragonfly_1.png	73	animate	insect	dragonfly	1	0	3	boats	2	incorrect	2.11018279359632
153663	1	stim072_animate_insect_butterfly_4.png	72	animate	insect	butterfly	4	0	3	boats	2	incorrect	2.11018279359632
153863	1	stim131_inanimate_fruits_grape_3.png	131	inanimate	fruits	grape	3	0	3	boats	2	incorrect	2.11018279359632
154063	1	stim167_inanimate_plants_cactus_3.png	167	inanimate	plants	cactus	3	0	3	boats	2	incorrect	2.11018279359632
154263	1	stim092_animate_mammal_kangaroo_4.png	92	animate	mammal	kangaroo	4	0	3	boats	2	incorrect	2.11018279359632
154463	1	stim031_animate_bird_parrot_3.png	31	animate	bird	parrot	3	0	3	boats	2	incorrect	2.11018279359632
154663	1	stim154_inanimate_furniture_sofa_2.png	154	inanimate	furniture	sofa	2	0	3	boats	2	incorrect	2.11018279359632
154863	1	stim008_animate_aquatic_fish_4.png	8	animate	aquatic	fish	4	0	3	boats	2	incorrect	2.11018279359632
155063	1	stim161_inanimate_plants_bush_1.png	161	inanimate	plants	bush	1	0	3	boats	2	incorrect	2.11018279359632
155263	1	stim040_animate_bird_penguin_4.png	40	animate	bird	penguin	4	0	3	boats	2	incorrect	2.11018279359632
155463	1	stim109_inanimate_clothing_jeans_1.png	109	inanimate	clothing	jeans	1	0	3	boats	2	incorrect	2.11018279359632
155663	1	stim112_inanimate_clothing_jeans_4.png	112	inanimate	clothing	jeans	4	0	3	boats	2	incorrect	2.11018279359632
155863	1	stim015_animate_aquatic_shark_3.png	15	animate	aquatic	shark	3	0	3	boats	2	incorrect	2.11018279359632
156063	1	stim160_inanimate_furniture_table_4.png	160	inanimate	furniture	table	4	0	3	boats	2	incorrect	2.11018279359632
156263	1	stim004_animate_aquatic_crab_4.png	4	animate	aquatic	crab	4	0	3	boats	2	incorrect	2.11018279359632
156463	1	stim038_animate_bird_penguin_2.png	38	animate	bird	penguin	2	0	3	boats	2	incorrect	2.11018279359632
156663	1	stim132_inanimate_fruits_grape_4.png	132	inanimate	fruits	grape	4	0	3	boats	2	incorrect	2.11018279359632
156863	1	stim124_inanimate_fruits_apple_4.png	124	inanimate	fruits	apple	4	0	3	boats	2	incorrect	2.11018279359632
157063	1	stim159_inanimate_furniture_table_3.png	159	inanimate	furniture	table	3	0	3	boats	2	incorrect	2.11018279359632
157263	1	stim017_animate_aquatic_shrimp_1.png	17	animate	aquatic	shrimp	1	0	3	boats	2	incorrect	2.11018279359632
157463	1	stim099_animate_mammal_rhino_3.png	99	animate	mammal	rhino	3	0	3	boats	2	incorrect	2.11018279359632
157663	1	stim202_targets_object_boats_2.png	202	targets	object	boats	2	1	3	boats	2	incorrect	2.11018279359632
157863	1	stim022_animate_bird_chicken_2.png	22	animate	bird	chicken	2	0	3	boats	2	incorrect	2.11018279359632
158063	1	stim057_animate_human_sports_1.png	57	animate	human	sports	1	0	3	boats	2	incorrect	2.11018279359632
158263	1	stim045_animate_human_child_1.png	45	animate	human	child	1	0	3	boats	2	incorrect	2.11018279359632
158463	1	stim104_inanimate_clothing_gloves_4.png	104	inanimate	clothing	gloves	4	0	3	boats	2	incorrect	2.11018279359632
158663	1	stim190_inanimate_tools_pan_2.png	190	inanimate	tools	pan	2	0	3	boats	2	incorrect	2.11018279359632
158863	1	stim029_animate_bird_parrot_1.png	29	animate	bird	parrot	1	0	3	boats	2	incorrect	2.11018279359632
159063	1	stim080_animate_insect_grasshopper_4.png	80	animate	insect	grasshopper	4	0	3	boats	2	incorrect	2.11018279359632
159263	1	stim036_animate_bird_peacock_4.png	36	animate	bird	peacock	4	0	3	boats	2	incorrect	2.11018279359632
159463	1	stim089_animate_mammal_kangaroo_1.png	89	animate	mammal	kangaroo	1	0	3	boats	2	incorrect	2.11018279359632
159663	1	stim139_inanimate_fruits_strawberry_3.png	139	inanimate	fruits	strawberry	3	0	3	boats	2	incorrect	2.11018279359632
159863	1	stim082_animate_mammal_cow_2.png	82	animate	mammal	cow	2	0	3	boats	2	incorrect	2.11018279359632
160063	1	stim105_inanimate_clothing_hat_1.png	105	inanimate	clothing	hat	1	0	3	boats	2	incorrect	2.11018279359632
160263	1	stim034_animate_bird_peacock_2.png	34	animate	bird	peacock	2	0	3	boats	2	incorrect	2.11018279359632
160463	1	stim158_inanimate_furniture_table_2.png	158	inanimate	furniture	table	2	0	3	boats	2	incorrect	2.11018279359632
160663	1	stim179_inanimate_plants_tulip_3.png	179	inanimate	plants	tulip	3	0	3	boats	2	incorrect	2.11018279359632
160863	1	stim144_inanimate_furniture_bed_4.png	144	inanimate	furniture	bed	4	0	3	boats	2	incorrect	2.11018279359632
161063	1	stim051_animate_human_clown_3.png	51	animate	human	clown	3	0	3	boats	2	incorrect	2.11018279359632
161263	1	stim090_animate_mammal_kangaroo_2.png	90	animate	mammal	kangaroo	2	0	3	boats	2	incorrect	2.11018279359632
161463	1	stim163_inanimate_plants_bush_3.png	163	inanimate	plants	bush	3	0	3	boats	2	incorrect	2.11018279359632
161663	1	stim140_inanimate_fruits_strawberry_4.png	140	inanimate	fruits	strawberry	4	0	3	boats	2	incorrect	2.11018279359632
161863	1	stim130_inanimate_fruits_grape_2.png	130	inanimate	fruits	grape	2	0	3	boats	2	incorrect	2.11018279359632
162063	1	stim147_inanimate_furniture_chair_3.png	147	inanimate	furniture	chair	3	0	3	boats	2	incorrect	2.11018279359632
162263	1	stim117_inanimate_clothing_socks_1.png	117	inanimate	clothing	socks	1	0	3	boats	2	incorrect	2.11018279359632
162463	1	stim032_animate_bird_parrot_4.png	32	animate	bird	parrot	4	0	3	boats	2	incorrect	2.11018279359632
162663	1	stim086_animate_mammal_giraffe_2.png	86	animate	mammal	giraffe	2	0	3	boats	2	incorrect	2.11018279359632
162863	1	stim146_inanimate_furniture_chair_2.png	146	inanimate	furniture	chair	2	0	3	boats	2	incorrect	2.11018279359632
163063	1	stim113_inanimate_clothing_shirt_1.png	113	inanimate	clothing	shirt	1	0	3	boats	2	incorrect	2.11018279359632
163263	1	stim060_animate_human_sports_4.png	60	animate	human	sports	4	0	3	boats	2	incorrect	2.11018279359632
163463	1	stim156_inanimate_furniture_sofa_4.png	156	inanimate	furniture	sofa	4	0	3	boats	2	incorrect	2.11018279359632
163663	1	stim012_animate_aquatic_seahorse_4.png	12	animate	aquatic	seahorse	4	0	3	boats	2	incorrect	2.11018279359632
163863	1	stim151_inanimate_furniture_closet_3.png	151	inanimate	furniture	closet	3	0	3	boats	2	incorrect	2.11018279359632
164063	1	stim047_animate_human_child_3.png	47	animate	human	child	3	0	3	boats	2	incorrect	2.11018279359632
164263	1	stim076_animate_insect_dragonfly_4.png	76	animate	insect	dragonfly	4	0	3	boats	2	incorrect	2.11018279359632
164463	1	stim027_animate_bird_duck_3.png	27	animate	bird	duck	3	0	3	boats	2	incorrect	2.11018279359632
164663	1	stim091_animate_mammal_kangaroo_3.png	91	animate	mammal	kangaroo	3	0	3	boats	2	incorrect	2.11018279359632
164863	1	stim157_inanimate_furniture_table_1.png	157	inanimate	furniture	table	1	0	3	boats	2	incorrect	2.11018279359632
165063	1	stim176_inanimate_plants_tree_4.png	176	inanimate	plants	tree	4	0	3	boats	2	incorrect	2.11018279359632
165263	1	stim145_inanimate_furniture_chair_1.png	145	inanimate	furniture	chair	1	0	3	boats	2	incorrect	2.11018279359632
165463	1	stim153_inanimate_furniture_sofa_1.png	153	inanimate	furniture	sofa	1	0	3	boats	2	incorrect	2.11018279359632
165663	1	stim043_animate_human_baby_3.png	43	animate	human	baby	3	0	3	boats	2	incorrect	2.11018279359632
165863	1	stim033_animate_bird_peacock_1.png	33	animate	bird	peacock	1	0	3	boats	2	incorrect	2.11018279359632
166063	1	stim066_animate_insect_bug_2.png	66	animate	insect	bug	2	0	3	boats	2	incorrect	2.11018279359632
166263	1	stim181_inanimate_tools_broom_1.png	181	inanimate	tools	broom	1	0	3	boats	2	incorrect	2.11018279359632
166463	1	stim093_animate_mammal_monkey_1.png	93	animate	mammal	monkey	1	0	3	boats	2	incorrect	2.11018279359632
166663	1	stim183_inanimate_tools_broom_3.png	183	inanimate	tools	broom	3	0	3	boats	2	incorrect	2.11018279359632
166863	1	stim039_animate_bird_penguin_3.png	39	animate	bird	penguin	3	0	3	boats	2	incorrect	2.11018279359632
167063	1	stim128_inanimate_fruits_banana_4.png	128	inanimate	fruits	banana	4	0	3	boats	2	incorrect	2.11018279359632
167263	1	stim165_inanimate_plants_cactus_1.png	165	inanimate	plants	cactus	1	0	3	boats	2	incorrect	2.11018279359632
167463	1	stim194_inanimate_tools_scissors_2.png	194	inanimate	tools	scissors	2	0	3	boats	2	incorrect	2.11018279359632
167663	1	stim148_inanimate_furniture_chair_4.png	148	inanimate	furniture	chair	4	0	3	boats	2	incorrect	2.11018279359632
167863	1	stim069_animate_insect_butterfly_1.png	69	animate	insect	butterfly	1	0	3	boats	2	incorrect	2.11018279359632
168063	1	stim198_inanimate_tools_wrench_2.png	198	inanimate	tools	wrench	2	0	3	boats	2	incorrect	2.11018279359632
168263	1	stim078_animate_insect_grasshopper_2.png	78	animate	insect	grasshopper	2	0	3	boats	2	incorrect	2.11018279359632
180114	1	stim155_inanimate_furniture_sofa_3.png	155	inanimate	furniture	sofa	3	0	4	stars	2	correct	1.52400960998784
180314	1	stim021_animate_bird_chicken_1.png	21	animate	bird	chicken	1	0	4	stars	2	correct	1.52400960998784
180514	1	stim141_inanimate_furniture_bed_1.png	141	inanimate	furniture	bed	1	0	4	stars	2	correct	1.52400960998784
180714	1	stim081_animate_mammal_cow_1.png	81	animate	mammal	cow	1	0	4	stars	2	correct	1.52400960998784
180914	1	stim029_animate_bird_parrot_1.png	29	animate	bird	parrot	1	0	4	stars	2	correct	1.52400960998784
181114	1	stim119_inanimate_clothing_socks_3.png	119	inanimate	clothing	socks	3	0	4	stars	2	correct	1.52400960998784
181314	1	stim113_inanimate_clothing_shirt_1.png	113	inanimate	clothing	shirt	1	0	4	stars	2	correct	1.52400960998784
181514	1	stim014_animate_aquatic_shark_2.png	14	animate	aquatic	shark	2	0	4	stars	2	correct	1.52400960998784
181714	1	stim108_inanimate_clothing_hat_4.png	108	inanimate	clothing	hat	4	0	4	stars	2	correct	1.52400960998784
181914	1	stim163_inanimate_plants_bush_3.png	163	inanimate	plants	bush	3	0	4	stars	2	correct	1.52400960998784
182114	1	stim098_animate_mammal_rhino_2.png	98	animate	mammal	rhino	2	0	4	stars	2	correct	1.52400960998784
182314	1	stim159_inanimate_furniture_table_3.png	159	inanimate	furniture	table	3	0	4	stars	2	correct	1.52400960998784
182514	1	stim117_inanimate_clothing_socks_1.png	117	inanimate	clothing	socks	1	0	4	stars	2	correct	1.52400960998784
182714	1	stim096_animate_mammal_monkey_4.png	96	animate	mammal	monkey	4	0	4	stars	2	correct	1.52400960998784
182914	1	stim002_animate_aquatic_crab_2.png	2	animate	aquatic	crab	2	0	4	stars	2	correct	1.52400960998784
183114	1	stim115_inanimate_clothing_shirt_3.png	115	inanimate	clothing	shirt	3	0	4	stars	2	correct	1.52400960998784
183314	1	stim121_inanimate_fruits_apple_1.png	121	inanimate	fruits	apple	1	0	4	stars	2	correct	1.52400960998784
183514	1	stim158_inanimate_furniture_table_2.png	158	inanimate	furniture	table	2	0	4	stars	2	correct	1.52400960998784
183714	1	stim183_inanimate_tools_broom_3.png	183	inanimate	tools	broom	3	0	4	stars	2	correct	1.52400960998784
183914	1	stim161_inanimate_plants_bush_1.png	161	inanimate	plants	bush	1	0	4	stars	2	correct	1.52400960998784
184114	1	stim128_inanimate_fruits_banana_4.png	128	inanimate	fruits	banana	4	0	4	stars	2	correct	1.52400960998784
184314	1	stim062_animate_insect_ant_2.png	62	animate	insect	ant	2	0	4	stars	2	correct	1.52400960998784
184514	1	stim126_inanimate_fruits_banana_2.png	126	inanimate	fruits	banana	2	0	4	stars	2	correct	1.52400960998784
184714	1	stim022_animate_bird_chicken_2.png	22	animate	bird	chicken	2	0	4	stars	2	correct	1.52400960998784
184914	1	stim011_animate_aquatic_seahorse_3.png	11	animate	aquatic	seahorse	3	0	4	stars	2	correct	1.52400960998784
185114	1	stim013_animate_aquatic_shark_1.png	13	animate	aquatic	shark	1	0	4	stars	2	correct	1.52400960998784
185314	1	stim001_animate_aquatic_crab_1.png	1	animate	aquatic	crab	1	0	4	stars	2	correct	1.52400960998784
185514	1	stim143_inanimate_furniture_bed_3.png	143	inanimate	furniture	bed	3	0	4	stars	2	correct	1.52400960998784
185714	1	stim185_inanimate_tools_hammer_1.png	185	inanimate	tools	hammer	1	0	4	stars	2	correct	1.52400960998784
185914	1	stim142_inanimate_furniture_bed_2.png	142	inanimate	furniture	bed	2	0	4	stars	2	correct	1.52400960998784
186114	1	stim191_inanimate_tools_pan_3.png	191	inanimate	tools	pan	3	0	4	stars	2	correct	1.52400960998784
186314	1	stim129_inanimate_fruits_grape_1.png	129	inanimate	fruits	grape	1	0	4	stars	2	correct	1.52400960998784
186514	1	stim157_inanimate_furniture_table_1.png	157	inanimate	furniture	table	1	0	4	stars	2	correct	1.52400960998784
186714	1	stim186_inanimate_tools_hammer_2.png	186	inanimate	tools	hammer	2	0	4	stars	2	correct	1.52400960998784
186914	1	stim182_inanimate_tools_broom_2.png	182	inanimate	tools	broom	2	0	4	stars	2	correct	1.52400960998784
187114	1	stim080_animate_insect_grasshopper_4.png	80	animate	insect	grasshopper	4	0	4	stars	2	correct	1.52400960998784
187314	1	stim030_animate_bird_parrot_2.png	30	animate	bird	parrot	2	0	4	stars	2	correct	1.52400960998784
187514	1	stim047_animate_human_child_3.png	47	animate	human	child	3	0	4	stars	2	correct	1.52400960998784
187714	1	stim069_animate_insect_butterfly_1.png	69	animate	insect	butterfly	1	0	4	stars	2	correct	1.52400960998784
187914	1	stim025_animate_bird_duck_1.png	25	animate	bird	duck	1	0	4	stars	2	correct	1.52400960998784
188114	1	stim122_inanimate_fruits_apple_2.png	122	inanimate	fruits	apple	2	0	4	stars	2	correct	1.52400960998784
188314	1	stim187_inanimate_tools_hammer_3.png	187	inanimate	tools	hammer	3	0	4	stars	2	correct	1.52400960998784
188514	1	stim095_animate_mammal_monkey_3.png	95	animate	mammal	monkey	3	0	4	stars	2	correct	1.52400960998784
188714	1	stim111_inanimate_clothing_jeans_3.png	111	inanimate	clothing	jeans	3	0	4	stars	2	correct	1.52400960998784
188914	1	stim059_animate_human_sports_3.png	59	animate	human	sports	3	0	4	stars	2	correct	1.52400960998784
189114	1	stim149_inanimate_furniture_closet_1.png	149	inanimate	furniture	closet	1	0	4	stars	2	correct	1.52400960998784
189314	1	stim084_animate_mammal_cow_4.png	84	animate	mammal	cow	4	0	4	stars	2	correct	1.52400960998784
189514	1	stim124_inanimate_fruits_apple_4.png	124	inanimate	fruits	apple	4	0	4	stars	2	correct	1.52400960998784
189714	1	stim033_animate_bird_peacock_1.png	33	animate	bird	peacock	1	0	4	stars	2	correct	1.52400960998784
189914	1	stim192_inanimate_tools_pan_4.png	192	inanimate	tools	pan	4	0	4	stars	2	correct	1.52400960998784
190114	1	stim044_animate_human_baby_4.png	44	animate	human	baby	4	0	4	stars	2	correct	1.52400960998784
190314	1	stim086_animate_mammal_giraffe_2.png	86	animate	mammal	giraffe	2	0	4	stars	2	correct	1.52400960998784
190514	1	stim092_animate_mammal_kangaroo_4.png	92	animate	mammal	kangaroo	4	0	4	stars	2	correct	1.52400960998784
190714	1	stim114_inanimate_clothing_shirt_2.png	114	inanimate	clothing	shirt	2	0	4	stars	2	correct	1.52400960998784
190914	1	stim031_animate_bird_parrot_3.png	31	animate	bird	parrot	3	0	4	stars	2	correct	1.52400960998784
191114	1	stim093_animate_mammal_monkey_1.png	93	animate	mammal	monkey	1	0	4	stars	2	correct	1.52400960998784
191314	1	stim018_animate_aquatic_shrimp_2.png	18	animate	aquatic	shrimp	2	0	4	stars	2	correct	1.52400960998784
191514	1	stim116_inanimate_clothing_shirt_4.png	116	inanimate	clothing	shirt	4	0	4	stars	2	correct	1.52400960998784
191714	1	stim105_inanimate_clothing_hat_1.png	105	inanimate	clothing	hat	1	0	4	stars	2	correct	1.52400960998784
191914	1	stim174_inanimate_plants_tree_2.png	174	inanimate	plants	tree	2	0	4	stars	2	correct	1.52400960998784
192114	1	stim063_animate_insect_ant_3.png	63	animate	insect	ant	3	0	4	stars	2	correct	1.52400960998784
192314	1	stim052_animate_human_clown_4.png	52	animate	human	clown	4	0	4	stars	2	correct	1.52400960998784
192514	1	stim210_targets_shapes_star_2.png	210	targets	shapes	star	2	1	4	stars	2	correct	1.52400960998784
192714	1	stim066_animate_insect_bug_2.png	66	animate	insect	bug	2	0	4	stars	2	correct	1.52400960998784
192914	1	stim181_inanimate_tools_broom_1.png	181	inanimate	tools	broom	1	0	4	stars	2	correct	1.52400960998784
193114	1	stim037_animate_bird_penguin_1.png	37	animate	bird	penguin	1	0	4	stars	2	correct	1.52400960998784
193314	1	stim130_inanimate_fruits_grape_2.png	130	inanimate	fruits	grape	2	0	4	stars	2	correct	1.52400960998784
193514	1	stim088_animate_mammal_giraffe_4.png	88	animate	mammal	giraffe	4	0	4	stars	2	correct	1.52400960998784
193714	1	stim147_inanimate_furniture_chair_3.png	147	inanimate	furniture	chair	3	0	4	stars	2	correct	1.52400960998784
193914	1	stim168_inanimate_plants_cactus_4.png	168	inanimate	plants	cactus	4	0	4	stars	2	correct	1.52400960998784
194114	1	stim071_animate_insect_butterfly_3.png	71	animate	insect	butterfly	3	0	4	stars	2	correct	1.52400960998784
194314	1	stim038_animate_bird_penguin_2.png	38	animate	bird	penguin	2	0	4	stars	2	correct	1.52400960998784
194514	1	stim023_animate_bird_chicken_3.png	23	animate	bird	chicken	3	0	4	stars	2	correct	1.52400960998784
194714	1	stim008_animate_aquatic_fish_4.png	8	animate	aquatic	fish	4	0	4	stars	2	correct	1.52400960998784
194914	1	stim074_animate_insect_dragonfly_2.png	74	animate	insect	dragonfly	2	0	4	stars	2	correct	1.52400960998784
195114	1	stim010_animate_aquatic_seahorse_2.png	10	animate	aquatic	seahorse	2	0	4	stars	2	correct	1.52400960998784
195314	1	stim112_inanimate_clothing_jeans_4.png	112	inanimate	clothing	jeans	4	0	4	stars	2	correct	1.52400960998784
195514	1	stim067_animate_insect_bug_3.png	67	animate	insect	bug	3	0	4	stars	2	correct	1.52400960998784
195714	1	stim133_inanimate_fruits_pineapple_1.png	133	inanimate	fruits	pineapple	1	0	4	stars	2	correct	1.52400960998784
195914	1	stim170_inanimate_plants_sunflower_2.png	170	inanimate	plants	sunflower	2	0	4	stars	2	correct	1.52400960998784
196114	1	stim058_animate_human_sports_2.png	58	animate	human	sports	2	0	4	stars	2	correct	1.52400960998784
196314	1	stim060_animate_human_sports_4.png	60	animate	human	sports	4	0	4	stars	2	correct	1.52400960998784
196514	1	stim107_inanimate_clothing_hat_3.png	107	inanimate	clothing	hat	3	0	4	stars	2	correct	1.52400960998784
196714	1	stim178_inanimate_plants_tulip_2.png	178	inanimate	plants	tulip	2	0	4	stars	2	correct	1.52400960998784
196914	1	stim150_inanimate_furniture_closet_2.png	150	inanimate	furniture	closet	2	0	4	stars	2	correct	1.52400960998784
197114	1	stim017_animate_aquatic_shrimp_1.png	17	animate	aquatic	shrimp	1	0	4	stars	2	correct	1.52400960998784
197314	1	stim055_animate_human_faces_3.png	55	animate	human	faces	3	0	4	stars	2	correct	1.52400960998784
197514	1	stim101_inanimate_clothing_gloves_1.png	101	inanimate	clothing	gloves	1	0	4	stars	2	correct	1.52400960998784
197714	1	stim197_inanimate_tools_wrench_1.png	197	inanimate	tools	wrench	1	0	4	stars	2	correct	1.52400960998784
197914	1	stim123_inanimate_fruits_apple_3.png	123	inanimate	fruits	apple	3	0	4	stars	2	correct	1.52400960998784
198114	1	stim109_inanimate_clothing_jeans_1.png	109	inanimate	clothing	jeans	1	0	4	stars	2	correct	1.52400960998784
198314	1	stim127_inanimate_fruits_banana_3.png	127	inanimate	fruits	banana	3	0	4	stars	2	correct	1.52400960998784
198514	1	stim032_animate_bird_parrot_4.png	32	animate	bird	parrot	4	0	4	stars	2	correct	1.52400960998784
198714	1	stim004_animate_aquatic_crab_4.png	4	animate	aquatic	crab	4	0	4	stars	2	correct	1.52400960998784
198914	1	stim045_animate_human_child_1.png	45	animate	human	child	1	0	4	stars	2	correct	1.52400960998784
199114	1	stim151_inanimate_furniture_closet_3.png	151	inanimate	furniture	closet	3	0	4	stars	2	correct	1.52400960998784
199314	1	stim177_inanimate_plants_tulip_1.png	177	inanimate	plants	tulip	1	0	4	stars	2	correct	1.52400960998784
199514	1	stim106_inanimate_clothing_hat_2.png	106	inanimate	clothing	hat	2	0	4	stars	2	correct	1.52400960998784
199714	1	stim070_animate_insect_butterfly_2.png	70	animate	insect	butterfly	2	0	4	stars	2	correct	1.52400960998784
199914	1	stim120_inanimate_clothing_socks_4.png	120	inanimate	clothing	socks	4	0	4	stars	2	correct	1.52400960998784
200114	1	stim110_inanimate_clothing_jeans_2.png	110	inanimate	clothing	jeans	2	0	4	stars	2	correct	1.52400960998784
200314	1	stim160_inanimate_furniture_table_4.png	160	inanimate	furniture	table	4	0	4	stars	2	correct	1.52400960998784
200514	1	stim085_animate_mammal_giraffe_1.png	85	animate	mammal	giraffe	1	0	4	stars	2	correct	1.52400960998784
200714	1	stim061_animate_insect_ant_1.png	61	animate	insect	ant	1	0	4	stars	2	correct	1.52400960998784
200914	1	stim068_animate_insect_bug_4.png	68	animate	insect	bug	4	0	4	stars	2	correct	1.52400960998784
201114	1	stim073_animate_insect_dragonfly_1.png	73	animate	insect	dragonfly	1	0	4	stars	2	correct	1.52400960998784
201314	1	stim152_inanimate_furniture_closet_4.png	152	inanimate	furniture	closet	4	0	4	stars	2	correct	1.52400960998784
201514	1	stim162_inanimate_plants_bush_2.png	162	inanimate	plants	bush	2	0	4	stars	2	correct	1.52400960998784
201714	1	stim194_inanimate_tools_scissors_2.png	194	inanimate	tools	scissors	2	0	4	stars	2	correct	1.52400960998784
201914	1	stim072_animate_insect_butterfly_4.png	72	animate	insect	butterfly	4	0	4	stars	2	correct	1.52400960998784
202114	1	stim153_inanimate_furniture_sofa_1.png	153	inanimate	furniture	sofa	1	0	4	stars	2	correct	1.52400960998784
202314	1	stim049_animate_human_clown_1.png	49	animate	human	clown	1	0	4	stars	2	correct	1.52400960998784
202514	1	stim132_inanimate_fruits_grape_4.png	132	inanimate	fruits	grape	4	0	4	stars	2	correct	1.52400960998784
202714	1	stim195_inanimate_tools_scissors_3.png	195	inanimate	tools	scissors	3	0	4	stars	2	correct	1.52400960998784
202914	1	stim005_animate_aquatic_fish_1.png	5	animate	aquatic	fish	1	0	4	stars	2	correct	1.52400960998784
203114	1	stim138_inanimate_fruits_strawberry_2.png	138	inanimate	fruits	strawberry	2	0	4	stars	2	correct	1.52400960998784
203314	1	stim136_inanimate_fruits_pineapple_4.png	136	inanimate	fruits	pineapple	4	0	4	stars	2	correct	1.52400960998784
203514	1	stim041_animate_human_baby_1.png	41	animate	human	baby	1	0	4	stars	2	correct	1.52400960998784
203714	1	stim053_animate_human_faces_1.png	53	animate	human	faces	1	0	4	stars	2	correct	1.52400960998784
203914	1	stim039_animate_bird_penguin_3.png	39	animate	bird	penguin	3	0	4	stars	2	correct	1.52400960998784
204114	1	stim137_inanimate_fruits_strawberry_1.png	137	inanimate	fruits	strawberry	1	0	4	stars	2	correct	1.52400960998784
204314	1	stim042_animate_human_baby_2.png	42	animate	human	baby	2	0	4	stars	2	correct	1.52400960998784
204514	1	stim176_inanimate_plants_tree_4.png	176	inanimate	plants	tree	4	0	4	stars	2	correct	1.52400960998784
204714	1	stim198_inanimate_tools_wrench_2.png	198	inanimate	tools	wrench	2	0	4	stars	2	correct	1.52400960998784
204914	1	stim189_inanimate_tools_pan_1.png	189	inanimate	tools	pan	1	0	4	stars	2	correct	1.52400960998784
205114	1	stim024_animate_bird_chicken_4.png	24	animate	bird	chicken	4	0	4	stars	2	correct	1.52400960998784
205314	1	stim214_targets_shapes_star_2.png	214	targets	shapes	star	2	1	4	stars	2	correct	1.52400960998784
205514	1	stim144_inanimate_furniture_bed_4.png	144	inanimate	furniture	bed	4	0	4	stars	2	correct	1.52400960998784
205714	1	stim140_inanimate_fruits_strawberry_4.png	140	inanimate	fruits	strawberry	4	0	4	stars	2	correct	1.52400960998784
205914	1	stim131_inanimate_fruits_grape_3.png	131	inanimate	fruits	grape	3	0	4	stars	2	correct	1.52400960998784
206114	1	stim026_animate_bird_duck_2.png	26	animate	bird	duck	2	0	4	stars	2	correct	1.52400960998784
206314	1	stim054_animate_human_faces_2.png	54	animate	human	faces	2	0	4	stars	2	correct	1.52400960998784
206514	1	stim180_inanimate_plants_tulip_4.png	180	inanimate	plants	tulip	4	0	4	stars	2	correct	1.52400960998784
206714	1	stim156_inanimate_furniture_sofa_4.png	156	inanimate	furniture	sofa	4	0	4	stars	2	correct	1.52400960998784
206914	1	stim188_inanimate_tools_hammer_4.png	188	inanimate	tools	hammer	4	0	4	stars	2	correct	1.52400960998784
207114	1	stim065_animate_insect_bug_1.png	65	animate	insect	bug	1	0	4	stars	2	correct	1.52400960998784
207314	1	stim090_animate_mammal_kangaroo_2.png	90	animate	mammal	kangaroo	2	0	4	stars	2	correct	1.52400960998784
207514	1	stim199_inanimate_tools_wrench_3.png	199	inanimate	tools	wrench	3	0	4	stars	2	correct	1.52400960998784
207714	1	stim200_inanimate_tools_wrench_4.png	200	inanimate	tools	wrench	4	0	4	stars	2	correct	1.52400960998784
207914	1	stim165_inanimate_plants_cactus_1.png	165	inanimate	plants	cactus	1	0	4	stars	2	correct	1.52400960998784
208114	1	stim148_inanimate_furniture_chair_4.png	148	inanimate	furniture	chair	4	0	4	stars	2	correct	1.52400960998784
208314	1	stim145_inanimate_furniture_chair_1.png	145	inanimate	furniture	chair	1	0	4	stars	2	correct	1.52400960998784
208514	1	stim082_animate_mammal_cow_2.png	82	animate	mammal	cow	2	0	4	stars	2	correct	1.52400960998784
208714	1	stim089_animate_mammal_kangaroo_1.png	89	animate	mammal	kangaroo	1	0	4	stars	2	correct	1.52400960998784
208914	1	stim190_inanimate_tools_pan_2.png	190	inanimate	tools	pan	2	0	4	stars	2	correct	1.52400960998784
209114	1	stim027_animate_bird_duck_3.png	27	animate	bird	duck	3	0	4	stars	2	correct	1.52400960998784
209314	1	stim094_animate_mammal_monkey_2.png	94	animate	mammal	monkey	2	0	4	stars	2	correct	1.52400960998784
209514	1	stim172_inanimate_plants_sunflower_4.png	172	inanimate	plants	sunflower	4	0	4	stars	2	correct	1.52400960998784
209714	1	stim051_animate_human_clown_3.png	51	animate	human	clown	3	0	4	stars	2	correct	1.52400960998784
209914	1	stim083_animate_mammal_cow_3.png	83	animate	mammal	cow	3	0	4	stars	2	correct	1.52400960998784
210114	1	stim135_inanimate_fruits_pineapple_3.png	135	inanimate	fruits	pineapple	3	0	4	stars	2	correct	1.52400960998784
210314	1	stim179_inanimate_plants_tulip_3.png	179	inanimate	plants	tulip	3	0	4	stars	2	correct	1.52400960998784
210514	1	stim184_inanimate_tools_broom_4.png	184	inanimate	tools	broom	4	0	4	stars	2	correct	1.52400960998784
210714	1	stim102_inanimate_clothing_gloves_2.png	102	inanimate	clothing	gloves	2	0	4	stars	2	correct	1.52400960998784
210914	1	stim034_animate_bird_peacock_2.png	34	animate	bird	peacock	2	0	4	stars	2	correct	1.52400960998784
211114	1	stim046_animate_human_child_2.png	46	animate	human	child	2	0	4	stars	2	correct	1.52400960998784
211314	1	stim028_animate_bird_duck_4.png	28	animate	bird	duck	4	0	4	stars	2	correct	1.52400960998784
211514	1	stim164_inanimate_plants_bush_4.png	164	inanimate	plants	bush	4	0	4	stars	2	correct	1.52400960998784
211714	1	stim167_inanimate_plants_cactus_3.png	167	inanimate	plants	cactus	3	0	4	stars	2	correct	1.52400960998784
211914	1	stim064_animate_insect_ant_4.png	64	animate	insect	ant	4	0	4	stars	2	correct	1.52400960998784
212114	1	stim139_inanimate_fruits_strawberry_3.png	139	inanimate	fruits	strawberry	3	0	4	stars	2	correct	1.52400960998784
212314	1	stim036_animate_bird_peacock_4.png	36	animate	bird	peacock	4	0	4	stars	2	correct	1.52400960998784
212514	1	stim193_inanimate_tools_scissors_1.png	193	inanimate	tools	scissors	1	0	4	stars	2	correct	1.52400960998784
212714	1	stim099_animate_mammal_rhino_3.png	99	animate	mammal	rhino	3	0	4	stars	2	correct	1.52400960998784
212914	1	stim048_animate_human_child_4.png	48	animate	human	child	4	0	4	stars	2	correct	1.52400960998784
213114	1	stim173_inanimate_plants_tree_1.png	173	inanimate	plants	tree	1	0	4	stars	2	correct	1.52400960998784
213314	1	stim043_animate_human_baby_3.png	43	animate	human	baby	3	0	4	stars	2	correct	1.52400960998784
213514	1	stim056_animate_human_faces_4.png	56	animate	human	faces	4	0	4	stars	2	correct	1.52400960998784
213714	1	stim166_inanimate_plants_cactus_2.png	166	inanimate	plants	cactus	2	0	4	stars	2	correct	1.52400960998784
213914	1	stim097_animate_mammal_rhino_1.png	97	animate	mammal	rhino	1	0	4	stars	2	correct	1.52400960998784
214115	1	stim015_animate_aquatic_shark_3.png	15	animate	aquatic	shark	3	0	4	stars	2	correct	1.52400960998784
214314	1	stim077_animate_insect_grasshopper_1.png	77	animate	insect	grasshopper	1	0	4	stars	2	correct	1.52400960998784
214515	1	stim003_animate_aquatic_crab_3.png	3	animate	aquatic	crab	3	0	4	stars	2	correct	1.52400960998784
214715	1	stim012_animate_aquatic_seahorse_4.png	12	animate	aquatic	seahorse	4	0	4	stars	2	correct	1.52400960998784
214914	1	stim087_animate_mammal_giraffe_3.png	87	animate	mammal	giraffe	3	0	4	stars	2	correct	1.52400960998784
215115	1	stim057_animate_human_sports_1.png	57	animate	human	sports	1	0	4	stars	2	correct	1.52400960998784
215315	1	stim078_animate_insect_grasshopper_2.png	78	animate	insect	grasshopper	2	0	4	stars	2	correct	1.52400960998784
215515	1	stim134_inanimate_fruits_pineapple_2.png	134	inanimate	fruits	pineapple	2	0	4	stars	2	correct	1.52400960998784
215715	1	stim175_inanimate_plants_tree_3.png	175	inanimate	plants	tree	3	0	4	stars	2	correct	1.52400960998784
215915	1	stim006_animate_aquatic_fish_2.png	6	animate	aquatic	fish	2	0	4	stars	2	correct	1.52400960998784
216115	1	stim103_inanimate_clothing_gloves_3.png	103	inanimate	clothing	gloves	3	0	4	stars	2	correct	1.52400960998784
216315	1	stim091_animate_mammal_kangaroo_3.png	91	animate	mammal	kangaroo	3	0	4	stars	2	correct	1.52400960998784
216515	1	stim075_animate_insect_dragonfly_3.png	75	animate	insect	dragonfly	3	0	4	stars	2	correct	1.52400960998784
216715	1	stim007_animate_aquatic_fish_3.png	7	animate	aquatic	fish	3	0	4	stars	2	correct	1.52400960998784
216915	1	stim104_inanimate_clothing_gloves_4.png	104	inanimate	clothing	gloves	4	0	4	stars	2	correct	1.52400960998784
217115	1	stim100_animate_mammal_rhino_4.png	100	animate	mammal	rhino	4	0	4	stars	2	correct	1.52400960998784
217315	1	stim146_inanimate_furniture_chair_2.png	146	inanimate	furniture	chair	2	0	4	stars	2	correct	1.52400960998784
217515	1	stim118_inanimate_clothing_socks_2.png	118	inanimate	clothing	socks	2	0	4	stars	2	correct	1.52400960998784
217715	1	stim020_animate_aquatic_shrimp_4.png	20	animate	aquatic	shrimp	4	0	4	stars	2	correct	1.52400960998784
217915	1	stim196_inanimate_tools_scissors_4.png	196	inanimate	tools	scissors	4	0	4	stars	2	correct	1.52400960998784
218115	1	stim154_inanimate_furniture_sofa_2.png	154	inanimate	furniture	sofa	2	0	4	stars	2	correct	1.52400960998784
218315	1	stim050_animate_human_clown_2.png	50	animate	human	clown	2	0	4	stars	2	correct	1.52400960998784
218515	1	stim125_inanimate_fruits_banana_1.png	125	inanimate	fruits	banana	1	0	4	stars	2	correct	1.52400960998784
218715	1	stim169_inanimate_plants_sunflower_1.png	169	inanimate	plants	sunflower	1	0	4	stars	2	correct	1.52400960998784
218915	1	stim035_animate_bird_peacock_3.png	35	animate	bird	peacock	3	0	4	stars	2	correct	1.52400960998784
219115	1	stim009_animate_aquatic_seahorse_1.png	9	animate	aquatic	seahorse	1	0	4	stars	2	correct	1.52400960998784
219315	1	stim076_animate_insect_dragonfly_4.png	76	animate	insect	dragonfly	4	0	4	stars	2	correct	1.52400960998784
219515	1	stim040_animate_bird_penguin_4.png	40	animate	bird	penguin	4	0	4	stars	2	correct	1.52400960998784
219715	1	stim171_inanimate_plants_sunflower_3.png	171	inanimate	plants	sunflower	3	0	4	stars	2	correct	1.52400960998784
219915	1	stim079_animate_insect_grasshopper_3.png	79	animate	insect	grasshopper	3	0	4	stars	2	correct	1.52400960998784
220115	1	stim019_animate_aquatic_shrimp_3.png	19	animate	aquatic	shrimp	3	0	4	stars	2	correct	1.52400960998784
220315	1	stim016_animate_aquatic_shark_4.png	16	animate	aquatic	shark	4	0	4	stars	2	correct	1.52400960998784
228748	1	stim113_inanimate_clothing_shirt_1.png	113	inanimate	clothing	shirt	1	0	5	boats	2	correct	2.04675263058061
228948	1	stim014_animate_aquatic_shark_2.png	14	animate	aquatic	shark	2	0	5	boats	2	correct	2.04675263058061
229148	1	stim157_inanimate_furniture_table_1.png	157	inanimate	furniture	table	1	0	5	boats	2	correct	2.04675263058061
229348	1	stim053_animate_human_faces_1.png	53	animate	human	faces	1	0	5	boats	2	correct	2.04675263058061
229548	1	stim177_inanimate_plants_tulip_1.png	177	inanimate	plants	tulip	1	0	5	boats	2	correct	2.04675263058061
229748	1	stim097_animate_mammal_rhino_1.png	97	animate	mammal	rhino	1	0	5	boats	2	correct	2.04675263058061
229948	1	stim049_animate_human_clown_1.png	49	animate	human	clown	1	0	5	boats	2	correct	2.04675263058061
230148	1	stim046_animate_human_child_2.png	46	animate	human	child	2	0	5	boats	2	correct	2.04675263058061
230348	1	stim122_inanimate_fruits_apple_2.png	122	inanimate	fruits	apple	2	0	5	boats	2	correct	2.04675263058061
230548	1	stim018_animate_aquatic_shrimp_2.png	18	animate	aquatic	shrimp	2	0	5	boats	2	correct	2.04675263058061
230748	1	stim089_animate_mammal_kangaroo_1.png	89	animate	mammal	kangaroo	1	0	5	boats	2	correct	2.04675263058061
230948	1	stim125_inanimate_fruits_banana_1.png	125	inanimate	fruits	banana	1	0	5	boats	2	correct	2.04675263058061
231148	1	stim140_inanimate_fruits_strawberry_4.png	140	inanimate	fruits	strawberry	4	0	5	boats	2	correct	2.04675263058061
231348	1	stim179_inanimate_plants_tulip_3.png	179	inanimate	plants	tulip	3	0	5	boats	2	correct	2.04675263058061
231548	1	stim131_inanimate_fruits_grape_3.png	131	inanimate	fruits	grape	3	0	5	boats	2	correct	2.04675263058061
231748	1	stim076_animate_insect_dragonfly_4.png	76	animate	insect	dragonfly	4	0	5	boats	2	correct	2.04675263058061
231948	1	stim071_animate_insect_butterfly_3.png	71	animate	insect	butterfly	3	0	5	boats	2	correct	2.04675263058061
232148	1	stim031_animate_bird_parrot_3.png	31	animate	bird	parrot	3	0	5	boats	2	correct	2.04675263058061
232348	1	stim022_animate_bird_chicken_2.png	22	animate	bird	chicken	2	0	5	boats	2	correct	2.04675263058061
232548	1	stim027_animate_bird_duck_3.png	27	animate	bird	duck	3	0	5	boats	2	correct	2.04675263058061
232748	1	stim129_inanimate_fruits_grape_1.png	129	inanimate	fruits	grape	1	0	5	boats	2	correct	2.04675263058061
232948	1	stim058_animate_human_sports_2.png	58	animate	human	sports	2	0	5	boats	2	correct	2.04675263058061
233148	1	stim155_inanimate_furniture_sofa_3.png	155	inanimate	furniture	sofa	3	0	5	boats	2	correct	2.04675263058061
233348	1	stim042_animate_human_baby_2.png	42	animate	human	baby	2	0	5	boats	2	correct	2.04675263058061
233548	1	stim047_animate_human_child_3.png	47	animate	human	child	3	0	5	boats	2	correct	2.04675263058061
233748	1	stim099_animate_mammal_rhino_3.png	99	animate	mammal	rhino	3	0	5	boats	2	correct	2.04675263058061
233948	1	stim067_animate_insect_bug_3.png	67	animate	insect	bug	3	0	5	boats	2	correct	2.04675263058061
234148	1	stim169_inanimate_plants_sunflower_1.png	169	inanimate	plants	sunflower	1	0	5	boats	2	correct	2.04675263058061
234348	1	stim124_inanimate_fruits_apple_4.png	124	inanimate	fruits	apple	4	0	5	boats	2	correct	2.04675263058061
234548	1	stim100_animate_mammal_rhino_4.png	100	animate	mammal	rhino	4	0	5	boats	2	correct	2.04675263058061
234748	1	stim120_inanimate_clothing_socks_4.png	120	inanimate	clothing	socks	4	0	5	boats	2	correct	2.04675263058061
234948	1	stim019_animate_aquatic_shrimp_3.png	19	animate	aquatic	shrimp	3	0	5	boats	2	correct	2.04675263058061
235148	1	stim086_animate_mammal_giraffe_2.png	86	animate	mammal	giraffe	2	0	5	boats	2	correct	2.04675263058061
235348	1	stim111_inanimate_clothing_jeans_3.png	111	inanimate	clothing	jeans	3	0	5	boats	2	correct	2.04675263058061
235548	1	stim068_animate_insect_bug_4.png	68	animate	insect	bug	4	0	5	boats	2	correct	2.04675263058061
235748	1	stim187_inanimate_tools_hammer_3.png	187	inanimate	tools	hammer	3	0	5	boats	2	correct	2.04675263058061
235948	1	stim137_inanimate_fruits_strawberry_1.png	137	inanimate	fruits	strawberry	1	0	5	boats	2	correct	2.04675263058061
236148	1	stim183_inanimate_tools_broom_3.png	183	inanimate	tools	broom	3	0	5	boats	2	correct	2.04675263058061
236348	1	stim069_animate_insect_butterfly_1.png	69	animate	insect	butterfly	1	0	5	boats	2	correct	2.04675263058061
236548	1	stim055_animate_human_faces_3.png	55	animate	human	faces	3	0	5	boats	2	correct	2.04675263058061
236748	1	stim166_inanimate_plants_cactus_2.png	166	inanimate	plants	cactus	2	0	5	boats	2	correct	2.04675263058061
236948	1	stim175_inanimate_plants_tree_3.png	175	inanimate	plants	tree	3	0	5	boats	2	correct	2.04675263058061
237148	1	stim059_animate_human_sports_3.png	59	animate	human	sports	3	0	5	boats	2	correct	2.04675263058061
237348	1	stim128_inanimate_fruits_banana_4.png	128	inanimate	fruits	banana	4	0	5	boats	2	correct	2.04675263058061
237548	1	stim029_animate_bird_parrot_1.png	29	animate	bird	parrot	1	0	5	boats	2	correct	2.04675263058061
237748	1	stim088_animate_mammal_giraffe_4.png	88	animate	mammal	giraffe	4	0	5	boats	2	correct	2.04675263058061
237948	1	stim001_animate_aquatic_crab_1.png	1	animate	aquatic	crab	1	0	5	boats	2	correct	2.04675263058061
238148	1	stim108_inanimate_clothing_hat_4.png	108	inanimate	clothing	hat	4	0	5	boats	2	correct	2.04675263058061
238348	1	stim158_inanimate_furniture_table_2.png	158	inanimate	furniture	table	2	0	5	boats	2	correct	2.04675263058061
238548	1	stim094_animate_mammal_monkey_2.png	94	animate	mammal	monkey	2	0	5	boats	2	correct	2.04675263058061
238748	1	stim150_inanimate_furniture_closet_2.png	150	inanimate	furniture	closet	2	0	5	boats	2	correct	2.04675263058061
238948	1	stim191_inanimate_tools_pan_3.png	191	inanimate	tools	pan	3	0	5	boats	2	correct	2.04675263058061
239148	1	stim132_inanimate_fruits_grape_4.png	132	inanimate	fruits	grape	4	0	5	boats	2	correct	2.04675263058061
239348	1	stim034_animate_bird_peacock_2.png	34	animate	bird	peacock	2	0	5	boats	2	correct	2.04675263058061
239548	1	stim077_animate_insect_grasshopper_1.png	77	animate	insect	grasshopper	1	0	5	boats	2	correct	2.04675263058061
239748	1	stim003_animate_aquatic_crab_3.png	3	animate	aquatic	crab	3	0	5	boats	2	correct	2.04675263058061
239948	1	stim079_animate_insect_grasshopper_3.png	79	animate	insect	grasshopper	3	0	5	boats	2	correct	2.04675263058061
240148	1	stim156_inanimate_furniture_sofa_4.png	156	inanimate	furniture	sofa	4	0	5	boats	2	correct	2.04675263058061
240348	1	stim170_inanimate_plants_sunflower_2.png	170	inanimate	plants	sunflower	2	0	5	boats	2	correct	2.04675263058061
240548	1	stim133_inanimate_fruits_pineapple_1.png	133	inanimate	fruits	pineapple	1	0	5	boats	2	correct	2.04675263058061
240748	1	stim119_inanimate_clothing_socks_3.png	119	inanimate	clothing	socks	3	0	5	boats	2	correct	2.04675263058061
240948	1	stim160_inanimate_furniture_table_4.png	160	inanimate	furniture	table	4	0	5	boats	2	correct	2.04675263058061
241148	1	stim098_animate_mammal_rhino_2.png	98	animate	mammal	rhino	2	0	5	boats	2	correct	2.04675263058061
241348	1	stim195_inanimate_tools_scissors_3.png	195	inanimate	tools	scissors	3	0	5	boats	2	correct	2.04675263058061
241548	1	stim009_animate_aquatic_seahorse_1.png	9	animate	aquatic	seahorse	1	0	5	boats	2	correct	2.04675263058061
241748	1	stim083_animate_mammal_cow_3.png	83	animate	mammal	cow	3	0	5	boats	2	correct	2.04675263058061
241948	1	stim164_inanimate_plants_bush_4.png	164	inanimate	plants	bush	4	0	5	boats	2	correct	2.04675263058061
242148	1	stim186_inanimate_tools_hammer_2.png	186	inanimate	tools	hammer	2	0	5	boats	2	correct	2.04675263058061
242348	1	stim178_inanimate_plants_tulip_2.png	178	inanimate	plants	tulip	2	0	5	boats	2	correct	2.04675263058061
242548	1	stim153_inanimate_furniture_sofa_1.png	153	inanimate	furniture	sofa	1	0	5	boats	2	correct	2.04675263058061
242749	1	stim104_inanimate_clothing_gloves_4.png	104	inanimate	clothing	gloves	4	0	5	boats	2	correct	2.04675263058061
242948	1	stim167_inanimate_plants_cactus_3.png	167	inanimate	plants	cactus	3	0	5	boats	2	correct	2.04675263058061
243149	1	stim010_animate_aquatic_seahorse_2.png	10	animate	aquatic	seahorse	2	0	5	boats	2	correct	2.04675263058061
243349	1	stim052_animate_human_clown_4.png	52	animate	human	clown	4	0	5	boats	2	correct	2.04675263058061
243548	1	stim037_animate_bird_penguin_1.png	37	animate	bird	penguin	1	0	5	boats	2	correct	2.04675263058061
243749	1	stim092_animate_mammal_kangaroo_4.png	92	animate	mammal	kangaroo	4	0	5	boats	2	correct	2.04675263058061
243949	1	stim171_inanimate_plants_sunflower_3.png	171	inanimate	plants	sunflower	3	0	5	boats	2	correct	2.04675263058061
244148	1	stim204_targets_object_boats_4.png	204	targets	object	boats	4	1	5	boats	2	correct	2.04675263058061
244349	1	stim174_inanimate_plants_tree_2.png	174	inanimate	plants	tree	2	0	5	boats	2	correct	2.04675263058061
244549	1	stim091_animate_mammal_kangaroo_3.png	91	animate	mammal	kangaroo	3	0	5	boats	2	correct	2.04675263058061
244749	1	stim020_animate_aquatic_shrimp_4.png	20	animate	aquatic	shrimp	4	0	5	boats	2	correct	2.04675263058061
244949	1	stim136_inanimate_fruits_pineapple_4.png	136	inanimate	fruits	pineapple	4	0	5	boats	2	correct	2.04675263058061
245149	1	stim126_inanimate_fruits_banana_2.png	126	inanimate	fruits	banana	2	0	5	boats	2	correct	2.04675263058061
245349	1	stim142_inanimate_furniture_bed_2.png	142	inanimate	furniture	bed	2	0	5	boats	2	correct	2.04675263058061
245549	1	stim145_inanimate_furniture_chair_1.png	145	inanimate	furniture	chair	1	0	5	boats	2	correct	2.04675263058061
