onset	duration	stimulusname	stimulusnumber	levelA	levelB	levelC	withinexemplarnumber	istarget	trialnumber	condition	response	correct	rt
70729	1	stim093_animate_mammal_monkey_1.png	93	animate	mammal	monkey	1	0	1	stars	1	correct	1.89127461896715
70929	1	stim111_inanimate_clothing_jeans_3.png	111	inanimate	clothing	jeans	3	0	1	stars	1	correct	1.89127461896715
71129	1	stim103_inanimate_clothing_gloves_3.png	103	inanimate	clothing	gloves	3	0	1	stars	1	correct	1.89127461896715
71329	1	stim044_animate_human_baby_4.png	44	animate	human	baby	4	0	1	stars	1	correct	1.89127461896715
71529	1	stim009_animate_aquatic_seahorse_1.png	9	animate	aquatic	seahorse	1	0	1	stars	1	correct	1.89127461896715
71729	1	stim186_inanimate_tools_hammer_2.png	186	inanimate	tools	hammer	2	0	1	stars	1	correct	1.89127461896715
71929	1	stim079_animate_insect_grasshopper_3.png	79	animate	insect	grasshopper	3	0	1	stars	1	correct	1.89127461896715
72129	1	stim033_animate_bird_peacock_1.png	33	animate	bird	peacock	1	0	1	stars	1	correct	1.89127461896715
72329	1	stim021_animate_bird_chicken_1.png	21	animate	bird	chicken	1	0	1	stars	1	correct	1.89127461896715
72529	1	stim178_inanimate_plants_tulip_2.png	178	inanimate	plants	tulip	2	0	1	stars	1	correct	1.89127461896715
72729	1	stim005_animate_aquatic_fish_1.png	5	animate	aquatic	fish	1	0	1	stars	1	correct	1.89127461896715
72929	1	stim149_inanimate_furniture_closet_1.png	149	inanimate	furniture	closet	1	0	1	stars	1	correct	1.89127461896715
73129	1	stim107_inanimate_clothing_hat_3.png	107	inanimate	clothing	hat	3	0	1	stars	1	correct	1.89127461896715
73329	1	stim073_animate_insect_dragonfly_1.png	73	animate	insect	dragonfly	1	0	1	stars	1	correct	1.89127461896715
73529	1	stim063_animate_insect_ant_3.png	63	animate	insect	ant	3	0	1	stars	1	correct	1.89127461896715
73729	1	stim173_inanimate_plants_tree_1.png	173	inanimate	plants	tree	1	0	1	stars	1	correct	1.89127461896715
73929	1	stim147_inanimate_furniture_chair_3.png	147	inanimate	furniture	chair	3	0	1	stars	1	correct	1.89127461896715
74129	1	stim039_animate_bird_penguin_3.png	39	animate	bird	penguin	3	0	1	stars	1	correct	1.89127461896715
74329	1	stim076_animate_insect_dragonfly_4.png	76	animate	insect	dragonfly	4	0	1	stars	1	correct	1.89127461896715
74529	1	stim198_inanimate_tools_wrench_2.png	198	inanimate	tools	wrench	2	0	1	stars	1	correct	1.89127461896715
74729	1	stim166_inanimate_plants_cactus_2.png	166	inanimate	plants	cactus	2	0	1	stars	1	correct	1.89127461896715
74929	1	stim152_inanimate_furniture_closet_4.png	152	inanimate	furniture	closet	4	0	1	stars	1	correct	1.89127461896715
75129	1	stim157_inanimate_furniture_table_1.png	157	inanimate	furniture	table	1	0	1	stars	1	correct	1.89127461896715
75329	1	stim163_inanimate_plants_bush_3.png	163	inanimate	plants	bush	3	0	1	stars	1	correct	1.89127461896715
75529	1	stim181_inanimate_tools_broom_1.png	181	inanimate	tools	broom	1	0	1	stars	1	correct	1.89127461896715
75729	1	stim095_animate_mammal_monkey_3.png	95	animate	mammal	monkey	3	0	1	stars	1	correct	1.89127461896715
75929	1	stim196_inanimate_tools_scissors_4.png	196	inanimate	tools	scissors	4	0	1	stars	1	correct	1.89127461896715
76129	1	stim100_animate_mammal_rhino_4.png	100	animate	mammal	rhino	4	0	1	stars	1	correct	1.89127461896715
76329	1	stim020_animate_aquatic_shrimp_4.png	20	animate	aquatic	shrimp	4	0	1	stars	1	correct	1.89127461896715
76529	1	stim113_inanimate_clothing_shirt_1.png	113	inanimate	clothing	shirt	1	0	1	stars	1	correct	1.89127461896715
76729	1	stim106_inanimate_clothing_hat_2.png	106	inanimate	clothing	hat	2	0	1	stars	1	correct	1.89127461896715
76929	1	stim002_animate_aquatic_crab_2.png	2	animate	aquatic	crab	2	0	1	stars	1	correct	1.89127461896715
77129	1	stim160_inanimate_furniture_table_4.png	160	inanimate	furniture	table	4	0	1	stars	1	correct	1.89127461896715
77329	1	stim031_animate_bird_parrot_3.png	31	animate	bird	parrot	3	0	1	stars	1	correct	1.89127461896715
77529	1	stim182_inanimate_tools_broom_2.png	182	inanimate	tools	broom	2	0	1	stars	1	correct	1.89127461896715
77729	1	stim118_inanimate_clothing_socks_2.png	118	inanimate	clothing	socks	2	0	1	stars	1	correct	1.89127461896715
77929	1	stim191_inanimate_tools_pan_3.png	191	inanimate	tools	pan	3	0	1	stars	1	correct	1.89127461896715
78129	1	stim108_inanimate_clothing_hat_4.png	108	inanimate	clothing	hat	4	0	1	stars	1	correct	1.89127461896715
78329	1	stim004_animate_aquatic_crab_4.png	4	animate	aquatic	crab	4	0	1	stars	1	correct	1.89127461896715
78529	1	stim038_animate_bird_penguin_2.png	38	animate	bird	penguin	2	0	1	stars	1	correct	1.89127461896715
78729	1	stim184_inanimate_tools_broom_4.png	184	inanimate	tools	broom	4	0	1	stars	1	correct	1.89127461896715
78929	1	stim074_animate_insect_dragonfly_2.png	74	animate	insect	dragonfly	2	0	1	stars	1	correct	1.89127461896715
79129	1	stim066_animate_insect_bug_2.png	66	animate	insect	bug	2	0	1	stars	1	correct	1.89127461896715
79329	1	stim159_inanimate_furniture_table_3.png	159	inanimate	furniture	table	3	0	1	stars	1	correct	1.89127461896715
79529	1	stim130_inanimate_fruits_grape_2.png	130	inanimate	fruits	grape	2	0	1	stars	1	correct	1.89127461896715
79729	1	stim143_inanimate_furniture_bed_3.png	143	inanimate	furniture	bed	3	0	1	stars	1	correct	1.89127461896715
79929	1	stim142_inanimate_furniture_bed_2.png	142	inanimate	furniture	bed	2	0	1	stars	1	correct	1.89127461896715
80129	1	stim117_inanimate_clothing_socks_1.png	117	inanimate	clothing	socks	1	0	1	stars	1	correct	1.89127461896715
80329	1	stim194_inanimate_tools_scissors_2.png	194	inanimate	tools	scissors	2	0	1	stars	1	correct	1.89127461896715
80529	1	stim114_inanimate_clothing_shirt_2.png	114	inanimate	clothing	shirt	2	0	1	stars	1	correct	1.89127461896715
80729	1	stim080_animate_insect_grasshopper_4.png	80	animate	insect	grasshopper	4	0	1	stars	1	correct	1.89127461896715
80929	1	stim042_animate_human_baby_2.png	42	animate	human	baby	2	0	1	stars	1	correct	1.89127461896715
81129	1	stim144_inanimate_furniture_bed_4.png	144	inanimate	furniture	bed	4	0	1	stars	1	correct	1.89127461896715
81329	1	stim011_animate_aquatic_seahorse_3.png	11	animate	aquatic	seahorse	3	0	1	stars	1	correct	1.89127461896715
81529	1	stim169_inanimate_plants_sunflower_1.png	169	inanimate	plants	sunflower	1	0	1	stars	1	correct	1.89127461896715
81729	1	stim109_inanimate_clothing_jeans_1.png	109	inanimate	clothing	jeans	1	0	1	stars	1	correct	1.89127461896715
81929	1	stim019_animate_aquatic_shrimp_3.png	19	animate	aquatic	shrimp	3	0	1	stars	1	correct	1.89127461896715
82129	1	stim116_inanimate_clothing_shirt_4.png	116	inanimate	clothing	shirt	4	0	1	stars	1	correct	1.89127461896715
82329	1	stim040_animate_bird_penguin_4.png	40	animate	bird	penguin	4	0	1	stars	1	correct	1.89127461896715
82529	1	stim200_inanimate_tools_wrench_4.png	200	inanimate	tools	wrench	4	0	1	stars	1	correct	1.89127461896715
82729	1	stim161_inanimate_plants_bush_1.png	161	inanimate	plants	bush	1	0	1	stars	1	correct	1.89127461896715
82929	1	stim180_inanimate_plants_tulip_4.png	180	inanimate	plants	tulip	4	0	1	stars	1	correct	1.89127461896715
83129	1	stim151_inanimate_furniture_closet_3.png	151	inanimate	furniture	closet	3	0	1	stars	1	correct	1.89127461896715
83329	1	stim175_inanimate_plants_tree_3.png	175	inanimate	plants	tree	3	0	1	stars	1	correct	1.89127461896715
83529	1	stim128_inanimate_fruits_banana_4.png	128	inanimate	fruits	banana	4	0	1	stars	1	correct	1.89127461896715
83729	1	stim056_animate_human_faces_4.png	56	animate	human	faces	4	0	1	stars	1	correct	1.89127461896715
83929	1	stim085_animate_mammal_giraffe_1.png	85	animate	mammal	giraffe	1	0	1	stars	1	correct	1.89127461896715
84129	1	stim017_animate_aquatic_shrimp_1.png	17	animate	aquatic	shrimp	1	0	1	stars	1	correct	1.89127461896715
84329	1	stim028_animate_bird_duck_4.png	28	animate	bird	duck	4	0	1	stars	1	correct	1.89127461896715
84529	1	stim067_animate_insect_bug_3.png	67	animate	insect	bug	3	0	1	stars	1	correct	1.89127461896715
84729	1	stim036_animate_bird_peacock_4.png	36	animate	bird	peacock	4	0	1	stars	1	correct	1.89127461896715
84929	1	stim037_animate_bird_penguin_1.png	37	animate	bird	penguin	1	0	1	stars	1	correct	1.89127461896715
85129	1	stim008_animate_aquatic_fish_4.png	8	animate	aquatic	fish	4	0	1	stars	1	correct	1.89127461896715
85329	1	stim084_animate_mammal_cow_4.png	84	animate	mammal	cow	4	0	1	stars	1	correct	1.89127461896715
85529	1	stim023_animate_bird_chicken_3.png	23	animate	bird	chicken	3	0	1	stars	1	correct	1.89127461896715
85729	1	stim007_animate_aquatic_fish_3.png	7	animate	aquatic	fish	3	0	1	stars	1	correct	1.89127461896715
85929	1	stim096_animate_mammal_monkey_4.png	96	animate	mammal	monkey	4	0	1	stars	1	correct	1.89127461896715
86129	1	stim050_animate_human_clown_2.png	50	animate	human	clown	2	0	1	stars	1	correct	1.89127461896715
86329	1	stim083_animate_mammal_cow_3.png	83	animate	mammal	cow	3	0	1	stars	1	correct	1.89127461896715
86529	1	stim070_animate_insect_butterfly_2.png	70	animate	insect	butterfly	2	0	1	stars	1	correct	1.89127461896715
86729	1	stim072_animate_insect_butterfly_4.png	72	animate	insect	butterfly	4	0	1	stars	1	correct	1.89127461896715
86929	1	stim150_inanimate_furniture_closet_2.png	150	inanimate	furniture	closet	2	0	1	stars	1	correct	1.89127461896715
87129	1	stim090_animate_mammal_kangaroo_2.png	90	animate	mammal	kangaroo	2	0	1	stars	1	correct	1.89127461896715
87329	1	stim185_inanimate_tools_hammer_1.png	185	inanimate	tools	hammer	1	0	1	stars	1	correct	1.89127461896715
87529	1	stim174_inanimate_plants_tree_2.png	174	inanimate	plants	tree	2	0	1	stars	1	correct	1.89127461896715
87729	1	stim043_animate_human_baby_3.png	43	animate	human	baby	3	0	1	stars	1	correct	1.89127461896715
87929	1	stim064_animate_insect_ant_4.png	64	animate	insect	ant	4	0	1	stars	1	correct	1.89127461896715
88129	1	stim105_inanimate_clothing_hat_1.png	105	inanimate	clothing	hat	1	0	1	stars	1	correct	1.89127461896715
88329	1	stim148_inanimate_furniture_chair_4.png	148	inanimate	furniture	chair	4	0	1	stars	1	correct	1.89127461896715
88529	1	stim199_inanimate_tools_wrench_3.png	199	inanimate	tools	wrench	3	0	1	stars	1	correct	1.89127461896715
88729	1	stim029_animate_bird_parrot_1.png	29	animate	bird	parrot	1	0	1	stars	1	correct	1.89127461896715
88929	1	stim138_inanimate_fruits_strawberry_2.png	138	inanimate	fruits	strawberry	2	0	1	stars	1	correct	1.89127461896715
89129	1	stim099_animate_mammal_rhino_3.png	99	animate	mammal	rhino	3	0	1	stars	1	correct	1.89127461896715
89329	1	stim189_inanimate_tools_pan_1.png	189	inanimate	tools	pan	1	0	1	stars	1	correct	1.89127461896715
89529	1	stim197_inanimate_tools_wrench_1.png	197	inanimate	tools	wrench	1	0	1	stars	1	correct	1.89127461896715
89729	1	stim013_animate_aquatic_shark_1.png	13	animate	aquatic	shark	1	0	1	stars	1	correct	1.89127461896715
89929	1	stim027_animate_bird_duck_3.png	27	animate	bird	duck	3	0	1	stars	1	correct	1.89127461896715
90129	1	stim041_animate_human_baby_1.png	41	animate	human	baby	1	0	1	stars	1	correct	1.89127461896715
90329	1	stim210_targets_shapes_star_2.png	210	targets	shapes	star	2	1	1	stars	1	correct	1.89127461896715
90529	1	stim124_inanimate_fruits_apple_4.png	124	inanimate	fruits	apple	4	0	1	stars	1	correct	1.89127461896715
90729	1	stim078_animate_insect_grasshopper_2.png	78	animate	insect	grasshopper	2	0	1	stars	1	correct	1.89127461896715
90929	1	stim094_animate_mammal_monkey_2.png	94	animate	mammal	monkey	2	0	1	stars	1	correct	1.89127461896715
91129	1	stim195_inanimate_tools_scissors_3.png	195	inanimate	tools	scissors	3	0	1	stars	1	correct	1.89127461896715
91329	1	stim097_animate_mammal_rhino_1.png	97	animate	mammal	rhino	1	0	1	stars	1	correct	1.89127461896715
91529	1	stim158_inanimate_furniture_table_2.png	158	inanimate	furniture	table	2	0	1	stars	1	correct	1.89127461896715
91730	1	stim045_animate_human_child_1.png	45	animate	human	child	1	0	1	stars	1	correct	1.89127461896715
91929	1	stim077_animate_insect_grasshopper_1.png	77	animate	insect	grasshopper	1	0	1	stars	1	correct	1.89127461896715
92129	1	stim052_animate_human_clown_4.png	52	animate	human	clown	4	0	1	stars	1	correct	1.89127461896715
92330	1	stim086_animate_mammal_giraffe_2.png	86	animate	mammal	giraffe	2	0	1	stars	1	correct	1.89127461896715
92529	1	stim183_inanimate_tools_broom_3.png	183	inanimate	tools	broom	3	0	1	stars	1	correct	1.89127461896715
92730	1	stim032_animate_bird_parrot_4.png	32	animate	bird	parrot	4	0	1	stars	1	correct	1.89127461896715
92930	1	stim054_animate_human_faces_2.png	54	animate	human	faces	2	0	1	stars	1	correct	1.89127461896715
93130	1	stim071_animate_insect_butterfly_3.png	71	animate	insect	butterfly	3	0	1	stars	1	correct	1.89127461896715
93330	1	stim135_inanimate_fruits_pineapple_3.png	135	inanimate	fruits	pineapple	3	0	1	stars	1	correct	1.89127461896715
93530	1	stim179_inanimate_plants_tulip_3.png	179	inanimate	plants	tulip	3	0	1	stars	1	correct	1.89127461896715
93730	1	stim059_animate_human_sports_3.png	59	animate	human	sports	3	0	1	stars	1	correct	1.89127461896715
93930	1	stim062_animate_insect_ant_2.png	62	animate	insect	ant	2	0	1	stars	1	correct	1.89127461896715
94130	1	stim092_animate_mammal_kangaroo_4.png	92	animate	mammal	kangaroo	4	0	1	stars	1	correct	1.89127461896715
94330	1	stim145_inanimate_furniture_chair_1.png	145	inanimate	furniture	chair	1	0	1	stars	1	correct	1.89127461896715
94530	1	stim065_animate_insect_bug_1.png	65	animate	insect	bug	1	0	1	stars	1	correct	1.89127461896715
94730	1	stim134_inanimate_fruits_pineapple_2.png	134	inanimate	fruits	pineapple	2	0	1	stars	1	correct	1.89127461896715
94930	1	stim035_animate_bird_peacock_3.png	35	animate	bird	peacock	3	0	1	stars	1	correct	1.89127461896715
95130	1	stim058_animate_human_sports_2.png	58	animate	human	sports	2	0	1	stars	1	correct	1.89127461896715
95330	1	stim192_inanimate_tools_pan_4.png	192	inanimate	tools	pan	4	0	1	stars	1	correct	1.89127461896715
95530	1	stim061_animate_insect_ant_1.png	61	animate	insect	ant	1	0	1	stars	1	correct	1.89127461896715
95730	1	stim102_inanimate_clothing_gloves_2.png	102	inanimate	clothing	gloves	2	0	1	stars	1	correct	1.89127461896715
95930	1	stim104_inanimate_clothing_gloves_4.png	104	inanimate	clothing	gloves	4	0	1	stars	1	correct	1.89127461896715
96130	1	stim051_animate_human_clown_3.png	51	animate	human	clown	3	0	1	stars	1	correct	1.89127461896715
96330	1	stim187_inanimate_tools_hammer_3.png	187	inanimate	tools	hammer	3	0	1	stars	1	correct	1.89127461896715
96530	1	stim025_animate_bird_duck_1.png	25	animate	bird	duck	1	0	1	stars	1	correct	1.89127461896715
96730	1	stim141_inanimate_furniture_bed_1.png	141	inanimate	furniture	bed	1	0	1	stars	1	correct	1.89127461896715
96930	1	stim006_animate_aquatic_fish_2.png	6	animate	aquatic	fish	2	0	1	stars	1	correct	1.89127461896715
97130	1	stim055_animate_human_faces_3.png	55	animate	human	faces	3	0	1	stars	1	correct	1.89127461896715
97330	1	stim188_inanimate_tools_hammer_4.png	188	inanimate	tools	hammer	4	0	1	stars	1	correct	1.89127461896715
97530	1	stim034_animate_bird_peacock_2.png	34	animate	bird	peacock	2	0	1	stars	1	correct	1.89127461896715
97730	1	stim133_inanimate_fruits_pineapple_1.png	133	inanimate	fruits	pineapple	1	0	1	stars	1	correct	1.89127461896715
97930	1	stim121_inanimate_fruits_apple_1.png	121	inanimate	fruits	apple	1	0	1	stars	1	correct	1.89127461896715
98130	1	stim091_animate_mammal_kangaroo_3.png	91	animate	mammal	kangaroo	3	0	1	stars	1	correct	1.89127461896715
98330	1	stim087_animate_mammal_giraffe_3.png	87	animate	mammal	giraffe	3	0	1	stars	1	correct	1.89127461896715
98530	1	stim172_inanimate_plants_sunflower_4.png	172	inanimate	plants	sunflower	4	0	1	stars	1	correct	1.89127461896715
98730	1	stim126_inanimate_fruits_banana_2.png	126	inanimate	fruits	banana	2	0	1	stars	1	correct	1.89127461896715
98930	1	stim098_animate_mammal_rhino_2.png	98	animate	mammal	rhino	2	0	1	stars	1	correct	1.89127461896715
99130	1	stim060_animate_human_sports_4.png	60	animate	human	sports	4	0	1	stars	1	correct	1.89127461896715
99330	1	stim190_inanimate_tools_pan_2.png	190	inanimate	tools	pan	2	0	1	stars	1	correct	1.89127461896715
99530	1	stim129_inanimate_fruits_grape_1.png	129	inanimate	fruits	grape	1	0	1	stars	1	correct	1.89127461896715
99730	1	stim112_inanimate_clothing_jeans_4.png	112	inanimate	clothing	jeans	4	0	1	stars	1	correct	1.89127461896715
99930	1	stim125_inanimate_fruits_banana_1.png	125	inanimate	fruits	banana	1	0	1	stars	1	correct	1.89127461896715
100130	1	stim167_inanimate_plants_cactus_3.png	167	inanimate	plants	cactus	3	0	1	stars	1	correct	1.89127461896715
100330	1	stim176_inanimate_plants_tree_4.png	176	inanimate	plants	tree	4	0	1	stars	1	correct	1.89127461896715
100530	1	stim047_animate_human_child_3.png	47	animate	human	child	3	0	1	stars	1	correct	1.89127461896715
100730	1	stim101_inanimate_clothing_gloves_1.png	101	inanimate	clothing	gloves	1	0	1	stars	1	correct	1.89127461896715
100930	1	stim069_animate_insect_butterfly_1.png	69	animate	insect	butterfly	1	0	1	stars	1	correct	1.89127461896715
101130	1	stim014_animate_aquatic_shark_2.png	14	animate	aquatic	shark	2	0	1	stars	1	correct	1.89127461896715
101330	1	stim003_animate_aquatic_crab_3.png	3	animate	aquatic	crab	3	0	1	stars	1	correct	1.89127461896715
101530	1	stim170_inanimate_plants_sunflower_2.png	170	inanimate	plants	sunflower	2	0	1	stars	1	correct	1.89127461896715
101730	1	stim132_inanimate_fruits_grape_4.png	132	inanimate	fruits	grape	4	0	1	stars	1	correct	1.89127461896715
101930	1	stim146_inanimate_furniture_chair_2.png	146	inanimate	furniture	chair	2	0	1	stars	1	correct	1.89127461896715
102130	1	stim136_inanimate_fruits_pineapple_4.png	136	inanimate	fruits	pineapple	4	0	1	stars	1	correct	1.89127461896715
102330	1	stim155_inanimate_furniture_sofa_3.png	155	inanimate	furniture	sofa	3	0	1	stars	1	correct	1.89127461896715
102530	1	stim016_animate_aquatic_shark_4.png	16	animate	aquatic	shark	4	0	1	stars	1	correct	1.89127461896715
102730	1	stim018_animate_aquatic_shrimp_2.png	18	animate	aquatic	shrimp	2	0	1	stars	1	correct	1.89127461896715
102930	1	stim193_inanimate_tools_scissors_1.png	193	inanimate	tools	scissors	1	0	1	stars	1	correct	1.89127461896715
103130	1	stim049_animate_human_clown_1.png	49	animate	human	clown	1	0	1	stars	1	correct	1.89127461896715
103330	1	stim164_inanimate_plants_bush_4.png	164	inanimate	plants	bush	4	0	1	stars	1	correct	1.89127461896715
103530	1	stim015_animate_aquatic_shark_3.png	15	animate	aquatic	shark	3	0	1	stars	1	correct	1.89127461896715
103730	1	stim046_animate_human_child_2.png	46	animate	human	child	2	0	1	stars	1	correct	1.89127461896715
103930	1	stim120_inanimate_clothing_socks_4.png	120	inanimate	clothing	socks	4	0	1	stars	1	correct	1.89127461896715
104130	1	stim165_inanimate_plants_cactus_1.png	165	inanimate	plants	cactus	1	0	1	stars	1	correct	1.89127461896715
104330	1	stim122_inanimate_fruits_apple_2.png	122	inanimate	fruits	apple	2	0	1	stars	1	correct	1.89127461896715
104530	1	stim053_animate_human_faces_1.png	53	animate	human	faces	1	0	1	stars	1	correct	1.89127461896715
104730	1	stim022_animate_bird_chicken_2.png	22	animate	bird	chicken	2	0	1	stars	1	correct	1.89127461896715
104930	1	stim168_inanimate_plants_cactus_4.png	168	inanimate	plants	cactus	4	0	1	stars	1	correct	1.89127461896715
105130	1	stim115_inanimate_clothing_shirt_3.png	115	inanimate	clothing	shirt	3	0	1	stars	1	correct	1.89127461896715
105330	1	stim082_animate_mammal_cow_2.png	82	animate	mammal	cow	2	0	1	stars	1	correct	1.89127461896715
105530	1	stim089_animate_mammal_kangaroo_1.png	89	animate	mammal	kangaroo	1	0	1	stars	1	correct	1.89127461896715
105730	1	stim156_inanimate_furniture_sofa_4.png	156	inanimate	furniture	sofa	4	0	1	stars	1	correct	1.89127461896715
105930	1	stim140_inanimate_fruits_strawberry_4.png	140	inanimate	fruits	strawberry	4	0	1	stars	1	correct	1.89127461896715
106130	1	stim081_animate_mammal_cow_1.png	81	animate	mammal	cow	1	0	1	stars	1	correct	1.89127461896715
106330	1	stim001_animate_aquatic_crab_1.png	1	animate	aquatic	crab	1	0	1	stars	1	correct	1.89127461896715
106530	1	stim030_animate_bird_parrot_2.png	30	animate	bird	parrot	2	0	1	stars	1	correct	1.89127461896715
106730	1	stim057_animate_human_sports_1.png	57	animate	human	sports	1	0	1	stars	1	correct	1.89127461896715
106930	1	stim162_inanimate_plants_bush_2.png	162	inanimate	plants	bush	2	0	1	stars	1	correct	1.89127461896715
107130	1	stim171_inanimate_plants_sunflower_3.png	171	inanimate	plants	sunflower	3	0	1	stars	1	correct	1.89127461896715
107330	1	stim154_inanimate_furniture_sofa_2.png	154	inanimate	furniture	sofa	2	0	1	stars	1	correct	1.89127461896715
107530	1	stim110_inanimate_clothing_jeans_2.png	110	inanimate	clothing	jeans	2	0	1	stars	1	correct	1.89127461896715
107730	1	stim127_inanimate_fruits_banana_3.png	127	inanimate	fruits	banana	3	0	1	stars	1	correct	1.89127461896715
107930	1	stim153_inanimate_furniture_sofa_1.png	153	inanimate	furniture	sofa	1	0	1	stars	1	correct	1.89127461896715
108130	1	stim068_animate_insect_bug_4.png	68	animate	insect	bug	4	0	1	stars	1	correct	1.89127461896715
108330	1	stim177_inanimate_plants_tulip_1.png	177	inanimate	plants	tulip	1	0	1	stars	1	correct	1.89127461896715
108530	1	stim131_inanimate_fruits_grape_3.png	131	inanimate	fruits	grape	3	0	1	stars	1	correct	1.89127461896715
108730	1	stim123_inanimate_fruits_apple_3.png	123	inanimate	fruits	apple	3	0	1	stars	1	correct	1.89127461896715
108930	1	stim010_animate_aquatic_seahorse_2.png	10	animate	aquatic	seahorse	2	0	1	stars	1	correct	1.89127461896715
109130	1	stim075_animate_insect_dragonfly_3.png	75	animate	insect	dragonfly	3	0	1	stars	1	correct	1.89127461896715
109330	1	stim012_animate_aquatic_seahorse_4.png	12	animate	aquatic	seahorse	4	0	1	stars	1	correct	1.89127461896715
109530	1	stim048_animate_human_child_4.png	48	animate	human	child	4	0	1	stars	1	correct	1.89127461896715
109730	1	stim119_inanimate_clothing_socks_3.png	119	inanimate	clothing	socks	3	0	1	stars	1	correct	1.89127461896715
109930	1	stim026_animate_bird_duck_2.png	26	animate	bird	duck	2	0	1	stars	1	correct	1.89127461896715
110130	1	stim137_inanimate_fruits_strawberry_1.png	137	inanimate	fruits	strawberry	1	0	1	stars	1	correct	1.89127461896715
110330	1	stim024_animate_bird_chicken_4.png	24	animate	bird	chicken	4	0	1	stars	1	correct	1.89127461896715
110530	1	stim139_inanimate_fruits_strawberry_3.png	139	inanimate	fruits	strawberry	3	0	1	stars	1	correct	1.89127461896715
110730	1	stim088_animate_mammal_giraffe_4.png	88	animate	mammal	giraffe	4	0	1	stars	1	correct	1.89127461896715
134897	1	stim077_animate_insect_grasshopper_1.png	77	animate	insect	grasshopper	1	0	2	stars	1	correct	0.702086741079256
135097	1	stim130_inanimate_fruits_grape_2.png	130	inanimate	fruits	grape	2	0	2	stars	1	correct	0.702086741079256
135297	1	stim187_inanimate_tools_hammer_3.png	187	inanimate	tools	hammer	3	0	2	stars	1	correct	0.702086741079256
135497	1	stim017_animate_aquatic_shrimp_1.png	17	animate	aquatic	shrimp	1	0	2	stars	1	correct	0.702086741079256
135697	1	stim181_inanimate_tools_broom_1.png	181	inanimate	tools	broom	1	0	2	stars	1	correct	0.702086741079256
135897	1	stim028_animate_bird_duck_4.png	28	animate	bird	duck	4	0	2	stars	1	correct	0.702086741079256
136097	1	stim190_inanimate_tools_pan_2.png	190	inanimate	tools	pan	2	0	2	stars	1	correct	0.702086741079256
136297	1	stim159_inanimate_furniture_table_3.png	159	inanimate	furniture	table	3	0	2	stars	1	correct	0.702086741079256
136497	1	stim118_inanimate_clothing_socks_2.png	118	inanimate	clothing	socks	2	0	2	stars	1	correct	0.702086741079256
136697	1	stim151_inanimate_furniture_closet_3.png	151	inanimate	furniture	closet	3	0	2	stars	1	correct	0.702086741079256
136897	1	stim068_animate_insect_bug_4.png	68	animate	insect	bug	4	0	2	stars	1	correct	0.702086741079256
137097	1	stim056_animate_human_faces_4.png	56	animate	human	faces	4	0	2	stars	1	correct	0.702086741079256
137297	1	stim035_animate_bird_peacock_3.png	35	animate	bird	peacock	3	0	2	stars	1	correct	0.702086741079256
137497	1	stim020_animate_aquatic_shrimp_4.png	20	animate	aquatic	shrimp	4	0	2	stars	1	correct	0.702086741079256
137697	1	stim135_inanimate_fruits_pineapple_3.png	135	inanimate	fruits	pineapple	3	0	2	stars	1	correct	0.702086741079256
137897	1	stim140_inanimate_fruits_strawberry_4.png	140	inanimate	fruits	strawberry	4	0	2	stars	1	correct	0.702086741079256
138097	1	stim026_animate_bird_duck_2.png	26	animate	bird	duck	2	0	2	stars	1	correct	0.702086741079256
138297	1	stim085_animate_mammal_giraffe_1.png	85	animate	mammal	giraffe	1	0	2	stars	1	correct	0.702086741079256
138497	1	stim161_inanimate_plants_bush_1.png	161	inanimate	plants	bush	1	0	2	stars	1	correct	0.702086741079256
138697	1	stim169_inanimate_plants_sunflower_1.png	169	inanimate	plants	sunflower	1	0	2	stars	1	correct	0.702086741079256
138897	1	stim099_animate_mammal_rhino_3.png	99	animate	mammal	rhino	3	0	2	stars	1	correct	0.702086741079256
139097	1	stim008_animate_aquatic_fish_4.png	8	animate	aquatic	fish	4	0	2	stars	1	correct	0.702086741079256
139297	1	stim191_inanimate_tools_pan_3.png	191	inanimate	tools	pan	3	0	2	stars	1	correct	0.702086741079256
139497	1	stim137_inanimate_fruits_strawberry_1.png	137	inanimate	fruits	strawberry	1	0	2	stars	1	correct	0.702086741079256
139697	1	stim109_inanimate_clothing_jeans_1.png	109	inanimate	clothing	jeans	1	0	2	stars	1	correct	0.702086741079256
139897	1	stim078_animate_insect_grasshopper_2.png	78	animate	insect	grasshopper	2	0	2	stars	1	correct	0.702086741079256
140097	1	stim164_inanimate_plants_bush_4.png	164	inanimate	plants	bush	4	0	2	stars	1	correct	0.702086741079256
140297	1	stim040_animate_bird_penguin_4.png	40	animate	bird	penguin	4	0	2	stars	1	correct	0.702086741079256
140497	1	stim141_inanimate_furniture_bed_1.png	141	inanimate	furniture	bed	1	0	2	stars	1	correct	0.702086741079256
140697	1	stim067_animate_insect_bug_3.png	67	animate	insect	bug	3	0	2	stars	1	correct	0.702086741079256
140897	1	stim117_inanimate_clothing_socks_1.png	117	inanimate	clothing	socks	1	0	2	stars	1	correct	0.702086741079256
141097	1	stim038_animate_bird_penguin_2.png	38	animate	bird	penguin	2	0	2	stars	1	correct	0.702086741079256
141297	1	stim064_animate_insect_ant_4.png	64	animate	insect	ant	4	0	2	stars	1	correct	0.702086741079256
141497	1	stim034_animate_bird_peacock_2.png	34	animate	bird	peacock	2	0	2	stars	1	correct	0.702086741079256
141697	1	stim144_inanimate_furniture_bed_4.png	144	inanimate	furniture	bed	4	0	2	stars	1	correct	0.702086741079256
141897	1	stim037_animate_bird_penguin_1.png	37	animate	bird	penguin	1	0	2	stars	1	correct	0.702086741079256
142097	1	stim059_animate_human_sports_3.png	59	animate	human	sports	3	0	2	stars	1	correct	0.702086741079256
142297	1	stim156_inanimate_furniture_sofa_4.png	156	inanimate	furniture	sofa	4	0	2	stars	1	correct	0.702086741079256
142497	1	stim153_inanimate_furniture_sofa_1.png	153	inanimate	furniture	sofa	1	0	2	stars	1	correct	0.702086741079256
142697	1	stim150_inanimate_furniture_closet_2.png	150	inanimate	furniture	closet	2	0	2	stars	1	correct	0.702086741079256
142897	1	stim160_inanimate_furniture_table_4.png	160	inanimate	furniture	table	4	0	2	stars	1	correct	0.702086741079256
143097	1	stim041_animate_human_baby_1.png	41	animate	human	baby	1	0	2	stars	1	correct	0.702086741079256
143297	1	stim134_inanimate_fruits_pineapple_2.png	134	inanimate	fruits	pineapple	2	0	2	stars	1	correct	0.702086741079256
143497	1	stim046_animate_human_child_2.png	46	animate	human	child	2	0	2	stars	1	correct	0.702086741079256
143697	1	stim133_inanimate_fruits_pineapple_1.png	133	inanimate	fruits	pineapple	1	0	2	stars	1	correct	0.702086741079256
143897	1	stim125_inanimate_fruits_banana_1.png	125	inanimate	fruits	banana	1	0	2	stars	1	correct	0.702086741079256
144097	1	stim090_animate_mammal_kangaroo_2.png	90	animate	mammal	kangaroo	2	0	2	stars	1	correct	0.702086741079256
144297	1	stim042_animate_human_baby_2.png	42	animate	human	baby	2	0	2	stars	1	correct	0.702086741079256
144497	1	stim124_inanimate_fruits_apple_4.png	124	inanimate	fruits	apple	4	0	2	stars	1	correct	0.702086741079256
144697	1	stim005_animate_aquatic_fish_1.png	5	animate	aquatic	fish	1	0	2	stars	1	correct	0.702086741079256
144897	1	stim170_inanimate_plants_sunflower_2.png	170	inanimate	plants	sunflower	2	0	2	stars	1	correct	0.702086741079256
145097	1	stim060_animate_human_sports_4.png	60	animate	human	sports	4	0	2	stars	1	correct	0.702086741079256
145297	1	stim102_inanimate_clothing_gloves_2.png	102	inanimate	clothing	gloves	2	0	2	stars	1	correct	0.702086741079256
145497	1	stim071_animate_insect_butterfly_3.png	71	animate	insect	butterfly	3	0	2	stars	1	correct	0.702086741079256
145697	1	stim101_inanimate_clothing_gloves_1.png	101	inanimate	clothing	gloves	1	0	2	stars	1	correct	0.702086741079256
145897	1	stim069_animate_insect_butterfly_1.png	69	animate	insect	butterfly	1	0	2	stars	1	correct	0.702086741079256
146097	1	stim072_animate_insect_butterfly_4.png	72	animate	insect	butterfly	4	0	2	stars	1	correct	0.702086741079256
146297	1	stim127_inanimate_fruits_banana_3.png	127	inanimate	fruits	banana	3	0	2	stars	1	correct	0.702086741079256
146497	1	stim175_inanimate_plants_tree_3.png	175	inanimate	plants	tree	3	0	2	stars	1	correct	0.702086741079256
146697	1	stim100_animate_mammal_rhino_4.png	100	animate	mammal	rhino	4	0	2	stars	1	correct	0.702086741079256
146897	1	stim075_animate_insect_dragonfly_3.png	75	animate	insect	dragonfly	3	0	2	stars	1	correct	0.702086741079256
147097	1	stim079_animate_insect_grasshopper_3.png	79	animate	insect	grasshopper	3	0	2	stars	1	correct	0.702086741079256
147297	1	stim121_inanimate_fruits_apple_1.png	121	inanimate	fruits	apple	1	0	2	stars	1	correct	0.702086741079256
147497	1	stim107_inanimate_clothing_hat_3.png	107	inanimate	clothing	hat	3	0	2	stars	1	correct	0.702086741079256
147697	1	stim129_inanimate_fruits_grape_1.png	129	inanimate	fruits	grape	1	0	2	stars	1	correct	0.702086741079256
147897	1	stim177_inanimate_plants_tulip_1.png	177	inanimate	plants	tulip	1	0	2	stars	1	correct	0.702086741079256
148097	1	stim089_animate_mammal_kangaroo_1.png	89	animate	mammal	kangaroo	1	0	2	stars	1	correct	0.702086741079256
148297	1	stim184_inanimate_tools_broom_4.png	184	inanimate	tools	broom	4	0	2	stars	1	correct	0.702086741079256
148497	1	stim002_animate_aquatic_crab_2.png	2	animate	aquatic	crab	2	0	2	stars	1	correct	0.702086741079256
148697	1	stim096_animate_mammal_monkey_4.png	96	animate	mammal	monkey	4	0	2	stars	1	correct	0.702086741079256
148897	1	stim179_inanimate_plants_tulip_3.png	179	inanimate	plants	tulip	3	0	2	stars	1	correct	0.702086741079256
149097	1	stim050_animate_human_clown_2.png	50	animate	human	clown	2	0	2	stars	1	correct	0.702086741079256
149297	1	stim172_inanimate_plants_sunflower_4.png	172	inanimate	plants	sunflower	4	0	2	stars	1	correct	0.702086741079256
149497	1	stim171_inanimate_plants_sunflower_3.png	171	inanimate	plants	sunflower	3	0	2	stars	1	correct	0.702086741079256
149697	1	stim021_animate_bird_chicken_1.png	21	animate	bird	chicken	1	0	2	stars	1	correct	0.702086741079256
149897	1	stim104_inanimate_clothing_gloves_4.png	104	inanimate	clothing	gloves	4	0	2	stars	1	correct	0.702086741079256
150097	1	stim114_inanimate_clothing_shirt_2.png	114	inanimate	clothing	shirt	2	0	2	stars	1	correct	0.702086741079256
150297	1	stim173_inanimate_plants_tree_1.png	173	inanimate	plants	tree	1	0	2	stars	1	correct	0.702086741079256
150497	1	stim196_inanimate_tools_scissors_4.png	196	inanimate	tools	scissors	4	0	2	stars	1	correct	0.702086741079256
150697	1	stim180_inanimate_plants_tulip_4.png	180	inanimate	plants	tulip	4	0	2	stars	1	correct	0.702086741079256
150898	1	stim029_animate_bird_parrot_1.png	29	animate	bird	parrot	1	0	2	stars	1	correct	0.702086741079256
151097	1	stim105_inanimate_clothing_hat_1.png	105	inanimate	clothing	hat	1	0	2	stars	1	correct	0.702086741079256
151298	1	stim007_animate_aquatic_fish_3.png	7	animate	aquatic	fish	3	0	2	stars	1	correct	0.702086741079256
151498	1	stim146_inanimate_furniture_chair_2.png	146	inanimate	furniture	chair	2	0	2	stars	1	correct	0.702086741079256
151698	1	stim108_inanimate_clothing_hat_4.png	108	inanimate	clothing	hat	4	0	2	stars	1	correct	0.702086741079256
151898	1	stim139_inanimate_fruits_strawberry_3.png	139	inanimate	fruits	strawberry	3	0	2	stars	1	correct	0.702086741079256
152098	1	stim162_inanimate_plants_bush_2.png	162	inanimate	plants	bush	2	0	2	stars	1	correct	0.702086741079256
152298	1	stim112_inanimate_clothing_jeans_4.png	112	inanimate	clothing	jeans	4	0	2	stars	1	correct	0.702086741079256
152498	1	stim097_animate_mammal_rhino_1.png	97	animate	mammal	rhino	1	0	2	stars	1	correct	0.702086741079256
152698	1	stim120_inanimate_clothing_socks_4.png	120	inanimate	clothing	socks	4	0	2	stars	1	correct	0.702086741079256
152898	1	stim192_inanimate_tools_pan_4.png	192	inanimate	tools	pan	4	0	2	stars	1	correct	0.702086741079256
153098	1	stim106_inanimate_clothing_hat_2.png	106	inanimate	clothing	hat	2	0	2	stars	1	correct	0.702086741079256
153298	1	stim200_inanimate_tools_wrench_4.png	200	inanimate	tools	wrench	4	0	2	stars	1	correct	0.702086741079256
153498	1	stim093_animate_mammal_monkey_1.png	93	animate	mammal	monkey	1	0	2	stars	1	correct	0.702086741079256
153698	1	stim155_inanimate_furniture_sofa_3.png	155	inanimate	furniture	sofa	3	0	2	stars	1	correct	0.702086741079256
153898	1	stim024_animate_bird_chicken_4.png	24	animate	bird	chicken	4	0	2	stars	1	correct	0.702086741079256
154098	1	stim006_animate_aquatic_fish_2.png	6	animate	aquatic	fish	2	0	2	stars	1	correct	0.702086741079256
154298	1	stim044_animate_human_baby_4.png	44	animate	human	baby	4	0	2	stars	1	correct	0.702086741079256
154498	1	stim012_animate_aquatic_seahorse_4.png	12	animate	aquatic	seahorse	4	0	2	stars	1	correct	0.702086741079256
154698	1	stim152_inanimate_furniture_closet_4.png	152	inanimate	furniture	closet	4	0	2	stars	1	correct	0.702086741079256
154898	1	stim188_inanimate_tools_hammer_4.png	188	inanimate	tools	hammer	4	0	2	stars	1	correct	0.702086741079256
155098	1	stim019_animate_aquatic_shrimp_3.png	19	animate	aquatic	shrimp	3	0	2	stars	1	correct	0.702086741079256
155298	1	stim047_animate_human_child_3.png	47	animate	human	child	3	0	2	stars	1	correct	0.702086741079256
155498	1	stim058_animate_human_sports_2.png	58	animate	human	sports	2	0	2	stars	1	correct	0.702086741079256
155698	1	stim168_inanimate_plants_cactus_4.png	168	inanimate	plants	cactus	4	0	2	stars	1	correct	0.702086741079256
155898	1	stim165_inanimate_plants_cactus_1.png	165	inanimate	plants	cactus	1	0	2	stars	1	correct	0.702086741079256
156098	1	stim210_targets_shapes_star_2.png	210	targets	shapes	star	2	1	2	stars	1	correct	0.702086741079256
156298	1	stim197_inanimate_tools_wrench_1.png	197	inanimate	tools	wrench	1	0	2	stars	1	correct	0.702086741079256
156498	1	stim132_inanimate_fruits_grape_4.png	132	inanimate	fruits	grape	4	0	2	stars	1	correct	0.702086741079256
156698	1	stim136_inanimate_fruits_pineapple_4.png	136	inanimate	fruits	pineapple	4	0	2	stars	1	correct	0.702086741079256
156898	1	stim167_inanimate_plants_cactus_3.png	167	inanimate	plants	cactus	3	0	2	stars	1	correct	0.702086741079256
157098	1	stim176_inanimate_plants_tree_4.png	176	inanimate	plants	tree	4	0	2	stars	1	correct	0.702086741079256
157298	1	stim009_animate_aquatic_seahorse_1.png	9	animate	aquatic	seahorse	1	0	2	stars	1	correct	0.702086741079256
157498	1	stim043_animate_human_baby_3.png	43	animate	human	baby	3	0	2	stars	1	correct	0.702086741079256
157698	1	stim115_inanimate_clothing_shirt_3.png	115	inanimate	clothing	shirt	3	0	2	stars	1	correct	0.702086741079256
157898	1	stim185_inanimate_tools_hammer_1.png	185	inanimate	tools	hammer	1	0	2	stars	1	correct	0.702086741079256
158098	1	stim045_animate_human_child_1.png	45	animate	human	child	1	0	2	stars	1	correct	0.702086741079256
158298	1	stim194_inanimate_tools_scissors_2.png	194	inanimate	tools	scissors	2	0	2	stars	1	correct	0.702086741079256
158498	1	stim131_inanimate_fruits_grape_3.png	131	inanimate	fruits	grape	3	0	2	stars	1	correct	0.702086741079256
158698	1	stim065_animate_insect_bug_1.png	65	animate	insect	bug	1	0	2	stars	1	correct	0.702086741079256
158898	1	stim195_inanimate_tools_scissors_3.png	195	inanimate	tools	scissors	3	0	2	stars	1	correct	0.702086741079256
159098	1	stim066_animate_insect_bug_2.png	66	animate	insect	bug	2	0	2	stars	1	correct	0.702086741079256
159298	1	stim116_inanimate_clothing_shirt_4.png	116	inanimate	clothing	shirt	4	0	2	stars	1	correct	0.702086741079256
159498	1	stim048_animate_human_child_4.png	48	animate	human	child	4	0	2	stars	1	correct	0.702086741079256
159698	1	stim036_animate_bird_peacock_4.png	36	animate	bird	peacock	4	0	2	stars	1	correct	0.702086741079256
159898	1	stim143_inanimate_furniture_bed_3.png	143	inanimate	furniture	bed	3	0	2	stars	1	correct	0.702086741079256
160098	1	stim016_animate_aquatic_shark_4.png	16	animate	aquatic	shark	4	0	2	stars	1	correct	0.702086741079256
160298	1	stim163_inanimate_plants_bush_3.png	163	inanimate	plants	bush	3	0	2	stars	1	correct	0.702086741079256
160498	1	stim055_animate_human_faces_3.png	55	animate	human	faces	3	0	2	stars	1	correct	0.702086741079256
160698	1	stim113_inanimate_clothing_shirt_1.png	113	inanimate	clothing	shirt	1	0	2	stars	1	correct	0.702086741079256
160898	1	stim142_inanimate_furniture_bed_2.png	142	inanimate	furniture	bed	2	0	2	stars	1	correct	0.702086741079256
161098	1	stim145_inanimate_furniture_chair_1.png	145	inanimate	furniture	chair	1	0	2	stars	1	correct	0.702086741079256
161298	1	stim083_animate_mammal_cow_3.png	83	animate	mammal	cow	3	0	2	stars	1	correct	0.702086741079256
161498	1	stim157_inanimate_furniture_table_1.png	157	inanimate	furniture	table	1	0	2	stars	1	correct	0.702086741079256
161698	1	stim186_inanimate_tools_hammer_2.png	186	inanimate	tools	hammer	2	0	2	stars	1	correct	0.702086741079256
161898	1	stim031_animate_bird_parrot_3.png	31	animate	bird	parrot	3	0	2	stars	1	correct	0.702086741079256
162098	1	stim148_inanimate_furniture_chair_4.png	148	inanimate	furniture	chair	4	0	2	stars	1	correct	0.702086741079256
162298	1	stim033_animate_bird_peacock_1.png	33	animate	bird	peacock	1	0	2	stars	1	correct	0.702086741079256
162498	1	stim110_inanimate_clothing_jeans_2.png	110	inanimate	clothing	jeans	2	0	2	stars	1	correct	0.702086741079256
162698	1	stim010_animate_aquatic_seahorse_2.png	10	animate	aquatic	seahorse	2	0	2	stars	1	correct	0.702086741079256
162898	1	stim030_animate_bird_parrot_2.png	30	animate	bird	parrot	2	0	2	stars	1	correct	0.702086741079256
163098	1	stim062_animate_insect_ant_2.png	62	animate	insect	ant	2	0	2	stars	1	correct	0.702086741079256
163298	1	stim023_animate_bird_chicken_3.png	23	animate	bird	chicken	3	0	2	stars	1	correct	0.702086741079256
163498	1	stim138_inanimate_fruits_strawberry_2.png	138	inanimate	fruits	strawberry	2	0	2	stars	1	correct	0.702086741079256
163698	1	stim128_inanimate_fruits_banana_4.png	128	inanimate	fruits	banana	4	0	2	stars	1	correct	0.702086741079256
163898	1	stim092_animate_mammal_kangaroo_4.png	92	animate	mammal	kangaroo	4	0	2	stars	1	correct	0.702086741079256
164098	1	stim011_animate_aquatic_seahorse_3.png	11	animate	aquatic	seahorse	3	0	2	stars	1	correct	0.702086741079256
164298	1	stim183_inanimate_tools_broom_3.png	183	inanimate	tools	broom	3	0	2	stars	1	correct	0.702086741079256
164498	1	stim013_animate_aquatic_shark_1.png	13	animate	aquatic	shark	1	0	2	stars	1	correct	0.702086741079256
164698	1	stim080_animate_insect_grasshopper_4.png	80	animate	insect	grasshopper	4	0	2	stars	1	correct	0.702086741079256
164898	1	stim053_animate_human_faces_1.png	53	animate	human	faces	1	0	2	stars	1	correct	0.702086741079256
165098	1	stim039_animate_bird_penguin_3.png	39	animate	bird	penguin	3	0	2	stars	1	correct	0.702086741079256
165298	1	stim193_inanimate_tools_scissors_1.png	193	inanimate	tools	scissors	1	0	2	stars	1	correct	0.702086741079256
165498	1	stim052_animate_human_clown_4.png	52	animate	human	clown	4	0	2	stars	1	correct	0.702086741079256
165698	1	stim049_animate_human_clown_1.png	49	animate	human	clown	1	0	2	stars	1	correct	0.702086741079256
165898	1	stim103_inanimate_clothing_gloves_3.png	103	inanimate	clothing	gloves	3	0	2	stars	1	correct	0.702086741079256
166098	1	stim027_animate_bird_duck_3.png	27	animate	bird	duck	3	0	2	stars	1	correct	0.702086741079256
166298	1	stim094_animate_mammal_monkey_2.png	94	animate	mammal	monkey	2	0	2	stars	1	correct	0.702086741079256
166498	1	stim123_inanimate_fruits_apple_3.png	123	inanimate	fruits	apple	3	0	2	stars	1	correct	0.702086741079256
166698	1	stim063_animate_insect_ant_3.png	63	animate	insect	ant	3	0	2	stars	1	correct	0.702086741079256
166898	1	stim057_animate_human_sports_1.png	57	animate	human	sports	1	0	2	stars	1	correct	0.702086741079256
167098	1	stim158_inanimate_furniture_table_2.png	158	inanimate	furniture	table	2	0	2	stars	1	correct	0.702086741079256
167298	1	stim189_inanimate_tools_pan_1.png	189	inanimate	tools	pan	1	0	2	stars	1	correct	0.702086741079256
167498	1	stim149_inanimate_furniture_closet_1.png	149	inanimate	furniture	closet	1	0	2	stars	1	correct	0.702086741079256
167698	1	stim091_animate_mammal_kangaroo_3.png	91	animate	mammal	kangaroo	3	0	2	stars	1	correct	0.702086741079256
167898	1	stim018_animate_aquatic_shrimp_2.png	18	animate	aquatic	shrimp	2	0	2	stars	1	correct	0.702086741079256
168098	1	stim054_animate_human_faces_2.png	54	animate	human	faces	2	0	2	stars	1	correct	0.702086741079256
168298	1	stim070_animate_insect_butterfly_2.png	70	animate	insect	butterfly	2	0	2	stars	1	correct	0.702086741079256
168498	1	stim061_animate_insect_ant_1.png	61	animate	insect	ant	1	0	2	stars	1	correct	0.702086741079256
168698	1	stim178_inanimate_plants_tulip_2.png	178	inanimate	plants	tulip	2	0	2	stars	1	correct	0.702086741079256
168898	1	stim003_animate_aquatic_crab_3.png	3	animate	aquatic	crab	3	0	2	stars	1	correct	0.702086741079256
169098	1	stim154_inanimate_furniture_sofa_2.png	154	inanimate	furniture	sofa	2	0	2	stars	1	correct	0.702086741079256
169298	1	stim182_inanimate_tools_broom_2.png	182	inanimate	tools	broom	2	0	2	stars	1	correct	0.702086741079256
169498	1	stim074_animate_insect_dragonfly_2.png	74	animate	insect	dragonfly	2	0	2	stars	1	correct	0.702086741079256
169698	1	stim022_animate_bird_chicken_2.png	22	animate	bird	chicken	2	0	2	stars	1	correct	0.702086741079256
169898	1	stim111_inanimate_clothing_jeans_3.png	111	inanimate	clothing	jeans	3	0	2	stars	1	correct	0.702086741079256
170098	1	stim166_inanimate_plants_cactus_2.png	166	inanimate	plants	cactus	2	0	2	stars	1	correct	0.702086741079256
170298	1	stim082_animate_mammal_cow_2.png	82	animate	mammal	cow	2	0	2	stars	1	correct	0.702086741079256
170498	1	stim199_inanimate_tools_wrench_3.png	199	inanimate	tools	wrench	3	0	2	stars	1	correct	0.702086741079256
170698	1	stim084_animate_mammal_cow_4.png	84	animate	mammal	cow	4	0	2	stars	1	correct	0.702086741079256
170898	1	stim147_inanimate_furniture_chair_3.png	147	inanimate	furniture	chair	3	0	2	stars	1	correct	0.702086741079256
171098	1	stim126_inanimate_fruits_banana_2.png	126	inanimate	fruits	banana	2	0	2	stars	1	correct	0.702086741079256
171298	1	stim014_animate_aquatic_shark_2.png	14	animate	aquatic	shark	2	0	2	stars	1	correct	0.702086741079256
171498	1	stim087_animate_mammal_giraffe_3.png	87	animate	mammal	giraffe	3	0	2	stars	1	correct	0.702086741079256
171698	1	stim174_inanimate_plants_tree_2.png	174	inanimate	plants	tree	2	0	2	stars	1	correct	0.702086741079256
171898	1	stim198_inanimate_tools_wrench_2.png	198	inanimate	tools	wrench	2	0	2	stars	1	correct	0.702086741079256
172098	1	stim081_animate_mammal_cow_1.png	81	animate	mammal	cow	1	0	2	stars	1	correct	0.702086741079256
172298	1	stim032_animate_bird_parrot_4.png	32	animate	bird	parrot	4	0	2	stars	1	correct	0.702086741079256
172498	1	stim001_animate_aquatic_crab_1.png	1	animate	aquatic	crab	1	0	2	stars	1	correct	0.702086741079256
172698	1	stim086_animate_mammal_giraffe_2.png	86	animate	mammal	giraffe	2	0	2	stars	1	correct	0.702086741079256
172898	1	stim119_inanimate_clothing_socks_3.png	119	inanimate	clothing	socks	3	0	2	stars	1	correct	0.702086741079256
173098	1	stim088_animate_mammal_giraffe_4.png	88	animate	mammal	giraffe	4	0	2	stars	1	correct	0.702086741079256
173298	1	stim095_animate_mammal_monkey_3.png	95	animate	mammal	monkey	3	0	2	stars	1	correct	0.702086741079256
173498	1	stim004_animate_aquatic_crab_4.png	4	animate	aquatic	crab	4	0	2	stars	1	correct	0.702086741079256
173698	1	stim025_animate_bird_duck_1.png	25	animate	bird	duck	1	0	2	stars	1	correct	0.702086741079256
173898	1	stim076_animate_insect_dragonfly_4.png	76	animate	insect	dragonfly	4	0	2	stars	1	correct	0.702086741079256
174098	1	stim122_inanimate_fruits_apple_2.png	122	inanimate	fruits	apple	2	0	2	stars	1	correct	0.702086741079256
174298	1	stim051_animate_human_clown_3.png	51	animate	human	clown	3	0	2	stars	1	correct	0.702086741079256
174498	1	stim098_animate_mammal_rhino_2.png	98	animate	mammal	rhino	2	0	2	stars	1	correct	0.702086741079256
174698	1	stim073_animate_insect_dragonfly_1.png	73	animate	insect	dragonfly	1	0	2	stars	1	correct	0.702086741079256
174898	1	stim015_animate_aquatic_shark_3.png	15	animate	aquatic	shark	3	0	2	stars	1	correct	0.702086741079256
185132	1	stim110_inanimate_clothing_jeans_2.png	110	inanimate	clothing	jeans	2	0	3	stars	1	correct	0.64187530460913
185332	1	stim082_animate_mammal_cow_2.png	82	animate	mammal	cow	2	0	3	stars	1	correct	0.64187530460913
185532	1	stim025_animate_bird_duck_1.png	25	animate	bird	duck	1	0	3	stars	1	correct	0.64187530460913
185732	1	stim021_animate_bird_chicken_1.png	21	animate	bird	chicken	1	0	3	stars	1	correct	0.64187530460913
185932	1	stim108_inanimate_clothing_hat_4.png	108	inanimate	clothing	hat	4	0	3	stars	1	correct	0.64187530460913
186132	1	stim018_animate_aquatic_shrimp_2.png	18	animate	aquatic	shrimp	2	0	3	stars	1	correct	0.64187530460913
186332	1	stim173_inanimate_plants_tree_1.png	173	inanimate	plants	tree	1	0	3	stars	1	correct	0.64187530460913
186532	1	stim106_inanimate_clothing_hat_2.png	106	inanimate	clothing	hat	2	0	3	stars	1	correct	0.64187530460913
186732	1	stim147_inanimate_furniture_chair_3.png	147	inanimate	furniture	chair	3	0	3	stars	1	correct	0.64187530460913
186932	1	stim011_animate_aquatic_seahorse_3.png	11	animate	aquatic	seahorse	3	0	3	stars	1	correct	0.64187530460913
187132	1	stim183_inanimate_tools_broom_3.png	183	inanimate	tools	broom	3	0	3	stars	1	correct	0.64187530460913
187332	1	stim107_inanimate_clothing_hat_3.png	107	inanimate	clothing	hat	3	0	3	stars	1	correct	0.64187530460913
187532	1	stim026_animate_bird_duck_2.png	26	animate	bird	duck	2	0	3	stars	1	correct	0.64187530460913
187732	1	stim060_animate_human_sports_4.png	60	animate	human	sports	4	0	3	stars	1	correct	0.64187530460913
187932	1	stim117_inanimate_clothing_socks_1.png	117	inanimate	clothing	socks	1	0	3	stars	1	correct	0.64187530460913
188132	1	stim101_inanimate_clothing_gloves_1.png	101	inanimate	clothing	gloves	1	0	3	stars	1	correct	0.64187530460913
188332	1	stim069_animate_insect_butterfly_1.png	69	animate	insect	butterfly	1	0	3	stars	1	correct	0.64187530460913
188532	1	stim049_animate_human_clown_1.png	49	animate	human	clown	1	0	3	stars	1	correct	0.64187530460913
188732	1	stim045_animate_human_child_1.png	45	animate	human	child	1	0	3	stars	1	correct	0.64187530460913
188932	1	stim167_inanimate_plants_cactus_3.png	167	inanimate	plants	cactus	3	0	3	stars	1	correct	0.64187530460913
189132	1	stim121_inanimate_fruits_apple_1.png	121	inanimate	fruits	apple	1	0	3	stars	1	correct	0.64187530460913
189332	1	stim005_animate_aquatic_fish_1.png	5	animate	aquatic	fish	1	0	3	stars	1	correct	0.64187530460913
189532	1	stim179_inanimate_plants_tulip_3.png	179	inanimate	plants	tulip	3	0	3	stars	1	correct	0.64187530460913
189732	1	stim187_inanimate_tools_hammer_3.png	187	inanimate	tools	hammer	3	0	3	stars	1	correct	0.64187530460913
189932	1	stim080_animate_insect_grasshopper_4.png	80	animate	insect	grasshopper	4	0	3	stars	1	correct	0.64187530460913
190132	1	stim012_animate_aquatic_seahorse_4.png	12	animate	aquatic	seahorse	4	0	3	stars	1	correct	0.64187530460913
190332	1	stim032_animate_bird_parrot_4.png	32	animate	bird	parrot	4	0	3	stars	1	correct	0.64187530460913
190532	1	stim182_inanimate_tools_broom_2.png	182	inanimate	tools	broom	2	0	3	stars	1	correct	0.64187530460913
190732	1	stim153_inanimate_furniture_sofa_1.png	153	inanimate	furniture	sofa	1	0	3	stars	1	correct	0.64187530460913
190932	1	stim066_animate_insect_bug_2.png	66	animate	insect	bug	2	0	3	stars	1	correct	0.64187530460913
191132	1	stim099_animate_mammal_rhino_3.png	99	animate	mammal	rhino	3	0	3	stars	1	correct	0.64187530460913
191332	1	stim104_inanimate_clothing_gloves_4.png	104	inanimate	clothing	gloves	4	0	3	stars	1	correct	0.64187530460913
191532	1	stim071_animate_insect_butterfly_3.png	71	animate	insect	butterfly	3	0	3	stars	1	correct	0.64187530460913
191732	1	stim181_inanimate_tools_broom_1.png	181	inanimate	tools	broom	1	0	3	stars	1	correct	0.64187530460913
191932	1	stim007_animate_aquatic_fish_3.png	7	animate	aquatic	fish	3	0	3	stars	1	correct	0.64187530460913
192132	1	stim084_animate_mammal_cow_4.png	84	animate	mammal	cow	4	0	3	stars	1	correct	0.64187530460913
192332	1	stim024_animate_bird_chicken_4.png	24	animate	bird	chicken	4	0	3	stars	1	correct	0.64187530460913
192532	1	stim156_inanimate_furniture_sofa_4.png	156	inanimate	furniture	sofa	4	0	3	stars	1	correct	0.64187530460913
192732	1	stim103_inanimate_clothing_gloves_3.png	103	inanimate	clothing	gloves	3	0	3	stars	1	correct	0.64187530460913
192932	1	stim135_inanimate_fruits_pineapple_3.png	135	inanimate	fruits	pineapple	3	0	3	stars	1	correct	0.64187530460913
193132	1	stim164_inanimate_plants_bush_4.png	164	inanimate	plants	bush	4	0	3	stars	1	correct	0.64187530460913
193332	1	stim027_animate_bird_duck_3.png	27	animate	bird	duck	3	0	3	stars	1	correct	0.64187530460913
193532	1	stim169_inanimate_plants_sunflower_1.png	169	inanimate	plants	sunflower	1	0	3	stars	1	correct	0.64187530460913
193732	1	stim072_animate_insect_butterfly_4.png	72	animate	insect	butterfly	4	0	3	stars	1	correct	0.64187530460913
193932	1	stim048_animate_human_child_4.png	48	animate	human	child	4	0	3	stars	1	correct	0.64187530460913
194132	1	stim068_animate_insect_bug_4.png	68	animate	insect	bug	4	0	3	stars	1	correct	0.64187530460913
194332	1	stim079_animate_insect_grasshopper_3.png	79	animate	insect	grasshopper	3	0	3	stars	1	correct	0.64187530460913
194532	1	stim115_inanimate_clothing_shirt_3.png	115	inanimate	clothing	shirt	3	0	3	stars	1	correct	0.64187530460913
194732	1	stim112_inanimate_clothing_jeans_4.png	112	inanimate	clothing	jeans	4	0	3	stars	1	correct	0.64187530460913
194932	1	stim004_animate_aquatic_crab_4.png	4	animate	aquatic	crab	4	0	3	stars	1	correct	0.64187530460913
195132	1	stim199_inanimate_tools_wrench_3.png	199	inanimate	tools	wrench	3	0	3	stars	1	correct	0.64187530460913
195332	1	stim162_inanimate_plants_bush_2.png	162	inanimate	plants	bush	2	0	3	stars	1	correct	0.64187530460913
195532	1	stim028_animate_bird_duck_4.png	28	animate	bird	duck	4	0	3	stars	1	correct	0.64187530460913
195732	1	stim122_inanimate_fruits_apple_2.png	122	inanimate	fruits	apple	2	0	3	stars	1	correct	0.64187530460913
195932	1	stim013_animate_aquatic_shark_1.png	13	animate	aquatic	shark	1	0	3	stars	1	correct	0.64187530460913
196132	1	stim191_inanimate_tools_pan_3.png	191	inanimate	tools	pan	3	0	3	stars	1	correct	0.64187530460913
196332	1	stim188_inanimate_tools_hammer_4.png	188	inanimate	tools	hammer	4	0	3	stars	1	correct	0.64187530460913
196532	1	stim196_inanimate_tools_scissors_4.png	196	inanimate	tools	scissors	4	0	3	stars	1	correct	0.64187530460913
196732	1	stim055_animate_human_faces_3.png	55	animate	human	faces	3	0	3	stars	1	correct	0.64187530460913
196932	1	stim166_inanimate_plants_cactus_2.png	166	inanimate	plants	cactus	2	0	3	stars	1	correct	0.64187530460913
197132	1	stim020_animate_aquatic_shrimp_4.png	20	animate	aquatic	shrimp	4	0	3	stars	1	correct	0.64187530460913
197332	1	stim086_animate_mammal_giraffe_2.png	86	animate	mammal	giraffe	2	0	3	stars	1	correct	0.64187530460913
197532	1	stim136_inanimate_fruits_pineapple_4.png	136	inanimate	fruits	pineapple	4	0	3	stars	1	correct	0.64187530460913
197732	1	stim036_animate_bird_peacock_4.png	36	animate	bird	peacock	4	0	3	stars	1	correct	0.64187530460913
197932	1	stim176_inanimate_plants_tree_4.png	176	inanimate	plants	tree	4	0	3	stars	1	correct	0.64187530460913
198132	1	stim150_inanimate_furniture_closet_2.png	150	inanimate	furniture	closet	2	0	3	stars	1	correct	0.64187530460913
198332	1	stim096_animate_mammal_monkey_4.png	96	animate	mammal	monkey	4	0	3	stars	1	correct	0.64187530460913
198532	1	stim171_inanimate_plants_sunflower_3.png	171	inanimate	plants	sunflower	3	0	3	stars	1	correct	0.64187530460913
198732	1	stim063_animate_insect_ant_3.png	63	animate	insect	ant	3	0	3	stars	1	correct	0.64187530460913
198932	1	stim015_animate_aquatic_shark_3.png	15	animate	aquatic	shark	3	0	3	stars	1	correct	0.64187530460913
199132	1	stim075_animate_insect_dragonfly_3.png	75	animate	insect	dragonfly	3	0	3	stars	1	correct	0.64187530460913
199332	1	stim061_animate_insect_ant_1.png	61	animate	insect	ant	1	0	3	stars	1	correct	0.64187530460913
199532	1	stim154_inanimate_furniture_sofa_2.png	154	inanimate	furniture	sofa	2	0	3	stars	1	correct	0.64187530460913
199732	1	stim031_animate_bird_parrot_3.png	31	animate	bird	parrot	3	0	3	stars	1	correct	0.64187530460913
199932	1	stim029_animate_bird_parrot_1.png	29	animate	bird	parrot	1	0	3	stars	1	correct	0.64187530460913
200132	1	stim200_inanimate_tools_wrench_4.png	200	inanimate	tools	wrench	4	0	3	stars	1	correct	0.64187530460913
200332	1	stim006_animate_aquatic_fish_2.png	6	animate	aquatic	fish	2	0	3	stars	1	correct	0.64187530460913
200532	1	stim041_animate_human_baby_1.png	41	animate	human	baby	1	0	3	stars	1	correct	0.64187530460913
200732	1	stim074_animate_insect_dragonfly_2.png	74	animate	insect	dragonfly	2	0	3	stars	1	correct	0.64187530460913
200932	1	stim044_animate_human_baby_4.png	44	animate	human	baby	4	0	3	stars	1	correct	0.64187530460913
201132	1	stim185_inanimate_tools_hammer_1.png	185	inanimate	tools	hammer	1	0	3	stars	1	correct	0.64187530460913
201332	1	stim145_inanimate_furniture_chair_1.png	145	inanimate	furniture	chair	1	0	3	stars	1	correct	0.64187530460913
201532	1	stim155_inanimate_furniture_sofa_3.png	155	inanimate	furniture	sofa	3	0	3	stars	1	correct	0.64187530460913
201732	1	stim140_inanimate_fruits_strawberry_4.png	140	inanimate	fruits	strawberry	4	0	3	stars	1	correct	0.64187530460913
201932	1	stim124_inanimate_fruits_apple_4.png	124	inanimate	fruits	apple	4	0	3	stars	1	correct	0.64187530460913
202132	1	stim111_inanimate_clothing_jeans_3.png	111	inanimate	clothing	jeans	3	0	3	stars	1	correct	0.64187530460913
202332	1	stim016_animate_aquatic_shark_4.png	16	animate	aquatic	shark	4	0	3	stars	1	correct	0.64187530460913
202532	1	stim177_inanimate_plants_tulip_1.png	177	inanimate	plants	tulip	1	0	3	stars	1	correct	0.64187530460913
202732	1	stim142_inanimate_furniture_bed_2.png	142	inanimate	furniture	bed	2	0	3	stars	1	correct	0.64187530460913
202932	1	stim127_inanimate_fruits_banana_3.png	127	inanimate	fruits	banana	3	0	3	stars	1	correct	0.64187530460913
203132	1	stim033_animate_bird_peacock_1.png	33	animate	bird	peacock	1	0	3	stars	1	correct	0.64187530460913
203332	1	stim058_animate_human_sports_2.png	58	animate	human	sports	2	0	3	stars	1	correct	0.64187530460913
203532	1	stim128_inanimate_fruits_banana_4.png	128	inanimate	fruits	banana	4	0	3	stars	1	correct	0.64187530460913
203732	1	stim085_animate_mammal_giraffe_1.png	85	animate	mammal	giraffe	1	0	3	stars	1	correct	0.64187530460913
203932	1	stim146_inanimate_furniture_chair_2.png	146	inanimate	furniture	chair	2	0	3	stars	1	correct	0.64187530460913
204132	1	stim132_inanimate_fruits_grape_4.png	132	inanimate	fruits	grape	4	0	3	stars	1	correct	0.64187530460913
204332	1	stim149_inanimate_furniture_closet_1.png	149	inanimate	furniture	closet	1	0	3	stars	1	correct	0.64187530460913
204532	1	stim010_animate_aquatic_seahorse_2.png	10	animate	aquatic	seahorse	2	0	3	stars	1	correct	0.64187530460913
204732	1	stim120_inanimate_clothing_socks_4.png	120	inanimate	clothing	socks	4	0	3	stars	1	correct	0.64187530460913
204932	1	stim001_animate_aquatic_crab_1.png	1	animate	aquatic	crab	1	0	3	stars	1	correct	0.64187530460913
205132	1	stim078_animate_insect_grasshopper_2.png	78	animate	insect	grasshopper	2	0	3	stars	1	correct	0.64187530460913
205332	1	stim052_animate_human_clown_4.png	52	animate	human	clown	4	0	3	stars	1	correct	0.64187530460913
205532	1	stim105_inanimate_clothing_hat_1.png	105	inanimate	clothing	hat	1	0	3	stars	1	correct	0.64187530460913
205732	1	stim062_animate_insect_ant_2.png	62	animate	insect	ant	2	0	3	stars	1	correct	0.64187530460913
205932	1	stim056_animate_human_faces_4.png	56	animate	human	faces	4	0	3	stars	1	correct	0.64187530460913
206132	1	stim040_animate_bird_penguin_4.png	40	animate	bird	penguin	4	0	3	stars	1	correct	0.64187530460913
206332	1	stim019_animate_aquatic_shrimp_3.png	19	animate	aquatic	shrimp	3	0	3	stars	1	correct	0.64187530460913
206532	1	stim214_targets_shapes_star_2.png	214	targets	shapes	star	2	1	3	stars	1	correct	0.64187530460913
206732	1	stim139_inanimate_fruits_strawberry_3.png	139	inanimate	fruits	strawberry	3	0	3	stars	1	correct	0.64187530460913
206932	1	stim180_inanimate_plants_tulip_4.png	180	inanimate	plants	tulip	4	0	3	stars	1	correct	0.64187530460913
207132	1	stim087_animate_mammal_giraffe_3.png	87	animate	mammal	giraffe	3	0	3	stars	1	correct	0.64187530460913
207332	1	stim030_animate_bird_parrot_2.png	30	animate	bird	parrot	2	0	3	stars	1	correct	0.64187530460913
207532	1	stim131_inanimate_fruits_grape_3.png	131	inanimate	fruits	grape	3	0	3	stars	1	correct	0.64187530460913
207732	1	stim095_animate_mammal_monkey_3.png	95	animate	mammal	monkey	3	0	3	stars	1	correct	0.64187530460913
207932	1	stim097_animate_mammal_rhino_1.png	97	animate	mammal	rhino	1	0	3	stars	1	correct	0.64187530460913
208132	1	stim148_inanimate_furniture_chair_4.png	148	inanimate	furniture	chair	4	0	3	stars	1	correct	0.64187530460913
208332	1	stim168_inanimate_plants_cactus_4.png	168	inanimate	plants	cactus	4	0	3	stars	1	correct	0.64187530460913
208532	1	stim198_inanimate_tools_wrench_2.png	198	inanimate	tools	wrench	2	0	3	stars	1	correct	0.64187530460913
208732	1	stim186_inanimate_tools_hammer_2.png	186	inanimate	tools	hammer	2	0	3	stars	1	correct	0.64187530460913
208932	1	stim129_inanimate_fruits_grape_1.png	129	inanimate	fruits	grape	1	0	3	stars	1	correct	0.64187530460913
209132	1	stim094_animate_mammal_monkey_2.png	94	animate	mammal	monkey	2	0	3	stars	1	correct	0.64187530460913
209332	1	stim092_animate_mammal_kangaroo_4.png	92	animate	mammal	kangaroo	4	0	3	stars	1	correct	0.64187530460913
209532	1	stim161_inanimate_plants_bush_1.png	161	inanimate	plants	bush	1	0	3	stars	1	correct	0.64187530460913
209732	1	stim126_inanimate_fruits_banana_2.png	126	inanimate	fruits	banana	2	0	3	stars	1	correct	0.64187530460913
209932	1	stim141_inanimate_furniture_bed_1.png	141	inanimate	furniture	bed	1	0	3	stars	1	correct	0.64187530460913
210132	1	stim137_inanimate_fruits_strawberry_1.png	137	inanimate	fruits	strawberry	1	0	3	stars	1	correct	0.64187530460913
210332	1	stim064_animate_insect_ant_4.png	64	animate	insect	ant	4	0	3	stars	1	correct	0.64187530460913
210532	1	stim138_inanimate_fruits_strawberry_2.png	138	inanimate	fruits	strawberry	2	0	3	stars	1	correct	0.64187530460913
210732	1	stim090_animate_mammal_kangaroo_2.png	90	animate	mammal	kangaroo	2	0	3	stars	1	correct	0.64187530460913
210932	1	stim083_animate_mammal_cow_3.png	83	animate	mammal	cow	3	0	3	stars	1	correct	0.64187530460913
211132	1	stim184_inanimate_tools_broom_4.png	184	inanimate	tools	broom	4	0	3	stars	1	correct	0.64187530460913
211332	1	stim014_animate_aquatic_shark_2.png	14	animate	aquatic	shark	2	0	3	stars	1	correct	0.64187530460913
211532	1	stim051_animate_human_clown_3.png	51	animate	human	clown	3	0	3	stars	1	correct	0.64187530460913
211732	1	stim174_inanimate_plants_tree_2.png	174	inanimate	plants	tree	2	0	3	stars	1	correct	0.64187530460913
211932	1	stim017_animate_aquatic_shrimp_1.png	17	animate	aquatic	shrimp	1	0	3	stars	1	correct	0.64187530460913
212132	1	stim113_inanimate_clothing_shirt_1.png	113	inanimate	clothing	shirt	1	0	3	stars	1	correct	0.64187530460913
212332	1	stim043_animate_human_baby_3.png	43	animate	human	baby	3	0	3	stars	1	correct	0.64187530460913
212532	1	stim133_inanimate_fruits_pineapple_1.png	133	inanimate	fruits	pineapple	1	0	3	stars	1	correct	0.64187530460913
212732	1	stim160_inanimate_furniture_table_4.png	160	inanimate	furniture	table	4	0	3	stars	1	correct	0.64187530460913
212932	1	stim175_inanimate_plants_tree_3.png	175	inanimate	plants	tree	3	0	3	stars	1	correct	0.64187530460913
213132	1	stim157_inanimate_furniture_table_1.png	157	inanimate	furniture	table	1	0	3	stars	1	correct	0.64187530460913
213332	1	stim158_inanimate_furniture_table_2.png	158	inanimate	furniture	table	2	0	3	stars	1	correct	0.64187530460913
213532	1	stim039_animate_bird_penguin_3.png	39	animate	bird	penguin	3	0	3	stars	1	correct	0.64187530460913
213732	1	stim123_inanimate_fruits_apple_3.png	123	inanimate	fruits	apple	3	0	3	stars	1	correct	0.64187530460913
213932	1	stim009_animate_aquatic_seahorse_1.png	9	animate	aquatic	seahorse	1	0	3	stars	1	correct	0.64187530460913
214132	1	stim100_animate_mammal_rhino_4.png	100	animate	mammal	rhino	4	0	3	stars	1	correct	0.64187530460913
214332	1	stim118_inanimate_clothing_socks_2.png	118	inanimate	clothing	socks	2	0	3	stars	1	correct	0.64187530460913
214532	1	stim054_animate_human_faces_2.png	54	animate	human	faces	2	0	3	stars	1	correct	0.64187530460913
214732	1	stim165_inanimate_plants_cactus_1.png	165	inanimate	plants	cactus	1	0	3	stars	1	correct	0.64187530460913
214932	1	stim098_animate_mammal_rhino_2.png	98	animate	mammal	rhino	2	0	3	stars	1	correct	0.64187530460913
215132	1	stim038_animate_bird_penguin_2.png	38	animate	bird	penguin	2	0	3	stars	1	correct	0.64187530460913
215332	1	stim114_inanimate_clothing_shirt_2.png	114	inanimate	clothing	shirt	2	0	3	stars	1	correct	0.64187530460913
215532	1	stim178_inanimate_plants_tulip_2.png	178	inanimate	plants	tulip	2	0	3	stars	1	correct	0.64187530460913
215732	1	stim088_animate_mammal_giraffe_4.png	88	animate	mammal	giraffe	4	0	3	stars	1	correct	0.64187530460913
215932	1	stim093_animate_mammal_monkey_1.png	93	animate	mammal	monkey	1	0	3	stars	1	correct	0.64187530460913
216132	1	stim067_animate_insect_bug_3.png	67	animate	insect	bug	3	0	3	stars	1	correct	0.64187530460913
216332	1	stim170_inanimate_plants_sunflower_2.png	170	inanimate	plants	sunflower	2	0	3	stars	1	correct	0.64187530460913
216532	1	stim053_animate_human_faces_1.png	53	animate	human	faces	1	0	3	stars	1	correct	0.64187530460913
216732	1	stim109_inanimate_clothing_jeans_1.png	109	inanimate	clothing	jeans	1	0	3	stars	1	correct	0.64187530460913
216932	1	stim163_inanimate_plants_bush_3.png	163	inanimate	plants	bush	3	0	3	stars	1	correct	0.64187530460913
217132	1	stim023_animate_bird_chicken_3.png	23	animate	bird	chicken	3	0	3	stars	1	correct	0.64187530460913
217332	1	stim008_animate_aquatic_fish_4.png	8	animate	aquatic	fish	4	0	3	stars	1	correct	0.64187530460913
217532	1	stim159_inanimate_furniture_table_3.png	159	inanimate	furniture	table	3	0	3	stars	1	correct	0.64187530460913
217732	1	stim194_inanimate_tools_scissors_2.png	194	inanimate	tools	scissors	2	0	3	stars	1	correct	0.64187530460913
217932	1	stim046_animate_human_child_2.png	46	animate	human	child	2	0	3	stars	1	correct	0.64187530460913
218132	1	stim119_inanimate_clothing_socks_3.png	119	inanimate	clothing	socks	3	0	3	stars	1	correct	0.64187530460913
218332	1	stim190_inanimate_tools_pan_2.png	190	inanimate	tools	pan	2	0	3	stars	1	correct	0.64187530460913
218532	1	stim050_animate_human_clown_2.png	50	animate	human	clown	2	0	3	stars	1	correct	0.64187530460913
218732	1	stim035_animate_bird_peacock_3.png	35	animate	bird	peacock	3	0	3	stars	1	correct	0.64187530460913
218932	1	stim081_animate_mammal_cow_1.png	81	animate	mammal	cow	1	0	3	stars	1	correct	0.64187530460913
219132	1	stim057_animate_human_sports_1.png	57	animate	human	sports	1	0	3	stars	1	correct	0.64187530460913
219332	1	stim047_animate_human_child_3.png	47	animate	human	child	3	0	3	stars	1	correct	0.64187530460913
219532	1	stim189_inanimate_tools_pan_1.png	189	inanimate	tools	pan	1	0	3	stars	1	correct	0.64187530460913
219732	1	stim130_inanimate_fruits_grape_2.png	130	inanimate	fruits	grape	2	0	3	stars	1	correct	0.64187530460913
219932	1	stim195_inanimate_tools_scissors_3.png	195	inanimate	tools	scissors	3	0	3	stars	1	correct	0.64187530460913
220132	1	stim022_animate_bird_chicken_2.png	22	animate	bird	chicken	2	0	3	stars	1	correct	0.64187530460913
220332	1	stim059_animate_human_sports_3.png	59	animate	human	sports	3	0	3	stars	1	correct	0.64187530460913
220532	1	stim037_animate_bird_penguin_1.png	37	animate	bird	penguin	1	0	3	stars	1	correct	0.64187530460913
220732	1	stim065_animate_insect_bug_1.png	65	animate	insect	bug	1	0	3	stars	1	correct	0.64187530460913
220932	1	stim073_animate_insect_dragonfly_1.png	73	animate	insect	dragonfly	1	0	3	stars	1	correct	0.64187530460913
221132	1	stim172_inanimate_plants_sunflower_4.png	172	inanimate	plants	sunflower	4	0	3	stars	1	correct	0.64187530460913
221332	1	stim151_inanimate_furniture_closet_3.png	151	inanimate	furniture	closet	3	0	3	stars	1	correct	0.64187530460913
221532	1	stim070_animate_insect_butterfly_2.png	70	animate	insect	butterfly	2	0	3	stars	1	correct	0.64187530460913
221732	1	stim042_animate_human_baby_2.png	42	animate	human	baby	2	0	3	stars	1	correct	0.64187530460913
221932	1	stim091_animate_mammal_kangaroo_3.png	91	animate	mammal	kangaroo	3	0	3	stars	1	correct	0.64187530460913
222132	1	stim193_inanimate_tools_scissors_1.png	193	inanimate	tools	scissors	1	0	3	stars	1	correct	0.64187530460913
222332	1	stim003_animate_aquatic_crab_3.png	3	animate	aquatic	crab	3	0	3	stars	1	correct	0.64187530460913
222532	1	stim076_animate_insect_dragonfly_4.png	76	animate	insect	dragonfly	4	0	3	stars	1	correct	0.64187530460913
222732	1	stim143_inanimate_furniture_bed_3.png	143	inanimate	furniture	bed	3	0	3	stars	1	correct	0.64187530460913
222932	1	stim197_inanimate_tools_wrench_1.png	197	inanimate	tools	wrench	1	0	3	stars	1	correct	0.64187530460913
223132	1	stim077_animate_insect_grasshopper_1.png	77	animate	insect	grasshopper	1	0	3	stars	1	correct	0.64187530460913
223332	1	stim152_inanimate_furniture_closet_4.png	152	inanimate	furniture	closet	4	0	3	stars	1	correct	0.64187530460913
223532	1	stim002_animate_aquatic_crab_2.png	2	animate	aquatic	crab	2	0	3	stars	1	correct	0.64187530460913
223732	1	stim089_animate_mammal_kangaroo_1.png	89	animate	mammal	kangaroo	1	0	3	stars	1	correct	0.64187530460913
223932	1	stim102_inanimate_clothing_gloves_2.png	102	inanimate	clothing	gloves	2	0	3	stars	1	correct	0.64187530460913
224132	1	stim034_animate_bird_peacock_2.png	34	animate	bird	peacock	2	0	3	stars	1	correct	0.64187530460913
224332	1	stim116_inanimate_clothing_shirt_4.png	116	inanimate	clothing	shirt	4	0	3	stars	1	correct	0.64187530460913
224532	1	stim134_inanimate_fruits_pineapple_2.png	134	inanimate	fruits	pineapple	2	0	3	stars	1	correct	0.64187530460913
224733	1	stim144_inanimate_furniture_bed_4.png	144	inanimate	furniture	bed	4	0	3	stars	1	correct	0.64187530460913
224932	1	stim192_inanimate_tools_pan_4.png	192	inanimate	tools	pan	4	0	3	stars	1	correct	0.64187530460913
225133	1	stim125_inanimate_fruits_banana_1.png	125	inanimate	fruits	banana	1	0	3	stars	1	correct	0.64187530460913
245183	1	stim108_inanimate_clothing_hat_4.png	108	inanimate	clothing	hat	4	0	4	boats	4	correct	0.431719078798778
245383	1	stim062_animate_insect_ant_2.png	62	animate	insect	ant	2	0	4	boats	4	correct	0.431719078798778
245583	1	stim195_inanimate_tools_scissors_3.png	195	inanimate	tools	scissors	3	0	4	boats	4	correct	0.431719078798778
245783	1	stim048_animate_human_child_4.png	48	animate	human	child	4	0	4	boats	4	correct	0.431719078798778
245983	1	stim194_inanimate_tools_scissors_2.png	194	inanimate	tools	scissors	2	0	4	boats	4	correct	0.431719078798778
246183	1	stim046_animate_human_child_2.png	46	animate	human	child	2	0	4	boats	4	correct	0.431719078798778
246383	1	stim147_inanimate_furniture_chair_3.png	147	inanimate	furniture	chair	3	0	4	boats	4	correct	0.431719078798778
246583	1	stim013_animate_aquatic_shark_1.png	13	animate	aquatic	shark	1	0	4	boats	4	correct	0.431719078798778
246783	1	stim151_inanimate_furniture_closet_3.png	151	inanimate	furniture	closet	3	0	4	boats	4	correct	0.431719078798778
246983	1	stim143_inanimate_furniture_bed_3.png	143	inanimate	furniture	bed	3	0	4	boats	4	correct	0.431719078798778
247183	1	stim085_animate_mammal_giraffe_1.png	85	animate	mammal	giraffe	1	0	4	boats	4	correct	0.431719078798778
247383	1	stim133_inanimate_fruits_pineapple_1.png	133	inanimate	fruits	pineapple	1	0	4	boats	4	correct	0.431719078798778
247583	1	stim003_animate_aquatic_crab_3.png	3	animate	aquatic	crab	3	0	4	boats	4	correct	0.431719078798778
247783	1	stim081_animate_mammal_cow_1.png	81	animate	mammal	cow	1	0	4	boats	4	correct	0.431719078798778
247983	1	stim064_animate_insect_ant_4.png	64	animate	insect	ant	4	0	4	boats	4	correct	0.431719078798778
248183	1	stim065_animate_insect_bug_1.png	65	animate	insect	bug	1	0	4	boats	4	correct	0.431719078798778
248383	1	stim144_inanimate_furniture_bed_4.png	144	inanimate	furniture	bed	4	0	4	boats	4	correct	0.431719078798778
248583	1	stim030_animate_bird_parrot_2.png	30	animate	bird	parrot	2	0	4	boats	4	correct	0.431719078798778
248783	1	stim016_animate_aquatic_shark_4.png	16	animate	aquatic	shark	4	0	4	boats	4	correct	0.431719078798778
248983	1	stim110_inanimate_clothing_jeans_2.png	110	inanimate	clothing	jeans	2	0	4	boats	4	correct	0.431719078798778
249183	1	stim010_animate_aquatic_seahorse_2.png	10	animate	aquatic	seahorse	2	0	4	boats	4	correct	0.431719078798778
249383	1	stim019_animate_aquatic_shrimp_3.png	19	animate	aquatic	shrimp	3	0	4	boats	4	correct	0.431719078798778
249583	1	stim191_inanimate_tools_pan_3.png	191	inanimate	tools	pan	3	0	4	boats	4	correct	0.431719078798778
249783	1	stim158_inanimate_furniture_table_2.png	158	inanimate	furniture	table	2	0	4	boats	4	correct	0.431719078798778
249983	1	stim106_inanimate_clothing_hat_2.png	106	inanimate	clothing	hat	2	0	4	boats	4	correct	0.431719078798778
250183	1	stim027_animate_bird_duck_3.png	27	animate	bird	duck	3	0	4	boats	4	correct	0.431719078798778
250383	1	stim150_inanimate_furniture_closet_2.png	150	inanimate	furniture	closet	2	0	4	boats	4	correct	0.431719078798778
250583	1	stim053_animate_human_faces_1.png	53	animate	human	faces	1	0	4	boats	4	correct	0.431719078798778
250783	1	stim118_inanimate_clothing_socks_2.png	118	inanimate	clothing	socks	2	0	4	boats	4	correct	0.431719078798778
250983	1	stim136_inanimate_fruits_pineapple_4.png	136	inanimate	fruits	pineapple	4	0	4	boats	4	correct	0.431719078798778
251183	1	stim096_animate_mammal_monkey_4.png	96	animate	mammal	monkey	4	0	4	boats	4	correct	0.431719078798778
251383	1	stim196_inanimate_tools_scissors_4.png	196	inanimate	tools	scissors	4	0	4	boats	4	correct	0.431719078798778
251583	1	stim111_inanimate_clothing_jeans_3.png	111	inanimate	clothing	jeans	3	0	4	boats	4	correct	0.431719078798778
251783	1	stim173_inanimate_plants_tree_1.png	173	inanimate	plants	tree	1	0	4	boats	4	correct	0.431719078798778
251983	1	stim018_animate_aquatic_shrimp_2.png	18	animate	aquatic	shrimp	2	0	4	boats	4	correct	0.431719078798778
252183	1	stim031_animate_bird_parrot_3.png	31	animate	bird	parrot	3	0	4	boats	4	correct	0.431719078798778
252383	1	stim199_inanimate_tools_wrench_3.png	199	inanimate	tools	wrench	3	0	4	boats	4	correct	0.431719078798778
252583	1	stim197_inanimate_tools_wrench_1.png	197	inanimate	tools	wrench	1	0	4	boats	4	correct	0.431719078798778
252783	1	stim163_inanimate_plants_bush_3.png	163	inanimate	plants	bush	3	0	4	boats	4	correct	0.431719078798778
252983	1	stim020_animate_aquatic_shrimp_4.png	20	animate	aquatic	shrimp	4	0	4	boats	4	correct	0.431719078798778
253183	1	stim190_inanimate_tools_pan_2.png	190	inanimate	tools	pan	2	0	4	boats	4	correct	0.431719078798778
253383	1	stim077_animate_insect_grasshopper_1.png	77	animate	insect	grasshopper	1	0	4	boats	4	correct	0.431719078798778
253583	1	stim112_inanimate_clothing_jeans_4.png	112	inanimate	clothing	jeans	4	0	4	boats	4	correct	0.431719078798778
253783	1	stim063_animate_insect_ant_3.png	63	animate	insect	ant	3	0	4	boats	4	correct	0.431719078798778
253983	1	stim192_inanimate_tools_pan_4.png	192	inanimate	tools	pan	4	0	4	boats	4	correct	0.431719078798778
254183	1	stim117_inanimate_clothing_socks_1.png	117	inanimate	clothing	socks	1	0	4	boats	4	correct	0.431719078798778
254383	1	stim193_inanimate_tools_scissors_1.png	193	inanimate	tools	scissors	1	0	4	boats	4	correct	0.431719078798778
254583	1	stim069_animate_insect_butterfly_1.png	69	animate	insect	butterfly	1	0	4	boats	4	correct	0.431719078798778
254783	1	stim202_targets_object_boats_2.png	202	targets	object	boats	2	1	4	boats	4	correct	0.431719078798778
254983	1	stim135_inanimate_fruits_pineapple_3.png	135	inanimate	fruits	pineapple	3	0	4	boats	4	correct	0.431719078798778
255183	1	stim071_animate_insect_butterfly_3.png	71	animate	insect	butterfly	3	0	4	boats	4	correct	0.431719078798778
255383	1	stim039_animate_bird_penguin_3.png	39	animate	bird	penguin	3	0	4	boats	4	correct	0.431719078798778
255583	1	stim068_animate_insect_bug_4.png	68	animate	insect	bug	4	0	4	boats	4	correct	0.431719078798778
255783	1	stim035_animate_bird_peacock_3.png	35	animate	bird	peacock	3	0	4	boats	4	correct	0.431719078798778
255983	1	stim049_animate_human_clown_1.png	49	animate	human	clown	1	0	4	boats	4	correct	0.431719078798778
256183	1	stim042_animate_human_baby_2.png	42	animate	human	baby	2	0	4	boats	4	correct	0.431719078798778
256383	1	stim023_animate_bird_chicken_3.png	23	animate	bird	chicken	3	0	4	boats	4	correct	0.431719078798778
256583	1	stim125_inanimate_fruits_banana_1.png	125	inanimate	fruits	banana	1	0	4	boats	4	correct	0.431719078798778
256783	1	stim137_inanimate_fruits_strawberry_1.png	137	inanimate	fruits	strawberry	1	0	4	boats	4	correct	0.431719078798778
256983	1	stim113_inanimate_clothing_shirt_1.png	113	inanimate	clothing	shirt	1	0	4	boats	4	correct	0.431719078798778
257183	1	stim130_inanimate_fruits_grape_2.png	130	inanimate	fruits	grape	2	0	4	boats	4	correct	0.431719078798778
257383	1	stim116_inanimate_clothing_shirt_4.png	116	inanimate	clothing	shirt	4	0	4	boats	4	correct	0.431719078798778
257583	1	stim105_inanimate_clothing_hat_1.png	105	inanimate	clothing	hat	1	0	4	boats	4	correct	0.431719078798778
257783	1	stim078_animate_insect_grasshopper_2.png	78	animate	insect	grasshopper	2	0	4	boats	4	correct	0.431719078798778
257983	1	stim169_inanimate_plants_sunflower_1.png	169	inanimate	plants	sunflower	1	0	4	boats	4	correct	0.431719078798778
258183	1	stim098_animate_mammal_rhino_2.png	98	animate	mammal	rhino	2	0	4	boats	4	correct	0.431719078798778
258383	1	stim099_animate_mammal_rhino_3.png	99	animate	mammal	rhino	3	0	4	boats	4	correct	0.431719078798778
258583	1	stim079_animate_insect_grasshopper_3.png	79	animate	insect	grasshopper	3	0	4	boats	4	correct	0.431719078798778
258783	1	stim026_animate_bird_duck_2.png	26	animate	bird	duck	2	0	4	boats	4	correct	0.431719078798778
258983	1	stim188_inanimate_tools_hammer_4.png	188	inanimate	tools	hammer	4	0	4	boats	4	correct	0.431719078798778
259183	1	stim183_inanimate_tools_broom_3.png	183	inanimate	tools	broom	3	0	4	boats	4	correct	0.431719078798778
259383	1	stim097_animate_mammal_rhino_1.png	97	animate	mammal	rhino	1	0	4	boats	4	correct	0.431719078798778
259583	1	stim086_animate_mammal_giraffe_2.png	86	animate	mammal	giraffe	2	0	4	boats	4	correct	0.431719078798778
259783	1	stim126_inanimate_fruits_banana_2.png	126	inanimate	fruits	banana	2	0	4	boats	4	correct	0.431719078798778
259983	1	stim051_animate_human_clown_3.png	51	animate	human	clown	3	0	4	boats	4	correct	0.431719078798778
260183	1	stim180_inanimate_plants_tulip_4.png	180	inanimate	plants	tulip	4	0	4	boats	4	correct	0.431719078798778
260383	1	stim207_targets_object_boats_3.png	207	targets	object	boats	3	1	4	boats	4	correct	0.431719078798778
260583	1	stim107_inanimate_clothing_hat_3.png	107	inanimate	clothing	hat	3	0	4	boats	4	correct	0.431719078798778
260783	1	stim100_animate_mammal_rhino_4.png	100	animate	mammal	rhino	4	0	4	boats	4	correct	0.431719078798778
260983	1	stim186_inanimate_tools_hammer_2.png	186	inanimate	tools	hammer	2	0	4	boats	4	correct	0.431719078798778
261183	1	stim009_animate_aquatic_seahorse_1.png	9	animate	aquatic	seahorse	1	0	4	boats	4	correct	0.431719078798778
261383	1	stim041_animate_human_baby_1.png	41	animate	human	baby	1	0	4	boats	4	correct	0.431719078798778
261583	1	stim017_animate_aquatic_shrimp_1.png	17	animate	aquatic	shrimp	1	0	4	boats	4	correct	0.431719078798778
261783	1	stim120_inanimate_clothing_socks_4.png	120	inanimate	clothing	socks	4	0	4	boats	4	correct	0.431719078798778
261983	1	stim073_animate_insect_dragonfly_1.png	73	animate	insect	dragonfly	1	0	4	boats	4	correct	0.431719078798778
262183	1	stim029_animate_bird_parrot_1.png	29	animate	bird	parrot	1	0	4	boats	4	correct	0.431719078798778
262383	1	stim156_inanimate_furniture_sofa_4.png	156	inanimate	furniture	sofa	4	0	4	boats	4	correct	0.431719078798778
262583	1	stim057_animate_human_sports_1.png	57	animate	human	sports	1	0	4	boats	4	correct	0.431719078798778
262783	1	stim139_inanimate_fruits_strawberry_3.png	139	inanimate	fruits	strawberry	3	0	4	boats	4	correct	0.431719078798778
262983	1	stim104_inanimate_clothing_gloves_4.png	104	inanimate	clothing	gloves	4	0	4	boats	4	correct	0.431719078798778
263183	1	stim160_inanimate_furniture_table_4.png	160	inanimate	furniture	table	4	0	4	boats	4	correct	0.431719078798778
263383	1	stim102_inanimate_clothing_gloves_2.png	102	inanimate	clothing	gloves	2	0	4	boats	4	correct	0.431719078798778
263583	1	stim061_animate_insect_ant_1.png	61	animate	insect	ant	1	0	4	boats	4	correct	0.431719078798778
263783	1	stim154_inanimate_furniture_sofa_2.png	154	inanimate	furniture	sofa	2	0	4	boats	4	correct	0.431719078798778
263983	1	stim159_inanimate_furniture_table_3.png	159	inanimate	furniture	table	3	0	4	boats	4	correct	0.431719078798778
264183	1	stim083_animate_mammal_cow_3.png	83	animate	mammal	cow	3	0	4	boats	4	correct	0.431719078798778
264383	1	stim174_inanimate_plants_tree_2.png	174	inanimate	plants	tree	2	0	4	boats	4	correct	0.431719078798778
264583	1	stim059_animate_human_sports_3.png	59	animate	human	sports	3	0	4	boats	4	correct	0.431719078798778
264783	1	stim134_inanimate_fruits_pineapple_2.png	134	inanimate	fruits	pineapple	2	0	4	boats	4	correct	0.431719078798778
264983	1	stim153_inanimate_furniture_sofa_1.png	153	inanimate	furniture	sofa	1	0	4	boats	4	correct	0.431719078798778
265183	1	stim132_inanimate_fruits_grape_4.png	132	inanimate	fruits	grape	4	0	4	boats	4	correct	0.431719078798778
265383	1	stim037_animate_bird_penguin_1.png	37	animate	bird	penguin	1	0	4	boats	4	correct	0.431719078798778
265583	1	stim149_inanimate_furniture_closet_1.png	149	inanimate	furniture	closet	1	0	4	boats	4	correct	0.431719078798778
265783	1	stim050_animate_human_clown_2.png	50	animate	human	clown	2	0	4	boats	4	correct	0.431719078798778
265983	1	stim128_inanimate_fruits_banana_4.png	128	inanimate	fruits	banana	4	0	4	boats	4	correct	0.431719078798778
266183	1	stim148_inanimate_furniture_chair_4.png	148	inanimate	furniture	chair	4	0	4	boats	4	correct	0.431719078798778
266383	1	stim043_animate_human_baby_3.png	43	animate	human	baby	3	0	4	boats	4	correct	0.431719078798778
266583	1	stim067_animate_insect_bug_3.png	67	animate	insect	bug	3	0	4	boats	4	correct	0.431719078798778
266783	1	stim146_inanimate_furniture_chair_2.png	146	inanimate	furniture	chair	2	0	4	boats	4	correct	0.431719078798778
266983	1	stim004_animate_aquatic_crab_4.png	4	animate	aquatic	crab	4	0	4	boats	4	correct	0.431719078798778
267183	1	stim201_targets_object_boats_1.png	201	targets	object	boats	1	1	4	boats	4	correct	0.431719078798778
267383	1	stim015_animate_aquatic_shark_3.png	15	animate	aquatic	shark	3	0	4	boats	4	correct	0.431719078798778
267583	1	stim198_inanimate_tools_wrench_2.png	198	inanimate	tools	wrench	2	0	4	boats	4	correct	0.431719078798778
267783	1	stim114_inanimate_clothing_shirt_2.png	114	inanimate	clothing	shirt	2	0	4	boats	4	correct	0.431719078798778
267983	1	stim127_inanimate_fruits_banana_3.png	127	inanimate	fruits	banana	3	0	4	boats	4	correct	0.431719078798778
268183	1	stim185_inanimate_tools_hammer_1.png	185	inanimate	tools	hammer	1	0	4	boats	4	correct	0.431719078798778
268383	1	stim038_animate_bird_penguin_2.png	38	animate	bird	penguin	2	0	4	boats	4	correct	0.431719078798778
268584	1	stim093_animate_mammal_monkey_1.png	93	animate	mammal	monkey	1	0	4	boats	4	correct	0.431719078798778
268784	1	stim006_animate_aquatic_fish_2.png	6	animate	aquatic	fish	2	0	4	boats	4	correct	0.431719078798778
268983	1	stim080_animate_insect_grasshopper_4.png	80	animate	insect	grasshopper	4	0	4	boats	4	correct	0.431719078798778
269183	1	stim141_inanimate_furniture_bed_1.png	141	inanimate	furniture	bed	1	0	4	boats	4	correct	0.431719078798778
269384	1	stim028_animate_bird_duck_4.png	28	animate	bird	duck	4	0	4	boats	4	correct	0.431719078798778
269584	1	stim075_animate_insect_dragonfly_3.png	75	animate	insect	dragonfly	3	0	4	boats	4	correct	0.431719078798778
269784	1	stim176_inanimate_plants_tree_4.png	176	inanimate	plants	tree	4	0	4	boats	4	correct	0.431719078798778
269984	1	stim168_inanimate_plants_cactus_4.png	168	inanimate	plants	cactus	4	0	4	boats	4	correct	0.431719078798778
270184	1	stim184_inanimate_tools_broom_4.png	184	inanimate	tools	broom	4	0	4	boats	4	correct	0.431719078798778
270384	1	stim103_inanimate_clothing_gloves_3.png	103	inanimate	clothing	gloves	3	0	4	boats	4	correct	0.431719078798778
270584	1	stim138_inanimate_fruits_strawberry_2.png	138	inanimate	fruits	strawberry	2	0	4	boats	4	correct	0.431719078798778
270784	1	stim200_inanimate_tools_wrench_4.png	200	inanimate	tools	wrench	4	0	4	boats	4	correct	0.431719078798778
270984	1	stim074_animate_insect_dragonfly_2.png	74	animate	insect	dragonfly	2	0	4	boats	4	correct	0.431719078798778
271184	1	stim021_animate_bird_chicken_1.png	21	animate	bird	chicken	1	0	4	boats	4	correct	0.431719078798778
271384	1	stim005_animate_aquatic_fish_1.png	5	animate	aquatic	fish	1	0	4	boats	4	correct	0.431719078798778
271584	1	stim034_animate_bird_peacock_2.png	34	animate	bird	peacock	2	0	4	boats	4	correct	0.431719078798778
271784	1	stim142_inanimate_furniture_bed_2.png	142	inanimate	furniture	bed	2	0	4	boats	4	correct	0.431719078798778
271984	1	stim091_animate_mammal_kangaroo_3.png	91	animate	mammal	kangaroo	3	0	4	boats	4	correct	0.431719078798778
272184	1	stim001_animate_aquatic_crab_1.png	1	animate	aquatic	crab	1	0	4	boats	4	correct	0.431719078798778
272384	1	stim109_inanimate_clothing_jeans_1.png	109	inanimate	clothing	jeans	1	0	4	boats	4	correct	0.431719078798778
272584	1	stim172_inanimate_plants_sunflower_4.png	172	inanimate	plants	sunflower	4	0	4	boats	4	correct	0.431719078798778
272784	1	stim056_animate_human_faces_4.png	56	animate	human	faces	4	0	4	boats	4	correct	0.431719078798778
272984	1	stim082_animate_mammal_cow_2.png	82	animate	mammal	cow	2	0	4	boats	4	correct	0.431719078798778
273184	1	stim052_animate_human_clown_4.png	52	animate	human	clown	4	0	4	boats	4	correct	0.431719078798778
273384	1	stim055_animate_human_faces_3.png	55	animate	human	faces	3	0	4	boats	4	correct	0.431719078798778
273584	1	stim025_animate_bird_duck_1.png	25	animate	bird	duck	1	0	4	boats	4	correct	0.431719078798778
273784	1	stim203_targets_object_boats_3.png	203	targets	object	boats	3	1	4	boats	4	correct	0.431719078798778
273984	1	stim131_inanimate_fruits_grape_3.png	131	inanimate	fruits	grape	3	0	4	boats	4	correct	0.431719078798778
274184	1	stim121_inanimate_fruits_apple_1.png	121	inanimate	fruits	apple	1	0	4	boats	4	correct	0.431719078798778
274384	1	stim024_animate_bird_chicken_4.png	24	animate	bird	chicken	4	0	4	boats	4	correct	0.431719078798778
274584	1	stim178_inanimate_plants_tulip_2.png	178	inanimate	plants	tulip	2	0	4	boats	4	correct	0.431719078798778
274784	1	stim101_inanimate_clothing_gloves_1.png	101	inanimate	clothing	gloves	1	0	4	boats	4	correct	0.431719078798778
274984	1	stim072_animate_insect_butterfly_4.png	72	animate	insect	butterfly	4	0	4	boats	4	correct	0.431719078798778
275184	1	stim087_animate_mammal_giraffe_3.png	87	animate	mammal	giraffe	3	0	4	boats	4	correct	0.431719078798778
275384	1	stim032_animate_bird_parrot_4.png	32	animate	bird	parrot	4	0	4	boats	4	correct	0.431719078798778
275584	1	stim045_animate_human_child_1.png	45	animate	human	child	1	0	4	boats	4	correct	0.431719078798778
275784	1	stim164_inanimate_plants_bush_4.png	164	inanimate	plants	bush	4	0	4	boats	4	correct	0.431719078798778
275984	1	stim095_animate_mammal_monkey_3.png	95	animate	mammal	monkey	3	0	4	boats	4	correct	0.431719078798778
276184	1	stim076_animate_insect_dragonfly_4.png	76	animate	insect	dragonfly	4	0	4	boats	4	correct	0.431719078798778
276384	1	stim094_animate_mammal_monkey_2.png	94	animate	mammal	monkey	2	0	4	boats	4	correct	0.431719078798778
276584	1	stim115_inanimate_clothing_shirt_3.png	115	inanimate	clothing	shirt	3	0	4	boats	4	correct	0.431719078798778
276784	1	stim047_animate_human_child_3.png	47	animate	human	child	3	0	4	boats	4	correct	0.431719078798778
276984	1	stim066_animate_insect_bug_2.png	66	animate	insect	bug	2	0	4	boats	4	correct	0.431719078798778
277184	1	stim040_animate_bird_penguin_4.png	40	animate	bird	penguin	4	0	4	boats	4	correct	0.431719078798778
277384	1	stim007_animate_aquatic_fish_3.png	7	animate	aquatic	fish	3	0	4	boats	4	correct	0.431719078798778
277584	1	stim189_inanimate_tools_pan_1.png	189	inanimate	tools	pan	1	0	4	boats	4	correct	0.431719078798778
277784	1	stim145_inanimate_furniture_chair_1.png	145	inanimate	furniture	chair	1	0	4	boats	4	correct	0.431719078798778
277984	1	stim129_inanimate_fruits_grape_1.png	129	inanimate	fruits	grape	1	0	4	boats	4	correct	0.431719078798778
278184	1	stim008_animate_aquatic_fish_4.png	8	animate	aquatic	fish	4	0	4	boats	4	correct	0.431719078798778
278384	1	stim187_inanimate_tools_hammer_3.png	187	inanimate	tools	hammer	3	0	4	boats	4	correct	0.431719078798778
278584	1	stim011_animate_aquatic_seahorse_3.png	11	animate	aquatic	seahorse	3	0	4	boats	4	correct	0.431719078798778
278784	1	stim177_inanimate_plants_tulip_1.png	177	inanimate	plants	tulip	1	0	4	boats	4	correct	0.431719078798778
278984	1	stim054_animate_human_faces_2.png	54	animate	human	faces	2	0	4	boats	4	correct	0.431719078798778
279184	1	stim012_animate_aquatic_seahorse_4.png	12	animate	aquatic	seahorse	4	0	4	boats	4	correct	0.431719078798778
279384	1	stim044_animate_human_baby_4.png	44	animate	human	baby	4	0	4	boats	4	correct	0.431719078798778
279584	1	stim157_inanimate_furniture_table_1.png	157	inanimate	furniture	table	1	0	4	boats	4	correct	0.431719078798778
279784	1	stim182_inanimate_tools_broom_2.png	182	inanimate	tools	broom	2	0	4	boats	4	correct	0.431719078798778
279984	1	stim155_inanimate_furniture_sofa_3.png	155	inanimate	furniture	sofa	3	0	4	boats	4	correct	0.431719078798778
280184	1	stim036_animate_bird_peacock_4.png	36	animate	bird	peacock	4	0	4	boats	4	correct	0.431719078798778
280384	1	stim088_animate_mammal_giraffe_4.png	88	animate	mammal	giraffe	4	0	4	boats	4	correct	0.431719078798778
280584	1	stim084_animate_mammal_cow_4.png	84	animate	mammal	cow	4	0	4	boats	4	correct	0.431719078798778
280784	1	stim124_inanimate_fruits_apple_4.png	124	inanimate	fruits	apple	4	0	4	boats	4	correct	0.431719078798778
280984	1	stim002_animate_aquatic_crab_2.png	2	animate	aquatic	crab	2	0	4	boats	4	correct	0.431719078798778
281184	1	stim170_inanimate_plants_sunflower_2.png	170	inanimate	plants	sunflower	2	0	4	boats	4	correct	0.431719078798778
281384	1	stim092_animate_mammal_kangaroo_4.png	92	animate	mammal	kangaroo	4	0	4	boats	4	correct	0.431719078798778
281584	1	stim161_inanimate_plants_bush_1.png	161	inanimate	plants	bush	1	0	4	boats	4	correct	0.431719078798778
281784	1	stim175_inanimate_plants_tree_3.png	175	inanimate	plants	tree	3	0	4	boats	4	correct	0.431719078798778
281984	1	stim089_animate_mammal_kangaroo_1.png	89	animate	mammal	kangaroo	1	0	4	boats	4	correct	0.431719078798778
282184	1	stim090_animate_mammal_kangaroo_2.png	90	animate	mammal	kangaroo	2	0	4	boats	4	correct	0.431719078798778
282384	1	stim070_animate_insect_butterfly_2.png	70	animate	insect	butterfly	2	0	4	boats	4	correct	0.431719078798778
282584	1	stim058_animate_human_sports_2.png	58	animate	human	sports	2	0	4	boats	4	correct	0.431719078798778
282784	1	stim022_animate_bird_chicken_2.png	22	animate	bird	chicken	2	0	4	boats	4	correct	0.431719078798778
282984	1	stim166_inanimate_plants_cactus_2.png	166	inanimate	plants	cactus	2	0	4	boats	4	correct	0.431719078798778
283184	1	stim122_inanimate_fruits_apple_2.png	122	inanimate	fruits	apple	2	0	4	boats	4	correct	0.431719078798778
283384	1	stim123_inanimate_fruits_apple_3.png	123	inanimate	fruits	apple	3	0	4	boats	4	correct	0.431719078798778
283584	1	stim060_animate_human_sports_4.png	60	animate	human	sports	4	0	4	boats	4	correct	0.431719078798778
283784	1	stim171_inanimate_plants_sunflower_3.png	171	inanimate	plants	sunflower	3	0	4	boats	4	correct	0.431719078798778
283984	1	stim119_inanimate_clothing_socks_3.png	119	inanimate	clothing	socks	3	0	4	boats	4	correct	0.431719078798778
284184	1	stim181_inanimate_tools_broom_1.png	181	inanimate	tools	broom	1	0	4	boats	4	correct	0.431719078798778
284384	1	stim033_animate_bird_peacock_1.png	33	animate	bird	peacock	1	0	4	boats	4	correct	0.431719078798778
284584	1	stim162_inanimate_plants_bush_2.png	162	inanimate	plants	bush	2	0	4	boats	4	correct	0.431719078798778
284784	1	stim014_animate_aquatic_shark_2.png	14	animate	aquatic	shark	2	0	4	boats	4	correct	0.431719078798778
284984	1	stim165_inanimate_plants_cactus_1.png	165	inanimate	plants	cactus	1	0	4	boats	4	correct	0.431719078798778
285184	1	stim167_inanimate_plants_cactus_3.png	167	inanimate	plants	cactus	3	0	4	boats	4	correct	0.431719078798778
285384	1	stim152_inanimate_furniture_closet_4.png	152	inanimate	furniture	closet	4	0	4	boats	4	correct	0.431719078798778
285584	1	stim179_inanimate_plants_tulip_3.png	179	inanimate	plants	tulip	3	0	4	boats	4	correct	0.431719078798778
285784	1	stim140_inanimate_fruits_strawberry_4.png	140	inanimate	fruits	strawberry	4	0	4	boats	4	correct	0.431719078798778
324851	1	stim200_inanimate_tools_wrench_4.png	200	inanimate	tools	wrench	4	0	5	stars	2	incorrect	1.16174346218759
325051	1	stim161_inanimate_plants_bush_1.png	161	inanimate	plants	bush	1	0	5	stars	2	incorrect	1.16174346218759
325251	1	stim192_inanimate_tools_pan_4.png	192	inanimate	tools	pan	4	0	5	stars	2	incorrect	1.16174346218759
325451	1	stim005_animate_aquatic_fish_1.png	5	animate	aquatic	fish	1	0	5	stars	2	incorrect	1.16174346218759
325651	1	stim015_animate_aquatic_shark_3.png	15	animate	aquatic	shark	3	0	5	stars	2	incorrect	1.16174346218759
325851	1	stim106_inanimate_clothing_hat_2.png	106	inanimate	clothing	hat	2	0	5	stars	2	incorrect	1.16174346218759
326051	1	stim188_inanimate_tools_hammer_4.png	188	inanimate	tools	hammer	4	0	5	stars	2	incorrect	1.16174346218759
326251	1	stim136_inanimate_fruits_pineapple_4.png	136	inanimate	fruits	pineapple	4	0	5	stars	2	incorrect	1.16174346218759
326451	1	stim004_animate_aquatic_crab_4.png	4	animate	aquatic	crab	4	0	5	stars	2	incorrect	1.16174346218759
326651	1	stim127_inanimate_fruits_banana_3.png	127	inanimate	fruits	banana	3	0	5	stars	2	incorrect	1.16174346218759
326851	1	stim146_inanimate_furniture_chair_2.png	146	inanimate	furniture	chair	2	0	5	stars	2	incorrect	1.16174346218759
327052	1	stim134_inanimate_fruits_pineapple_2.png	134	inanimate	fruits	pineapple	2	0	5	stars	2	incorrect	1.16174346218759
327251	1	stim012_animate_aquatic_seahorse_4.png	12	animate	aquatic	seahorse	4	0	5	stars	2	incorrect	1.16174346218759
327451	1	stim065_animate_insect_bug_1.png	65	animate	insect	bug	1	0	5	stars	2	incorrect	1.16174346218759
327652	1	stim096_animate_mammal_monkey_4.png	96	animate	mammal	monkey	4	0	5	stars	2	incorrect	1.16174346218759
327852	1	stim056_animate_human_faces_4.png	56	animate	human	faces	4	0	5	stars	2	incorrect	1.16174346218759
328052	1	stim037_animate_bird_penguin_1.png	37	animate	bird	penguin	1	0	5	stars	2	incorrect	1.16174346218759
328252	1	stim130_inanimate_fruits_grape_2.png	130	inanimate	fruits	grape	2	0	5	stars	2	incorrect	1.16174346218759
328452	1	stim070_animate_insect_butterfly_2.png	70	animate	insect	butterfly	2	0	5	stars	2	incorrect	1.16174346218759
328652	1	stim049_animate_human_clown_1.png	49	animate	human	clown	1	0	5	stars	2	incorrect	1.16174346218759
328852	1	stim123_inanimate_fruits_apple_3.png	123	inanimate	fruits	apple	3	0	5	stars	2	incorrect	1.16174346218759
329052	1	stim094_animate_mammal_monkey_2.png	94	animate	mammal	monkey	2	0	5	stars	2	incorrect	1.16174346218759
329252	1	stim053_animate_human_faces_1.png	53	animate	human	faces	1	0	5	stars	2	incorrect	1.16174346218759
329452	1	stim173_inanimate_plants_tree_1.png	173	inanimate	plants	tree	1	0	5	stars	2	incorrect	1.16174346218759
329652	1	stim076_animate_insect_dragonfly_4.png	76	animate	insect	dragonfly	4	0	5	stars	2	incorrect	1.16174346218759
329852	1	stim040_animate_bird_penguin_4.png	40	animate	bird	penguin	4	0	5	stars	2	incorrect	1.16174346218759
330052	1	stim169_inanimate_plants_sunflower_1.png	169	inanimate	plants	sunflower	1	0	5	stars	2	incorrect	1.16174346218759
330252	1	stim081_animate_mammal_cow_1.png	81	animate	mammal	cow	1	0	5	stars	2	incorrect	1.16174346218759
330452	1	stim132_inanimate_fruits_grape_4.png	132	inanimate	fruits	grape	4	0	5	stars	2	incorrect	1.16174346218759
330652	1	stim128_inanimate_fruits_banana_4.png	128	inanimate	fruits	banana	4	0	5	stars	2	incorrect	1.16174346218759
330852	1	stim122_inanimate_fruits_apple_2.png	122	inanimate	fruits	apple	2	0	5	stars	2	incorrect	1.16174346218759
331052	1	stim144_inanimate_furniture_bed_4.png	144	inanimate	furniture	bed	4	0	5	stars	2	incorrect	1.16174346218759
331252	1	stim083_animate_mammal_cow_3.png	83	animate	mammal	cow	3	0	5	stars	2	incorrect	1.16174346218759
331452	1	stim114_inanimate_clothing_shirt_2.png	114	inanimate	clothing	shirt	2	0	5	stars	2	incorrect	1.16174346218759
331652	1	stim143_inanimate_furniture_bed_3.png	143	inanimate	furniture	bed	3	0	5	stars	2	incorrect	1.16174346218759
331852	1	stim157_inanimate_furniture_table_1.png	157	inanimate	furniture	table	1	0	5	stars	2	incorrect	1.16174346218759
332052	1	stim100_animate_mammal_rhino_4.png	100	animate	mammal	rhino	4	0	5	stars	2	incorrect	1.16174346218759
332252	1	stim091_animate_mammal_kangaroo_3.png	91	animate	mammal	kangaroo	3	0	5	stars	2	incorrect	1.16174346218759
332452	1	stim177_inanimate_plants_tulip_1.png	177	inanimate	plants	tulip	1	0	5	stars	2	incorrect	1.16174346218759
332652	1	stim111_inanimate_clothing_jeans_3.png	111	inanimate	clothing	jeans	3	0	5	stars	2	incorrect	1.16174346218759
332852	1	stim103_inanimate_clothing_gloves_3.png	103	inanimate	clothing	gloves	3	0	5	stars	2	incorrect	1.16174346218759
333052	1	stim166_inanimate_plants_cactus_2.png	166	inanimate	plants	cactus	2	0	5	stars	2	incorrect	1.16174346218759
333252	1	stim018_animate_aquatic_shrimp_2.png	18	animate	aquatic	shrimp	2	0	5	stars	2	incorrect	1.16174346218759
333452	1	stim186_inanimate_tools_hammer_2.png	186	inanimate	tools	hammer	2	0	5	stars	2	incorrect	1.16174346218759
333652	1	stim072_animate_insect_butterfly_4.png	72	animate	insect	butterfly	4	0	5	stars	2	incorrect	1.16174346218759
333852	1	stim138_inanimate_fruits_strawberry_2.png	138	inanimate	fruits	strawberry	2	0	5	stars	2	incorrect	1.16174346218759
334052	1	stim189_inanimate_tools_pan_1.png	189	inanimate	tools	pan	1	0	5	stars	2	incorrect	1.16174346218759
334252	1	stim187_inanimate_tools_hammer_3.png	187	inanimate	tools	hammer	3	0	5	stars	2	incorrect	1.16174346218759
334452	1	stim060_animate_human_sports_4.png	60	animate	human	sports	4	0	5	stars	2	incorrect	1.16174346218759
334652	1	stim167_inanimate_plants_cactus_3.png	167	inanimate	plants	cactus	3	0	5	stars	2	incorrect	1.16174346218759
334852	1	stim151_inanimate_furniture_closet_3.png	151	inanimate	furniture	closet	3	0	5	stars	2	incorrect	1.16174346218759
335052	1	stim017_animate_aquatic_shrimp_1.png	17	animate	aquatic	shrimp	1	0	5	stars	2	incorrect	1.16174346218759
335252	1	stim064_animate_insect_ant_4.png	64	animate	insect	ant	4	0	5	stars	2	incorrect	1.16174346218759
335452	1	stim149_inanimate_furniture_closet_1.png	149	inanimate	furniture	closet	1	0	5	stars	2	incorrect	1.16174346218759
335652	1	stim171_inanimate_plants_sunflower_3.png	171	inanimate	plants	sunflower	3	0	5	stars	2	incorrect	1.16174346218759
335852	1	stim102_inanimate_clothing_gloves_2.png	102	inanimate	clothing	gloves	2	0	5	stars	2	incorrect	1.16174346218759
336052	1	stim067_animate_insect_bug_3.png	67	animate	insect	bug	3	0	5	stars	2	incorrect	1.16174346218759
336252	1	stim107_inanimate_clothing_hat_3.png	107	inanimate	clothing	hat	3	0	5	stars	2	incorrect	1.16174346218759
336452	1	stim109_inanimate_clothing_jeans_1.png	109	inanimate	clothing	jeans	1	0	5	stars	2	incorrect	1.16174346218759
336652	1	stim155_inanimate_furniture_sofa_3.png	155	inanimate	furniture	sofa	3	0	5	stars	2	incorrect	1.16174346218759
336852	1	stim199_inanimate_tools_wrench_3.png	199	inanimate	tools	wrench	3	0	5	stars	2	incorrect	1.16174346218759
337052	1	stim115_inanimate_clothing_shirt_3.png	115	inanimate	clothing	shirt	3	0	5	stars	2	incorrect	1.16174346218759
337252	1	stim211_targets_shapes_star_3.png	211	targets	shapes	star	3	1	5	stars	2	incorrect	1.16174346218759
337452	1	stim097_animate_mammal_rhino_1.png	97	animate	mammal	rhino	1	0	5	stars	2	incorrect	1.16174346218759
337652	1	stim197_inanimate_tools_wrench_1.png	197	inanimate	tools	wrench	1	0	5	stars	2	incorrect	1.16174346218759
337852	1	stim137_inanimate_fruits_strawberry_1.png	137	inanimate	fruits	strawberry	1	0	5	stars	2	incorrect	1.16174346218759
338052	1	stim058_animate_human_sports_2.png	58	animate	human	sports	2	0	5	stars	2	incorrect	1.16174346218759
338252	1	stim034_animate_bird_peacock_2.png	34	animate	bird	peacock	2	0	5	stars	2	incorrect	1.16174346218759
338452	1	stim119_inanimate_clothing_socks_3.png	119	inanimate	clothing	socks	3	0	5	stars	2	incorrect	1.16174346218759
338652	1	stim086_animate_mammal_giraffe_2.png	86	animate	mammal	giraffe	2	0	5	stars	2	incorrect	1.16174346218759
338852	1	stim061_animate_insect_ant_1.png	61	animate	insect	ant	1	0	5	stars	2	incorrect	1.16174346218759
339052	1	stim031_animate_bird_parrot_3.png	31	animate	bird	parrot	3	0	5	stars	2	incorrect	1.16174346218759
339252	1	stim079_animate_insect_grasshopper_3.png	79	animate	insect	grasshopper	3	0	5	stars	2	incorrect	1.16174346218759
339452	1	stim057_animate_human_sports_1.png	57	animate	human	sports	1	0	5	stars	2	incorrect	1.16174346218759
339652	1	stim010_animate_aquatic_seahorse_2.png	10	animate	aquatic	seahorse	2	0	5	stars	2	incorrect	1.16174346218759
339852	1	stim153_inanimate_furniture_sofa_1.png	153	inanimate	furniture	sofa	1	0	5	stars	2	incorrect	1.16174346218759
340052	1	stim101_inanimate_clothing_gloves_1.png	101	inanimate	clothing	gloves	1	0	5	stars	2	incorrect	1.16174346218759
340252	1	stim033_animate_bird_peacock_1.png	33	animate	bird	peacock	1	0	5	stars	2	incorrect	1.16174346218759
340452	1	stim158_inanimate_furniture_table_2.png	158	inanimate	furniture	table	2	0	5	stars	2	incorrect	1.16174346218759
340652	1	stim009_animate_aquatic_seahorse_1.png	9	animate	aquatic	seahorse	1	0	5	stars	2	incorrect	1.16174346218759
340852	1	stim113_inanimate_clothing_shirt_1.png	113	inanimate	clothing	shirt	1	0	5	stars	2	incorrect	1.16174346218759
341052	1	stim006_animate_aquatic_fish_2.png	6	animate	aquatic	fish	2	0	5	stars	2	incorrect	1.16174346218759
341252	1	stim118_inanimate_clothing_socks_2.png	118	inanimate	clothing	socks	2	0	5	stars	2	incorrect	1.16174346218759
341452	1	stim175_inanimate_plants_tree_3.png	175	inanimate	plants	tree	3	0	5	stars	2	incorrect	1.16174346218759
341652	1	stim176_inanimate_plants_tree_4.png	176	inanimate	plants	tree	4	0	5	stars	2	incorrect	1.16174346218759
341852	1	stim174_inanimate_plants_tree_2.png	174	inanimate	plants	tree	2	0	5	stars	2	incorrect	1.16174346218759
