onset	duration	stimulusname	stimulusnumber	levelA	levelB	levelC	withinexemplarnumber	istarget	trialnumber	condition	response	correct	rt
50161	1	stim022_animate_bird_chicken_2.png	22	animate	bird	chicken	2	0	1	stars	4	correct	1.39613278757315
50361	1	stim036_animate_bird_peacock_4.png	36	animate	bird	peacock	4	0	1	stars	4	correct	1.39613278757315
50561	1	stim161_inanimate_plants_bush_1.png	161	inanimate	plants	bush	1	0	1	stars	4	correct	1.39613278757315
50761	1	stim039_animate_bird_penguin_3.png	39	animate	bird	penguin	3	0	1	stars	4	correct	1.39613278757315
50961	1	stim073_animate_insect_dragonfly_1.png	73	animate	insect	dragonfly	1	0	1	stars	4	correct	1.39613278757315
51161	1	stim134_inanimate_fruits_pineapple_2.png	134	inanimate	fruits	pineapple	2	0	1	stars	4	correct	1.39613278757315
51361	1	stim095_animate_mammal_monkey_3.png	95	animate	mammal	monkey	3	0	1	stars	4	correct	1.39613278757315
51561	1	stim092_animate_mammal_kangaroo_4.png	92	animate	mammal	kangaroo	4	0	1	stars	4	correct	1.39613278757315
51761	1	stim115_inanimate_clothing_shirt_3.png	115	inanimate	clothing	shirt	3	0	1	stars	4	correct	1.39613278757315
51961	1	stim132_inanimate_fruits_grape_4.png	132	inanimate	fruits	grape	4	0	1	stars	4	correct	1.39613278757315
52161	1	stim200_inanimate_tools_wrench_4.png	200	inanimate	tools	wrench	4	0	1	stars	4	correct	1.39613278757315
52361	1	stim097_animate_mammal_rhino_1.png	97	animate	mammal	rhino	1	0	1	stars	4	correct	1.39613278757315
52561	1	stim127_inanimate_fruits_banana_3.png	127	inanimate	fruits	banana	3	0	1	stars	4	correct	1.39613278757315
52761	1	stim108_inanimate_clothing_hat_4.png	108	inanimate	clothing	hat	4	0	1	stars	4	correct	1.39613278757315
52961	1	stim025_animate_bird_duck_1.png	25	animate	bird	duck	1	0	1	stars	4	correct	1.39613278757315
53161	1	stim104_inanimate_clothing_gloves_4.png	104	inanimate	clothing	gloves	4	0	1	stars	4	correct	1.39613278757315
53361	1	stim062_animate_insect_ant_2.png	62	animate	insect	ant	2	0	1	stars	4	correct	1.39613278757315
53561	1	stim189_inanimate_tools_pan_1.png	189	inanimate	tools	pan	1	0	1	stars	4	correct	1.39613278757315
53761	1	stim060_animate_human_sports_4.png	60	animate	human	sports	4	0	1	stars	4	correct	1.39613278757315
53961	1	stim018_animate_aquatic_shrimp_2.png	18	animate	aquatic	shrimp	2	0	1	stars	4	correct	1.39613278757315
54161	1	stim069_animate_insect_butterfly_1.png	69	animate	insect	butterfly	1	0	1	stars	4	correct	1.39613278757315
54361	1	stim163_inanimate_plants_bush_3.png	163	inanimate	plants	bush	3	0	1	stars	4	correct	1.39613278757315
54561	1	stim044_animate_human_baby_4.png	44	animate	human	baby	4	0	1	stars	4	correct	1.39613278757315
54761	1	stim152_inanimate_furniture_closet_4.png	152	inanimate	furniture	closet	4	0	1	stars	4	correct	1.39613278757315
54961	1	stim107_inanimate_clothing_hat_3.png	107	inanimate	clothing	hat	3	0	1	stars	4	correct	1.39613278757315
55161	1	stim015_animate_aquatic_shark_3.png	15	animate	aquatic	shark	3	0	1	stars	4	correct	1.39613278757315
55361	1	stim063_animate_insect_ant_3.png	63	animate	insect	ant	3	0	1	stars	4	correct	1.39613278757315
55561	1	stim087_animate_mammal_giraffe_3.png	87	animate	mammal	giraffe	3	0	1	stars	4	correct	1.39613278757315
55761	1	stim196_inanimate_tools_scissors_4.png	196	inanimate	tools	scissors	4	0	1	stars	4	correct	1.39613278757315
55961	1	stim150_inanimate_furniture_closet_2.png	150	inanimate	furniture	closet	2	0	1	stars	4	correct	1.39613278757315
56161	1	stim048_animate_human_child_4.png	48	animate	human	child	4	0	1	stars	4	correct	1.39613278757315
56361	1	stim178_inanimate_plants_tulip_2.png	178	inanimate	plants	tulip	2	0	1	stars	4	correct	1.39613278757315
56561	1	stim081_animate_mammal_cow_1.png	81	animate	mammal	cow	1	0	1	stars	4	correct	1.39613278757315
56761	1	stim091_animate_mammal_kangaroo_3.png	91	animate	mammal	kangaroo	3	0	1	stars	4	correct	1.39613278757315
56961	1	stim195_inanimate_tools_scissors_3.png	195	inanimate	tools	scissors	3	0	1	stars	4	correct	1.39613278757315
57161	1	stim035_animate_bird_peacock_3.png	35	animate	bird	peacock	3	0	1	stars	4	correct	1.39613278757315
57361	1	stim141_inanimate_furniture_bed_1.png	141	inanimate	furniture	bed	1	0	1	stars	4	correct	1.39613278757315
57561	1	stim078_animate_insect_grasshopper_2.png	78	animate	insect	grasshopper	2	0	1	stars	4	correct	1.39613278757315
57761	1	stim112_inanimate_clothing_jeans_4.png	112	inanimate	clothing	jeans	4	0	1	stars	4	correct	1.39613278757315
57961	1	stim186_inanimate_tools_hammer_2.png	186	inanimate	tools	hammer	2	0	1	stars	4	correct	1.39613278757315
58161	1	stim017_animate_aquatic_shrimp_1.png	17	animate	aquatic	shrimp	1	0	1	stars	4	correct	1.39613278757315
58361	1	stim119_inanimate_clothing_socks_3.png	119	inanimate	clothing	socks	3	0	1	stars	4	correct	1.39613278757315
58561	1	stim038_animate_bird_penguin_2.png	38	animate	bird	penguin	2	0	1	stars	4	correct	1.39613278757315
58761	1	stim158_inanimate_furniture_table_2.png	158	inanimate	furniture	table	2	0	1	stars	4	correct	1.39613278757315
58961	1	stim075_animate_insect_dragonfly_3.png	75	animate	insect	dragonfly	3	0	1	stars	4	correct	1.39613278757315
59161	1	stim157_inanimate_furniture_table_1.png	157	inanimate	furniture	table	1	0	1	stars	4	correct	1.39613278757315
59361	1	stim149_inanimate_furniture_closet_1.png	149	inanimate	furniture	closet	1	0	1	stars	4	correct	1.39613278757315
59561	1	stim166_inanimate_plants_cactus_2.png	166	inanimate	plants	cactus	2	0	1	stars	4	correct	1.39613278757315
59761	1	stim019_animate_aquatic_shrimp_3.png	19	animate	aquatic	shrimp	3	0	1	stars	4	correct	1.39613278757315
59961	1	stim180_inanimate_plants_tulip_4.png	180	inanimate	plants	tulip	4	0	1	stars	4	correct	1.39613278757315
60161	1	stim082_animate_mammal_cow_2.png	82	animate	mammal	cow	2	0	1	stars	4	correct	1.39613278757315
60361	1	stim156_inanimate_furniture_sofa_4.png	156	inanimate	furniture	sofa	4	0	1	stars	4	correct	1.39613278757315
60561	1	stim100_animate_mammal_rhino_4.png	100	animate	mammal	rhino	4	0	1	stars	4	correct	1.39613278757315
60761	1	stim093_animate_mammal_monkey_1.png	93	animate	mammal	monkey	1	0	1	stars	4	correct	1.39613278757315
60961	1	stim045_animate_human_child_1.png	45	animate	human	child	1	0	1	stars	4	correct	1.39613278757315
61161	1	stim032_animate_bird_parrot_4.png	32	animate	bird	parrot	4	0	1	stars	4	correct	1.39613278757315
61361	1	stim142_inanimate_furniture_bed_2.png	142	inanimate	furniture	bed	2	0	1	stars	4	correct	1.39613278757315
61561	1	stim053_animate_human_faces_1.png	53	animate	human	faces	1	0	1	stars	4	correct	1.39613278757315
61761	1	stim056_animate_human_faces_4.png	56	animate	human	faces	4	0	1	stars	4	correct	1.39613278757315
61961	1	stim106_inanimate_clothing_hat_2.png	106	inanimate	clothing	hat	2	0	1	stars	4	correct	1.39613278757315
62161	1	stim212_targets_shapes_star_4.png	212	targets	shapes	star	4	1	1	stars	4	correct	1.39613278757315
62361	1	stim096_animate_mammal_monkey_4.png	96	animate	mammal	monkey	4	0	1	stars	4	correct	1.39613278757315
62561	1	stim094_animate_mammal_monkey_2.png	94	animate	mammal	monkey	2	0	1	stars	4	correct	1.39613278757315
62761	1	stim067_animate_insect_bug_3.png	67	animate	insect	bug	3	0	1	stars	4	correct	1.39613278757315
62961	1	stim101_inanimate_clothing_gloves_1.png	101	inanimate	clothing	gloves	1	0	1	stars	4	correct	1.39613278757315
63161	1	stim111_inanimate_clothing_jeans_3.png	111	inanimate	clothing	jeans	3	0	1	stars	4	correct	1.39613278757315
63361	1	stim001_animate_aquatic_crab_1.png	1	animate	aquatic	crab	1	0	1	stars	4	correct	1.39613278757315
63561	1	stim165_inanimate_plants_cactus_1.png	165	inanimate	plants	cactus	1	0	1	stars	4	correct	1.39613278757315
63761	1	stim010_animate_aquatic_seahorse_2.png	10	animate	aquatic	seahorse	2	0	1	stars	4	correct	1.39613278757315
63961	1	stim133_inanimate_fruits_pineapple_1.png	133	inanimate	fruits	pineapple	1	0	1	stars	4	correct	1.39613278757315
64161	1	stim169_inanimate_plants_sunflower_1.png	169	inanimate	plants	sunflower	1	0	1	stars	4	correct	1.39613278757315
64361	1	stim126_inanimate_fruits_banana_2.png	126	inanimate	fruits	banana	2	0	1	stars	4	correct	1.39613278757315
64561	1	stim154_inanimate_furniture_sofa_2.png	154	inanimate	furniture	sofa	2	0	1	stars	4	correct	1.39613278757315
64761	1	stim211_targets_shapes_star_3.png	211	targets	shapes	star	3	1	1	stars	4	correct	1.39613278757315
64961	1	stim024_animate_bird_chicken_4.png	24	animate	bird	chicken	4	0	1	stars	4	correct	1.39613278757315
65161	1	stim118_inanimate_clothing_socks_2.png	118	inanimate	clothing	socks	2	0	1	stars	4	correct	1.39613278757315
65361	1	stim138_inanimate_fruits_strawberry_2.png	138	inanimate	fruits	strawberry	2	0	1	stars	4	correct	1.39613278757315
65561	1	stim055_animate_human_faces_3.png	55	animate	human	faces	3	0	1	stars	4	correct	1.39613278757315
65761	1	stim197_inanimate_tools_wrench_1.png	197	inanimate	tools	wrench	1	0	1	stars	4	correct	1.39613278757315
65961	1	stim052_animate_human_clown_4.png	52	animate	human	clown	4	0	1	stars	4	correct	1.39613278757315
66161	1	stim131_inanimate_fruits_grape_3.png	131	inanimate	fruits	grape	3	0	1	stars	4	correct	1.39613278757315
66361	1	stim174_inanimate_plants_tree_2.png	174	inanimate	plants	tree	2	0	1	stars	4	correct	1.39613278757315
66561	1	stim136_inanimate_fruits_pineapple_4.png	136	inanimate	fruits	pineapple	4	0	1	stars	4	correct	1.39613278757315
66761	1	stim083_animate_mammal_cow_3.png	83	animate	mammal	cow	3	0	1	stars	4	correct	1.39613278757315
66961	1	stim046_animate_human_child_2.png	46	animate	human	child	2	0	1	stars	4	correct	1.39613278757315
67161	1	stim181_inanimate_tools_broom_1.png	181	inanimate	tools	broom	1	0	1	stars	4	correct	1.39613278757315
67361	1	stim129_inanimate_fruits_grape_1.png	129	inanimate	fruits	grape	1	0	1	stars	4	correct	1.39613278757315
67561	1	stim184_inanimate_tools_broom_4.png	184	inanimate	tools	broom	4	0	1	stars	4	correct	1.39613278757315
67761	1	stim187_inanimate_tools_hammer_3.png	187	inanimate	tools	hammer	3	0	1	stars	4	correct	1.39613278757315
67961	1	stim037_animate_bird_penguin_1.png	37	animate	bird	penguin	1	0	1	stars	4	correct	1.39613278757315
68161	1	stim003_animate_aquatic_crab_3.png	3	animate	aquatic	crab	3	0	1	stars	4	correct	1.39613278757315
68361	1	stim145_inanimate_furniture_chair_1.png	145	inanimate	furniture	chair	1	0	1	stars	4	correct	1.39613278757315
68561	1	stim176_inanimate_plants_tree_4.png	176	inanimate	plants	tree	4	0	1	stars	4	correct	1.39613278757315
68761	1	stim120_inanimate_clothing_socks_4.png	120	inanimate	clothing	socks	4	0	1	stars	4	correct	1.39613278757315
68961	1	stim182_inanimate_tools_broom_2.png	182	inanimate	tools	broom	2	0	1	stars	4	correct	1.39613278757315
69161	1	stim103_inanimate_clothing_gloves_3.png	103	inanimate	clothing	gloves	3	0	1	stars	4	correct	1.39613278757315
69361	1	stim148_inanimate_furniture_chair_4.png	148	inanimate	furniture	chair	4	0	1	stars	4	correct	1.39613278757315
69561	1	stim023_animate_bird_chicken_3.png	23	animate	bird	chicken	3	0	1	stars	4	correct	1.39613278757315
69761	1	stim140_inanimate_fruits_strawberry_4.png	140	inanimate	fruits	strawberry	4	0	1	stars	4	correct	1.39613278757315
69961	1	stim151_inanimate_furniture_closet_3.png	151	inanimate	furniture	closet	3	0	1	stars	4	correct	1.39613278757315
70161	1	stim031_animate_bird_parrot_3.png	31	animate	bird	parrot	3	0	1	stars	4	correct	1.39613278757315
70361	1	stim109_inanimate_clothing_jeans_1.png	109	inanimate	clothing	jeans	1	0	1	stars	4	correct	1.39613278757315
70561	1	stim139_inanimate_fruits_strawberry_3.png	139	inanimate	fruits	strawberry	3	0	1	stars	4	correct	1.39613278757315
70761	1	stim124_inanimate_fruits_apple_4.png	124	inanimate	fruits	apple	4	0	1	stars	4	correct	1.39613278757315
70961	1	stim137_inanimate_fruits_strawberry_1.png	137	inanimate	fruits	strawberry	1	0	1	stars	4	correct	1.39613278757315
71161	1	stim143_inanimate_furniture_bed_3.png	143	inanimate	furniture	bed	3	0	1	stars	4	correct	1.39613278757315
71361	1	stim008_animate_aquatic_fish_4.png	8	animate	aquatic	fish	4	0	1	stars	4	correct	1.39613278757315
71561	1	stim159_inanimate_furniture_table_3.png	159	inanimate	furniture	table	3	0	1	stars	4	correct	1.39613278757315
71761	1	stim179_inanimate_plants_tulip_3.png	179	inanimate	plants	tulip	3	0	1	stars	4	correct	1.39613278757315
71961	1	stim041_animate_human_baby_1.png	41	animate	human	baby	1	0	1	stars	4	correct	1.39613278757315
72161	1	stim110_inanimate_clothing_jeans_2.png	110	inanimate	clothing	jeans	2	0	1	stars	4	correct	1.39613278757315
72361	1	stim061_animate_insect_ant_1.png	61	animate	insect	ant	1	0	1	stars	4	correct	1.39613278757315
72561	1	stim012_animate_aquatic_seahorse_4.png	12	animate	aquatic	seahorse	4	0	1	stars	4	correct	1.39613278757315
72761	1	stim070_animate_insect_butterfly_2.png	70	animate	insect	butterfly	2	0	1	stars	4	correct	1.39613278757315
72961	1	stim029_animate_bird_parrot_1.png	29	animate	bird	parrot	1	0	1	stars	4	correct	1.39613278757315
73161	1	stim085_animate_mammal_giraffe_1.png	85	animate	mammal	giraffe	1	0	1	stars	4	correct	1.39613278757315
73361	1	stim013_animate_aquatic_shark_1.png	13	animate	aquatic	shark	1	0	1	stars	4	correct	1.39613278757315
73561	1	stim168_inanimate_plants_cactus_4.png	168	inanimate	plants	cactus	4	0	1	stars	4	correct	1.39613278757315
73762	1	stim005_animate_aquatic_fish_1.png	5	animate	aquatic	fish	1	0	1	stars	4	correct	1.39613278757315
73961	1	stim164_inanimate_plants_bush_4.png	164	inanimate	plants	bush	4	0	1	stars	4	correct	1.39613278757315
74161	1	stim066_animate_insect_bug_2.png	66	animate	insect	bug	2	0	1	stars	4	correct	1.39613278757315
74361	1	stim213_targets_shapes_star_1.png	213	targets	shapes	star	1	1	1	stars	4	correct	1.39613278757315
74561	1	stim072_animate_insect_butterfly_4.png	72	animate	insect	butterfly	4	0	1	stars	4	correct	1.39613278757315
74761	1	stim153_inanimate_furniture_sofa_1.png	153	inanimate	furniture	sofa	1	0	1	stars	4	correct	1.39613278757315
74961	1	stim105_inanimate_clothing_hat_1.png	105	inanimate	clothing	hat	1	0	1	stars	4	correct	1.39613278757315
75161	1	stim002_animate_aquatic_crab_2.png	2	animate	aquatic	crab	2	0	1	stars	4	correct	1.39613278757315
75362	1	stim034_animate_bird_peacock_2.png	34	animate	bird	peacock	2	0	1	stars	4	correct	1.39613278757315
75561	1	stim128_inanimate_fruits_banana_4.png	128	inanimate	fruits	banana	4	0	1	stars	4	correct	1.39613278757315
75761	1	stim102_inanimate_clothing_gloves_2.png	102	inanimate	clothing	gloves	2	0	1	stars	4	correct	1.39613278757315
75962	1	stim077_animate_insect_grasshopper_1.png	77	animate	insect	grasshopper	1	0	1	stars	4	correct	1.39613278757315
76162	1	stim058_animate_human_sports_2.png	58	animate	human	sports	2	0	1	stars	4	correct	1.39613278757315
76362	1	stim047_animate_human_child_3.png	47	animate	human	child	3	0	1	stars	4	correct	1.39613278757315
76562	1	stim068_animate_insect_bug_4.png	68	animate	insect	bug	4	0	1	stars	4	correct	1.39613278757315
76762	1	stim185_inanimate_tools_hammer_1.png	185	inanimate	tools	hammer	1	0	1	stars	4	correct	1.39613278757315
76962	1	stim147_inanimate_furniture_chair_3.png	147	inanimate	furniture	chair	3	0	1	stars	4	correct	1.39613278757315
77162	1	stim020_animate_aquatic_shrimp_4.png	20	animate	aquatic	shrimp	4	0	1	stars	4	correct	1.39613278757315
77362	1	stim064_animate_insect_ant_4.png	64	animate	insect	ant	4	0	1	stars	4	correct	1.39613278757315
77562	1	stim193_inanimate_tools_scissors_1.png	193	inanimate	tools	scissors	1	0	1	stars	4	correct	1.39613278757315
77762	1	stim175_inanimate_plants_tree_3.png	175	inanimate	plants	tree	3	0	1	stars	4	correct	1.39613278757315
77962	1	stim076_animate_insect_dragonfly_4.png	76	animate	insect	dragonfly	4	0	1	stars	4	correct	1.39613278757315
78162	1	stim155_inanimate_furniture_sofa_3.png	155	inanimate	furniture	sofa	3	0	1	stars	4	correct	1.39613278757315
78362	1	stim065_animate_insect_bug_1.png	65	animate	insect	bug	1	0	1	stars	4	correct	1.39613278757315
78562	1	stim089_animate_mammal_kangaroo_1.png	89	animate	mammal	kangaroo	1	0	1	stars	4	correct	1.39613278757315
78762	1	stim121_inanimate_fruits_apple_1.png	121	inanimate	fruits	apple	1	0	1	stars	4	correct	1.39613278757315
78962	1	stim113_inanimate_clothing_shirt_1.png	113	inanimate	clothing	shirt	1	0	1	stars	4	correct	1.39613278757315
79162	1	stim183_inanimate_tools_broom_3.png	183	inanimate	tools	broom	3	0	1	stars	4	correct	1.39613278757315
79362	1	stim199_inanimate_tools_wrench_3.png	199	inanimate	tools	wrench	3	0	1	stars	4	correct	1.39613278757315
79562	1	stim021_animate_bird_chicken_1.png	21	animate	bird	chicken	1	0	1	stars	4	correct	1.39613278757315
79762	1	stim214_targets_shapes_star_2.png	214	targets	shapes	star	2	1	1	stars	4	correct	1.39613278757315
79962	1	stim088_animate_mammal_giraffe_4.png	88	animate	mammal	giraffe	4	0	1	stars	4	correct	1.39613278757315
80162	1	stim027_animate_bird_duck_3.png	27	animate	bird	duck	3	0	1	stars	4	correct	1.39613278757315
80362	1	stim043_animate_human_baby_3.png	43	animate	human	baby	3	0	1	stars	4	correct	1.39613278757315
80562	1	stim117_inanimate_clothing_socks_1.png	117	inanimate	clothing	socks	1	0	1	stars	4	correct	1.39613278757315
80762	1	stim144_inanimate_furniture_bed_4.png	144	inanimate	furniture	bed	4	0	1	stars	4	correct	1.39613278757315
80962	1	stim028_animate_bird_duck_4.png	28	animate	bird	duck	4	0	1	stars	4	correct	1.39613278757315
81162	1	stim080_animate_insect_grasshopper_4.png	80	animate	insect	grasshopper	4	0	1	stars	4	correct	1.39613278757315
81362	1	stim033_animate_bird_peacock_1.png	33	animate	bird	peacock	1	0	1	stars	4	correct	1.39613278757315
81562	1	stim198_inanimate_tools_wrench_2.png	198	inanimate	tools	wrench	2	0	1	stars	4	correct	1.39613278757315
81762	1	stim194_inanimate_tools_scissors_2.png	194	inanimate	tools	scissors	2	0	1	stars	4	correct	1.39613278757315
81962	1	stim098_animate_mammal_rhino_2.png	98	animate	mammal	rhino	2	0	1	stars	4	correct	1.39613278757315
82162	1	stim188_inanimate_tools_hammer_4.png	188	inanimate	tools	hammer	4	0	1	stars	4	correct	1.39613278757315
82362	1	stim042_animate_human_baby_2.png	42	animate	human	baby	2	0	1	stars	4	correct	1.39613278757315
82562	1	stim059_animate_human_sports_3.png	59	animate	human	sports	3	0	1	stars	4	correct	1.39613278757315
82762	1	stim171_inanimate_plants_sunflower_3.png	171	inanimate	plants	sunflower	3	0	1	stars	4	correct	1.39613278757315
82962	1	stim074_animate_insect_dragonfly_2.png	74	animate	insect	dragonfly	2	0	1	stars	4	correct	1.39613278757315
83162	1	stim026_animate_bird_duck_2.png	26	animate	bird	duck	2	0	1	stars	4	correct	1.39613278757315
83362	1	stim014_animate_aquatic_shark_2.png	14	animate	aquatic	shark	2	0	1	stars	4	correct	1.39613278757315
83562	1	stim007_animate_aquatic_fish_3.png	7	animate	aquatic	fish	3	0	1	stars	4	correct	1.39613278757315
83762	1	stim016_animate_aquatic_shark_4.png	16	animate	aquatic	shark	4	0	1	stars	4	correct	1.39613278757315
83962	1	stim049_animate_human_clown_1.png	49	animate	human	clown	1	0	1	stars	4	correct	1.39613278757315
84162	1	stim116_inanimate_clothing_shirt_4.png	116	inanimate	clothing	shirt	4	0	1	stars	4	correct	1.39613278757315
84362	1	stim160_inanimate_furniture_table_4.png	160	inanimate	furniture	table	4	0	1	stars	4	correct	1.39613278757315
84562	1	stim050_animate_human_clown_2.png	50	animate	human	clown	2	0	1	stars	4	correct	1.39613278757315
84762	1	stim123_inanimate_fruits_apple_3.png	123	inanimate	fruits	apple	3	0	1	stars	4	correct	1.39613278757315
84962	1	stim190_inanimate_tools_pan_2.png	190	inanimate	tools	pan	2	0	1	stars	4	correct	1.39613278757315
85162	1	stim086_animate_mammal_giraffe_2.png	86	animate	mammal	giraffe	2	0	1	stars	4	correct	1.39613278757315
85362	1	stim006_animate_aquatic_fish_2.png	6	animate	aquatic	fish	2	0	1	stars	4	correct	1.39613278757315
85562	1	stim122_inanimate_fruits_apple_2.png	122	inanimate	fruits	apple	2	0	1	stars	4	correct	1.39613278757315
85762	1	stim051_animate_human_clown_3.png	51	animate	human	clown	3	0	1	stars	4	correct	1.39613278757315
85962	1	stim009_animate_aquatic_seahorse_1.png	9	animate	aquatic	seahorse	1	0	1	stars	4	correct	1.39613278757315
86162	1	stim099_animate_mammal_rhino_3.png	99	animate	mammal	rhino	3	0	1	stars	4	correct	1.39613278757315
86362	1	stim071_animate_insect_butterfly_3.png	71	animate	insect	butterfly	3	0	1	stars	4	correct	1.39613278757315
86562	1	stim192_inanimate_tools_pan_4.png	192	inanimate	tools	pan	4	0	1	stars	4	correct	1.39613278757315
86762	1	stim162_inanimate_plants_bush_2.png	162	inanimate	plants	bush	2	0	1	stars	4	correct	1.39613278757315
86962	1	stim084_animate_mammal_cow_4.png	84	animate	mammal	cow	4	0	1	stars	4	correct	1.39613278757315
87162	1	stim130_inanimate_fruits_grape_2.png	130	inanimate	fruits	grape	2	0	1	stars	4	correct	1.39613278757315
87362	1	stim146_inanimate_furniture_chair_2.png	146	inanimate	furniture	chair	2	0	1	stars	4	correct	1.39613278757315
87562	1	stim114_inanimate_clothing_shirt_2.png	114	inanimate	clothing	shirt	2	0	1	stars	4	correct	1.39613278757315
87762	1	stim172_inanimate_plants_sunflower_4.png	172	inanimate	plants	sunflower	4	0	1	stars	4	correct	1.39613278757315
87962	1	stim135_inanimate_fruits_pineapple_3.png	135	inanimate	fruits	pineapple	3	0	1	stars	4	correct	1.39613278757315
88162	1	stim170_inanimate_plants_sunflower_2.png	170	inanimate	plants	sunflower	2	0	1	stars	4	correct	1.39613278757315
88362	1	stim125_inanimate_fruits_banana_1.png	125	inanimate	fruits	banana	1	0	1	stars	4	correct	1.39613278757315
88562	1	stim004_animate_aquatic_crab_4.png	4	animate	aquatic	crab	4	0	1	stars	4	correct	1.39613278757315
88762	1	stim079_animate_insect_grasshopper_3.png	79	animate	insect	grasshopper	3	0	1	stars	4	correct	1.39613278757315
88962	1	stim057_animate_human_sports_1.png	57	animate	human	sports	1	0	1	stars	4	correct	1.39613278757315
89162	1	stim030_animate_bird_parrot_2.png	30	animate	bird	parrot	2	0	1	stars	4	correct	1.39613278757315
89362	1	stim054_animate_human_faces_2.png	54	animate	human	faces	2	0	1	stars	4	correct	1.39613278757315
89562	1	stim040_animate_bird_penguin_4.png	40	animate	bird	penguin	4	0	1	stars	4	correct	1.39613278757315
89762	1	stim167_inanimate_plants_cactus_3.png	167	inanimate	plants	cactus	3	0	1	stars	4	correct	1.39613278757315
89962	1	stim011_animate_aquatic_seahorse_3.png	11	animate	aquatic	seahorse	3	0	1	stars	4	correct	1.39613278757315
90162	1	stim177_inanimate_plants_tulip_1.png	177	inanimate	plants	tulip	1	0	1	stars	4	correct	1.39613278757315
90362	1	stim173_inanimate_plants_tree_1.png	173	inanimate	plants	tree	1	0	1	stars	4	correct	1.39613278757315
90562	1	stim090_animate_mammal_kangaroo_2.png	90	animate	mammal	kangaroo	2	0	1	stars	4	correct	1.39613278757315
90762	1	stim191_inanimate_tools_pan_3.png	191	inanimate	tools	pan	3	0	1	stars	4	correct	1.39613278757315
105045	1	stim056_animate_human_faces_4.png	56	animate	human	faces	4	0	2	boats	1	incorrect	1.23589006031398
105245	1	stim106_inanimate_clothing_hat_2.png	106	inanimate	clothing	hat	2	0	2	boats	1	incorrect	1.23589006031398
105446	1	stim102_inanimate_clothing_gloves_2.png	102	inanimate	clothing	gloves	2	0	2	boats	1	incorrect	1.23589006031398
105646	1	stim076_animate_insect_dragonfly_4.png	76	animate	insect	dragonfly	4	0	2	boats	1	incorrect	1.23589006031398
105845	1	stim170_inanimate_plants_sunflower_2.png	170	inanimate	plants	sunflower	2	0	2	boats	1	incorrect	1.23589006031398
106046	1	stim127_inanimate_fruits_banana_3.png	127	inanimate	fruits	banana	3	0	2	boats	1	incorrect	1.23589006031398
106246	1	stim100_animate_mammal_rhino_4.png	100	animate	mammal	rhino	4	0	2	boats	1	incorrect	1.23589006031398
106446	1	stim024_animate_bird_chicken_4.png	24	animate	bird	chicken	4	0	2	boats	1	incorrect	1.23589006031398
106646	1	stim013_animate_aquatic_shark_1.png	13	animate	aquatic	shark	1	0	2	boats	1	incorrect	1.23589006031398
106846	1	stim190_inanimate_tools_pan_2.png	190	inanimate	tools	pan	2	0	2	boats	1	incorrect	1.23589006031398
107046	1	stim069_animate_insect_butterfly_1.png	69	animate	insect	butterfly	1	0	2	boats	1	incorrect	1.23589006031398
107246	1	stim026_animate_bird_duck_2.png	26	animate	bird	duck	2	0	2	boats	1	incorrect	1.23589006031398
107446	1	stim150_inanimate_furniture_closet_2.png	150	inanimate	furniture	closet	2	0	2	boats	1	incorrect	1.23589006031398
107646	1	stim088_animate_mammal_giraffe_4.png	88	animate	mammal	giraffe	4	0	2	boats	1	incorrect	1.23589006031398
107846	1	stim129_inanimate_fruits_grape_1.png	129	inanimate	fruits	grape	1	0	2	boats	1	incorrect	1.23589006031398
108046	1	stim068_animate_insect_bug_4.png	68	animate	insect	bug	4	0	2	boats	1	incorrect	1.23589006031398
108246	1	stim103_inanimate_clothing_gloves_3.png	103	inanimate	clothing	gloves	3	0	2	boats	1	incorrect	1.23589006031398
108446	1	stim139_inanimate_fruits_strawberry_3.png	139	inanimate	fruits	strawberry	3	0	2	boats	1	incorrect	1.23589006031398
108646	1	stim183_inanimate_tools_broom_3.png	183	inanimate	tools	broom	3	0	2	boats	1	incorrect	1.23589006031398
108846	1	stim003_animate_aquatic_crab_3.png	3	animate	aquatic	crab	3	0	2	boats	1	incorrect	1.23589006031398
109046	1	stim001_animate_aquatic_crab_1.png	1	animate	aquatic	crab	1	0	2	boats	1	incorrect	1.23589006031398
109246	1	stim159_inanimate_furniture_table_3.png	159	inanimate	furniture	table	3	0	2	boats	1	incorrect	1.23589006031398
109446	1	stim048_animate_human_child_4.png	48	animate	human	child	4	0	2	boats	1	incorrect	1.23589006031398
109646	1	stim098_animate_mammal_rhino_2.png	98	animate	mammal	rhino	2	0	2	boats	1	incorrect	1.23589006031398
109846	1	stim133_inanimate_fruits_pineapple_1.png	133	inanimate	fruits	pineapple	1	0	2	boats	1	incorrect	1.23589006031398
110046	1	stim046_animate_human_child_2.png	46	animate	human	child	2	0	2	boats	1	incorrect	1.23589006031398
110246	1	stim176_inanimate_plants_tree_4.png	176	inanimate	plants	tree	4	0	2	boats	1	incorrect	1.23589006031398
110446	1	stim136_inanimate_fruits_pineapple_4.png	136	inanimate	fruits	pineapple	4	0	2	boats	1	incorrect	1.23589006031398
110646	1	stim071_animate_insect_butterfly_3.png	71	animate	insect	butterfly	3	0	2	boats	1	incorrect	1.23589006031398
110846	1	stim131_inanimate_fruits_grape_3.png	131	inanimate	fruits	grape	3	0	2	boats	1	incorrect	1.23589006031398
111046	1	stim022_animate_bird_chicken_2.png	22	animate	bird	chicken	2	0	2	boats	1	incorrect	1.23589006031398
111246	1	stim165_inanimate_plants_cactus_1.png	165	inanimate	plants	cactus	1	0	2	boats	1	incorrect	1.23589006031398
111446	1	stim166_inanimate_plants_cactus_2.png	166	inanimate	plants	cactus	2	0	2	boats	1	incorrect	1.23589006031398
111646	1	stim097_animate_mammal_rhino_1.png	97	animate	mammal	rhino	1	0	2	boats	1	incorrect	1.23589006031398
111846	1	stim044_animate_human_baby_4.png	44	animate	human	baby	4	0	2	boats	1	incorrect	1.23589006031398
112046	1	stim158_inanimate_furniture_table_2.png	158	inanimate	furniture	table	2	0	2	boats	1	incorrect	1.23589006031398
112246	1	stim004_animate_aquatic_crab_4.png	4	animate	aquatic	crab	4	0	2	boats	1	incorrect	1.23589006031398
112446	1	stim186_inanimate_tools_hammer_2.png	186	inanimate	tools	hammer	2	0	2	boats	1	incorrect	1.23589006031398
112646	1	stim027_animate_bird_duck_3.png	27	animate	bird	duck	3	0	2	boats	1	incorrect	1.23589006031398
112846	1	stim060_animate_human_sports_4.png	60	animate	human	sports	4	0	2	boats	1	incorrect	1.23589006031398
113046	1	stim195_inanimate_tools_scissors_3.png	195	inanimate	tools	scissors	3	0	2	boats	1	incorrect	1.23589006031398
113246	1	stim122_inanimate_fruits_apple_2.png	122	inanimate	fruits	apple	2	0	2	boats	1	incorrect	1.23589006031398
113446	1	stim016_animate_aquatic_shark_4.png	16	animate	aquatic	shark	4	0	2	boats	1	incorrect	1.23589006031398
113646	1	stim197_inanimate_tools_wrench_1.png	197	inanimate	tools	wrench	1	0	2	boats	1	incorrect	1.23589006031398
113846	1	stim125_inanimate_fruits_banana_1.png	125	inanimate	fruits	banana	1	0	2	boats	1	incorrect	1.23589006031398
114046	1	stim163_inanimate_plants_bush_3.png	163	inanimate	plants	bush	3	0	2	boats	1	incorrect	1.23589006031398
114246	1	stim015_animate_aquatic_shark_3.png	15	animate	aquatic	shark	3	0	2	boats	1	incorrect	1.23589006031398
114446	1	stim009_animate_aquatic_seahorse_1.png	9	animate	aquatic	seahorse	1	0	2	boats	1	incorrect	1.23589006031398
114646	1	stim138_inanimate_fruits_strawberry_2.png	138	inanimate	fruits	strawberry	2	0	2	boats	1	incorrect	1.23589006031398
114846	1	stim111_inanimate_clothing_jeans_3.png	111	inanimate	clothing	jeans	3	0	2	boats	1	incorrect	1.23589006031398
115046	1	stim143_inanimate_furniture_bed_3.png	143	inanimate	furniture	bed	3	0	2	boats	1	incorrect	1.23589006031398
115246	1	stim112_inanimate_clothing_jeans_4.png	112	inanimate	clothing	jeans	4	0	2	boats	1	incorrect	1.23589006031398
115446	1	stim198_inanimate_tools_wrench_2.png	198	inanimate	tools	wrench	2	0	2	boats	1	incorrect	1.23589006031398
115646	1	stim084_animate_mammal_cow_4.png	84	animate	mammal	cow	4	0	2	boats	1	incorrect	1.23589006031398
115846	1	stim137_inanimate_fruits_strawberry_1.png	137	inanimate	fruits	strawberry	1	0	2	boats	1	incorrect	1.23589006031398
116046	1	stim173_inanimate_plants_tree_1.png	173	inanimate	plants	tree	1	0	2	boats	1	incorrect	1.23589006031398
116246	1	stim116_inanimate_clothing_shirt_4.png	116	inanimate	clothing	shirt	4	0	2	boats	1	incorrect	1.23589006031398
116446	1	stim135_inanimate_fruits_pineapple_3.png	135	inanimate	fruits	pineapple	3	0	2	boats	1	incorrect	1.23589006031398
116646	1	stim075_animate_insect_dragonfly_3.png	75	animate	insect	dragonfly	3	0	2	boats	1	incorrect	1.23589006031398
116846	1	stim085_animate_mammal_giraffe_1.png	85	animate	mammal	giraffe	1	0	2	boats	1	incorrect	1.23589006031398
117046	1	stim031_animate_bird_parrot_3.png	31	animate	bird	parrot	3	0	2	boats	1	incorrect	1.23589006031398
117246	1	stim080_animate_insect_grasshopper_4.png	80	animate	insect	grasshopper	4	0	2	boats	1	incorrect	1.23589006031398
117446	1	stim033_animate_bird_peacock_1.png	33	animate	bird	peacock	1	0	2	boats	1	incorrect	1.23589006031398
117646	1	stim035_animate_bird_peacock_3.png	35	animate	bird	peacock	3	0	2	boats	1	incorrect	1.23589006031398
117846	1	stim083_animate_mammal_cow_3.png	83	animate	mammal	cow	3	0	2	boats	1	incorrect	1.23589006031398
118046	1	stim115_inanimate_clothing_shirt_3.png	115	inanimate	clothing	shirt	3	0	2	boats	1	incorrect	1.23589006031398
118246	1	stim155_inanimate_furniture_sofa_3.png	155	inanimate	furniture	sofa	3	0	2	boats	1	incorrect	1.23589006031398
118446	1	stim167_inanimate_plants_cactus_3.png	167	inanimate	plants	cactus	3	0	2	boats	1	incorrect	1.23589006031398
118646	1	stim049_animate_human_clown_1.png	49	animate	human	clown	1	0	2	boats	1	incorrect	1.23589006031398
118846	1	stim058_animate_human_sports_2.png	58	animate	human	sports	2	0	2	boats	1	incorrect	1.23589006031398
119046	1	stim043_animate_human_baby_3.png	43	animate	human	baby	3	0	2	boats	1	incorrect	1.23589006031398
119246	1	stim160_inanimate_furniture_table_4.png	160	inanimate	furniture	table	4	0	2	boats	1	incorrect	1.23589006031398
119446	1	stim188_inanimate_tools_hammer_4.png	188	inanimate	tools	hammer	4	0	2	boats	1	incorrect	1.23589006031398
119646	1	stim057_animate_human_sports_1.png	57	animate	human	sports	1	0	2	boats	1	incorrect	1.23589006031398
119846	1	stim178_inanimate_plants_tulip_2.png	178	inanimate	plants	tulip	2	0	2	boats	1	incorrect	1.23589006031398
120046	1	stim094_animate_mammal_monkey_2.png	94	animate	mammal	monkey	2	0	2	boats	1	incorrect	1.23589006031398
120246	1	stim011_animate_aquatic_seahorse_3.png	11	animate	aquatic	seahorse	3	0	2	boats	1	incorrect	1.23589006031398
120446	1	stim095_animate_mammal_monkey_3.png	95	animate	mammal	monkey	3	0	2	boats	1	incorrect	1.23589006031398
120646	1	stim204_targets_object_boats_4.png	204	targets	object	boats	4	1	2	boats	1	incorrect	1.23589006031398
120846	1	stim126_inanimate_fruits_banana_2.png	126	inanimate	fruits	banana	2	0	2	boats	1	incorrect	1.23589006031398
121046	1	stim074_animate_insect_dragonfly_2.png	74	animate	insect	dragonfly	2	0	2	boats	1	incorrect	1.23589006031398
121246	1	stim029_animate_bird_parrot_1.png	29	animate	bird	parrot	1	0	2	boats	1	incorrect	1.23589006031398
121446	1	stim117_inanimate_clothing_socks_1.png	117	inanimate	clothing	socks	1	0	2	boats	1	incorrect	1.23589006031398
121646	1	stim119_inanimate_clothing_socks_3.png	119	inanimate	clothing	socks	3	0	2	boats	1	incorrect	1.23589006031398
121846	1	stim147_inanimate_furniture_chair_3.png	147	inanimate	furniture	chair	3	0	2	boats	1	incorrect	1.23589006031398
122046	1	stim091_animate_mammal_kangaroo_3.png	91	animate	mammal	kangaroo	3	0	2	boats	1	incorrect	1.23589006031398
122246	1	stim123_inanimate_fruits_apple_3.png	123	inanimate	fruits	apple	3	0	2	boats	1	incorrect	1.23589006031398
122446	1	stim164_inanimate_plants_bush_4.png	164	inanimate	plants	bush	4	0	2	boats	1	incorrect	1.23589006031398
122646	1	stim156_inanimate_furniture_sofa_4.png	156	inanimate	furniture	sofa	4	0	2	boats	1	incorrect	1.23589006031398
122846	1	stim079_animate_insect_grasshopper_3.png	79	animate	insect	grasshopper	3	0	2	boats	1	incorrect	1.23589006031398
123046	1	stim063_animate_insect_ant_3.png	63	animate	insect	ant	3	0	2	boats	1	incorrect	1.23589006031398
123246	1	stim187_inanimate_tools_hammer_3.png	187	inanimate	tools	hammer	3	0	2	boats	1	incorrect	1.23589006031398
123446	1	stim006_animate_aquatic_fish_2.png	6	animate	aquatic	fish	2	0	2	boats	1	incorrect	1.23589006031398
123646	1	stim020_animate_aquatic_shrimp_4.png	20	animate	aquatic	shrimp	4	0	2	boats	1	incorrect	1.23589006031398
123846	1	stim101_inanimate_clothing_gloves_1.png	101	inanimate	clothing	gloves	1	0	2	boats	1	incorrect	1.23589006031398
124046	1	stim146_inanimate_furniture_chair_2.png	146	inanimate	furniture	chair	2	0	2	boats	1	incorrect	1.23589006031398
124246	1	stim114_inanimate_clothing_shirt_2.png	114	inanimate	clothing	shirt	2	0	2	boats	1	incorrect	1.23589006031398
124446	1	stim171_inanimate_plants_sunflower_3.png	171	inanimate	plants	sunflower	3	0	2	boats	1	incorrect	1.23589006031398
124646	1	stim086_animate_mammal_giraffe_2.png	86	animate	mammal	giraffe	2	0	2	boats	1	incorrect	1.23589006031398
124846	1	stim105_inanimate_clothing_hat_1.png	105	inanimate	clothing	hat	1	0	2	boats	1	incorrect	1.23589006031398
125046	1	stim120_inanimate_clothing_socks_4.png	120	inanimate	clothing	socks	4	0	2	boats	1	incorrect	1.23589006031398
125246	1	stim061_animate_insect_ant_1.png	61	animate	insect	ant	1	0	2	boats	1	incorrect	1.23589006031398
125446	1	stim034_animate_bird_peacock_2.png	34	animate	bird	peacock	2	0	2	boats	1	incorrect	1.23589006031398
125646	1	stim055_animate_human_faces_3.png	55	animate	human	faces	3	0	2	boats	1	incorrect	1.23589006031398
125846	1	stim092_animate_mammal_kangaroo_4.png	92	animate	mammal	kangaroo	4	0	2	boats	1	incorrect	1.23589006031398
126046	1	stim108_inanimate_clothing_hat_4.png	108	inanimate	clothing	hat	4	0	2	boats	1	incorrect	1.23589006031398
126246	1	stim174_inanimate_plants_tree_2.png	174	inanimate	plants	tree	2	0	2	boats	1	incorrect	1.23589006031398
126446	1	stim118_inanimate_clothing_socks_2.png	118	inanimate	clothing	socks	2	0	2	boats	1	incorrect	1.23589006031398
126646	1	stim193_inanimate_tools_scissors_1.png	193	inanimate	tools	scissors	1	0	2	boats	1	incorrect	1.23589006031398
126846	1	stim181_inanimate_tools_broom_1.png	181	inanimate	tools	broom	1	0	2	boats	1	incorrect	1.23589006031398
127046	1	stim052_animate_human_clown_4.png	52	animate	human	clown	4	0	2	boats	1	incorrect	1.23589006031398
127246	1	stim008_animate_aquatic_fish_4.png	8	animate	aquatic	fish	4	0	2	boats	1	incorrect	1.23589006031398
127446	1	stim151_inanimate_furniture_closet_3.png	151	inanimate	furniture	closet	3	0	2	boats	1	incorrect	1.23589006031398
127646	1	stim062_animate_insect_ant_2.png	62	animate	insect	ant	2	0	2	boats	1	incorrect	1.23589006031398
127846	1	stim194_inanimate_tools_scissors_2.png	194	inanimate	tools	scissors	2	0	2	boats	1	incorrect	1.23589006031398
128046	1	stim132_inanimate_fruits_grape_4.png	132	inanimate	fruits	grape	4	0	2	boats	1	incorrect	1.23589006031398
128246	1	stim109_inanimate_clothing_jeans_1.png	109	inanimate	clothing	jeans	1	0	2	boats	1	incorrect	1.23589006031398
128446	1	stim134_inanimate_fruits_pineapple_2.png	134	inanimate	fruits	pineapple	2	0	2	boats	1	incorrect	1.23589006031398
128646	1	stim157_inanimate_furniture_table_1.png	157	inanimate	furniture	table	1	0	2	boats	1	incorrect	1.23589006031398
128846	1	stim161_inanimate_plants_bush_1.png	161	inanimate	plants	bush	1	0	2	boats	1	incorrect	1.23589006031398
129046	1	stim203_targets_object_boats_3.png	203	targets	object	boats	3	1	2	boats	1	incorrect	1.23589006031398
129246	1	stim121_inanimate_fruits_apple_1.png	121	inanimate	fruits	apple	1	0	2	boats	1	incorrect	1.23589006031398
129446	1	stim172_inanimate_plants_sunflower_4.png	172	inanimate	plants	sunflower	4	0	2	boats	1	incorrect	1.23589006031398
129646	1	stim053_animate_human_faces_1.png	53	animate	human	faces	1	0	2	boats	1	incorrect	1.23589006031398
129846	1	stim038_animate_bird_penguin_2.png	38	animate	bird	penguin	2	0	2	boats	1	incorrect	1.23589006031398
130046	1	stim072_animate_insect_butterfly_4.png	72	animate	insect	butterfly	4	0	2	boats	1	incorrect	1.23589006031398
130246	1	stim023_animate_bird_chicken_3.png	23	animate	bird	chicken	3	0	2	boats	1	incorrect	1.23589006031398
130446	1	stim064_animate_insect_ant_4.png	64	animate	insect	ant	4	0	2	boats	1	incorrect	1.23589006031398
130646	1	stim070_animate_insect_butterfly_2.png	70	animate	insect	butterfly	2	0	2	boats	1	incorrect	1.23589006031398
130846	1	stim041_animate_human_baby_1.png	41	animate	human	baby	1	0	2	boats	1	incorrect	1.23589006031398
131046	1	stim142_inanimate_furniture_bed_2.png	142	inanimate	furniture	bed	2	0	2	boats	1	incorrect	1.23589006031398
131246	1	stim113_inanimate_clothing_shirt_1.png	113	inanimate	clothing	shirt	1	0	2	boats	1	incorrect	1.23589006031398
131446	1	stim154_inanimate_furniture_sofa_2.png	154	inanimate	furniture	sofa	2	0	2	boats	1	incorrect	1.23589006031398
131646	1	stim012_animate_aquatic_seahorse_4.png	12	animate	aquatic	seahorse	4	0	2	boats	1	incorrect	1.23589006031398
131846	1	stim153_inanimate_furniture_sofa_1.png	153	inanimate	furniture	sofa	1	0	2	boats	1	incorrect	1.23589006031398
132046	1	stim010_animate_aquatic_seahorse_2.png	10	animate	aquatic	seahorse	2	0	2	boats	1	incorrect	1.23589006031398
132246	1	stim051_animate_human_clown_3.png	51	animate	human	clown	3	0	2	boats	1	incorrect	1.23589006031398
132446	1	stim182_inanimate_tools_broom_2.png	182	inanimate	tools	broom	2	0	2	boats	1	incorrect	1.23589006031398
132646	1	stim077_animate_insect_grasshopper_1.png	77	animate	insect	grasshopper	1	0	2	boats	1	incorrect	1.23589006031398
132846	1	stim130_inanimate_fruits_grape_2.png	130	inanimate	fruits	grape	2	0	2	boats	1	incorrect	1.23589006031398
133046	1	stim149_inanimate_furniture_closet_1.png	149	inanimate	furniture	closet	1	0	2	boats	1	incorrect	1.23589006031398
133246	1	stim096_animate_mammal_monkey_4.png	96	animate	mammal	monkey	4	0	2	boats	1	incorrect	1.23589006031398
133446	1	stim168_inanimate_plants_cactus_4.png	168	inanimate	plants	cactus	4	0	2	boats	1	incorrect	1.23589006031398
133646	1	stim148_inanimate_furniture_chair_4.png	148	inanimate	furniture	chair	4	0	2	boats	1	incorrect	1.23589006031398
133846	1	stim082_animate_mammal_cow_2.png	82	animate	mammal	cow	2	0	2	boats	1	incorrect	1.23589006031398
134046	1	stim036_animate_bird_peacock_4.png	36	animate	bird	peacock	4	0	2	boats	1	incorrect	1.23589006031398
134246	1	stim054_animate_human_faces_2.png	54	animate	human	faces	2	0	2	boats	1	incorrect	1.23589006031398
134446	1	stim128_inanimate_fruits_banana_4.png	128	inanimate	fruits	banana	4	0	2	boats	1	incorrect	1.23589006031398
134646	1	stim050_animate_human_clown_2.png	50	animate	human	clown	2	0	2	boats	1	incorrect	1.23589006031398
134846	1	stim169_inanimate_plants_sunflower_1.png	169	inanimate	plants	sunflower	1	0	2	boats	1	incorrect	1.23589006031398
135046	1	stim021_animate_bird_chicken_1.png	21	animate	bird	chicken	1	0	2	boats	1	incorrect	1.23589006031398
135246	1	stim019_animate_aquatic_shrimp_3.png	19	animate	aquatic	shrimp	3	0	2	boats	1	incorrect	1.23589006031398
135446	1	stim059_animate_human_sports_3.png	59	animate	human	sports	3	0	2	boats	1	incorrect	1.23589006031398
135646	1	stim028_animate_bird_duck_4.png	28	animate	bird	duck	4	0	2	boats	1	incorrect	1.23589006031398
135846	1	stim087_animate_mammal_giraffe_3.png	87	animate	mammal	giraffe	3	0	2	boats	1	incorrect	1.23589006031398
136046	1	stim066_animate_insect_bug_2.png	66	animate	insect	bug	2	0	2	boats	1	incorrect	1.23589006031398
136246	1	stim032_animate_bird_parrot_4.png	32	animate	bird	parrot	4	0	2	boats	1	incorrect	1.23589006031398
136446	1	stim067_animate_insect_bug_3.png	67	animate	insect	bug	3	0	2	boats	1	incorrect	1.23589006031398
136646	1	stim162_inanimate_plants_bush_2.png	162	inanimate	plants	bush	2	0	2	boats	1	incorrect	1.23589006031398
136846	1	stim177_inanimate_plants_tulip_1.png	177	inanimate	plants	tulip	1	0	2	boats	1	incorrect	1.23589006031398
137046	1	stim199_inanimate_tools_wrench_3.png	199	inanimate	tools	wrench	3	0	2	boats	1	incorrect	1.23589006031398
137246	1	stim090_animate_mammal_kangaroo_2.png	90	animate	mammal	kangaroo	2	0	2	boats	1	incorrect	1.23589006031398
137446	1	stim104_inanimate_clothing_gloves_4.png	104	inanimate	clothing	gloves	4	0	2	boats	1	incorrect	1.23589006031398
137646	1	stim200_inanimate_tools_wrench_4.png	200	inanimate	tools	wrench	4	0	2	boats	1	incorrect	1.23589006031398
137846	1	stim081_animate_mammal_cow_1.png	81	animate	mammal	cow	1	0	2	boats	1	incorrect	1.23589006031398
138046	1	stim014_animate_aquatic_shark_2.png	14	animate	aquatic	shark	2	0	2	boats	1	incorrect	1.23589006031398
138246	1	stim073_animate_insect_dragonfly_1.png	73	animate	insect	dragonfly	1	0	2	boats	1	incorrect	1.23589006031398
138446	1	stim007_animate_aquatic_fish_3.png	7	animate	aquatic	fish	3	0	2	boats	1	incorrect	1.23589006031398
138646	1	stim040_animate_bird_penguin_4.png	40	animate	bird	penguin	4	0	2	boats	1	incorrect	1.23589006031398
138846	1	stim179_inanimate_plants_tulip_3.png	179	inanimate	plants	tulip	3	0	2	boats	1	incorrect	1.23589006031398
139046	1	stim152_inanimate_furniture_closet_4.png	152	inanimate	furniture	closet	4	0	2	boats	1	incorrect	1.23589006031398
139246	1	stim017_animate_aquatic_shrimp_1.png	17	animate	aquatic	shrimp	1	0	2	boats	1	incorrect	1.23589006031398
139446	1	stim042_animate_human_baby_2.png	42	animate	human	baby	2	0	2	boats	1	incorrect	1.23589006031398
139646	1	stim045_animate_human_child_1.png	45	animate	human	child	1	0	2	boats	1	incorrect	1.23589006031398
139846	1	stim110_inanimate_clothing_jeans_2.png	110	inanimate	clothing	jeans	2	0	2	boats	1	incorrect	1.23589006031398
140046	1	stim180_inanimate_plants_tulip_4.png	180	inanimate	plants	tulip	4	0	2	boats	1	incorrect	1.23589006031398
140246	1	stim099_animate_mammal_rhino_3.png	99	animate	mammal	rhino	3	0	2	boats	1	incorrect	1.23589006031398
140446	1	stim065_animate_insect_bug_1.png	65	animate	insect	bug	1	0	2	boats	1	incorrect	1.23589006031398
140646	1	stim005_animate_aquatic_fish_1.png	5	animate	aquatic	fish	1	0	2	boats	1	incorrect	1.23589006031398
140846	1	stim025_animate_bird_duck_1.png	25	animate	bird	duck	1	0	2	boats	1	incorrect	1.23589006031398
141046	1	stim144_inanimate_furniture_bed_4.png	144	inanimate	furniture	bed	4	0	2	boats	1	incorrect	1.23589006031398
141246	1	stim093_animate_mammal_monkey_1.png	93	animate	mammal	monkey	1	0	2	boats	1	incorrect	1.23589006031398
141446	1	stim175_inanimate_plants_tree_3.png	175	inanimate	plants	tree	3	0	2	boats	1	incorrect	1.23589006031398
141646	1	stim078_animate_insect_grasshopper_2.png	78	animate	insect	grasshopper	2	0	2	boats	1	incorrect	1.23589006031398
141846	1	stim107_inanimate_clothing_hat_3.png	107	inanimate	clothing	hat	3	0	2	boats	1	incorrect	1.23589006031398
142046	1	stim141_inanimate_furniture_bed_1.png	141	inanimate	furniture	bed	1	0	2	boats	1	incorrect	1.23589006031398
142246	1	stim196_inanimate_tools_scissors_4.png	196	inanimate	tools	scissors	4	0	2	boats	1	incorrect	1.23589006031398
142446	1	stim037_animate_bird_penguin_1.png	37	animate	bird	penguin	1	0	2	boats	1	incorrect	1.23589006031398
142646	1	stim089_animate_mammal_kangaroo_1.png	89	animate	mammal	kangaroo	1	0	2	boats	1	incorrect	1.23589006031398
142846	1	stim185_inanimate_tools_hammer_1.png	185	inanimate	tools	hammer	1	0	2	boats	1	incorrect	1.23589006031398
143046	1	stim030_animate_bird_parrot_2.png	30	animate	bird	parrot	2	0	2	boats	1	incorrect	1.23589006031398
143246	1	stim184_inanimate_tools_broom_4.png	184	inanimate	tools	broom	4	0	2	boats	1	incorrect	1.23589006031398
143446	1	stim124_inanimate_fruits_apple_4.png	124	inanimate	fruits	apple	4	0	2	boats	1	incorrect	1.23589006031398
143646	1	stim192_inanimate_tools_pan_4.png	192	inanimate	tools	pan	4	0	2	boats	1	incorrect	1.23589006031398
143846	1	stim039_animate_bird_penguin_3.png	39	animate	bird	penguin	3	0	2	boats	1	incorrect	1.23589006031398
144046	1	stim140_inanimate_fruits_strawberry_4.png	140	inanimate	fruits	strawberry	4	0	2	boats	1	incorrect	1.23589006031398
144246	1	stim189_inanimate_tools_pan_1.png	189	inanimate	tools	pan	1	0	2	boats	1	incorrect	1.23589006031398
144446	1	stim191_inanimate_tools_pan_3.png	191	inanimate	tools	pan	3	0	2	boats	1	incorrect	1.23589006031398
144646	1	stim047_animate_human_child_3.png	47	animate	human	child	3	0	2	boats	1	incorrect	1.23589006031398
144846	1	stim002_animate_aquatic_crab_2.png	2	animate	aquatic	crab	2	0	2	boats	1	incorrect	1.23589006031398
145046	1	stim145_inanimate_furniture_chair_1.png	145	inanimate	furniture	chair	1	0	2	boats	1	incorrect	1.23589006031398
145246	1	stim018_animate_aquatic_shrimp_2.png	18	animate	aquatic	shrimp	2	0	2	boats	1	incorrect	1.23589006031398
154330	1	stim140_inanimate_fruits_strawberry_4.png	140	inanimate	fruits	strawberry	4	0	3	stars	1	correct	1.56857648515143
154530	1	stim048_animate_human_child_4.png	48	animate	human	child	4	0	3	stars	1	correct	1.56857648515143
154730	1	stim109_inanimate_clothing_jeans_1.png	109	inanimate	clothing	jeans	1	0	3	stars	1	correct	1.56857648515143
154930	1	stim051_animate_human_clown_3.png	51	animate	human	clown	3	0	3	stars	1	correct	1.56857648515143
155130	1	stim187_inanimate_tools_hammer_3.png	187	inanimate	tools	hammer	3	0	3	stars	1	correct	1.56857648515143
155330	1	stim158_inanimate_furniture_table_2.png	158	inanimate	furniture	table	2	0	3	stars	1	correct	1.56857648515143
155530	1	stim008_animate_aquatic_fish_4.png	8	animate	aquatic	fish	4	0	3	stars	1	correct	1.56857648515143
155730	1	stim171_inanimate_plants_sunflower_3.png	171	inanimate	plants	sunflower	3	0	3	stars	1	correct	1.56857648515143
155930	1	stim060_animate_human_sports_4.png	60	animate	human	sports	4	0	3	stars	1	correct	1.56857648515143
156130	1	stim130_inanimate_fruits_grape_2.png	130	inanimate	fruits	grape	2	0	3	stars	1	correct	1.56857648515143
156330	1	stim046_animate_human_child_2.png	46	animate	human	child	2	0	3	stars	1	correct	1.56857648515143
156530	1	stim142_inanimate_furniture_bed_2.png	142	inanimate	furniture	bed	2	0	3	stars	1	correct	1.56857648515143
156730	1	stim027_animate_bird_duck_3.png	27	animate	bird	duck	3	0	3	stars	1	correct	1.56857648515143
156930	1	stim169_inanimate_plants_sunflower_1.png	169	inanimate	plants	sunflower	1	0	3	stars	1	correct	1.56857648515143
157130	1	stim167_inanimate_plants_cactus_3.png	167	inanimate	plants	cactus	3	0	3	stars	1	correct	1.56857648515143
157330	1	stim157_inanimate_furniture_table_1.png	157	inanimate	furniture	table	1	0	3	stars	1	correct	1.56857648515143
157530	1	stim015_animate_aquatic_shark_3.png	15	animate	aquatic	shark	3	0	3	stars	1	correct	1.56857648515143
157730	1	stim101_inanimate_clothing_gloves_1.png	101	inanimate	clothing	gloves	1	0	3	stars	1	correct	1.56857648515143
157930	1	stim199_inanimate_tools_wrench_3.png	199	inanimate	tools	wrench	3	0	3	stars	1	correct	1.56857648515143
158130	1	stim131_inanimate_fruits_grape_3.png	131	inanimate	fruits	grape	3	0	3	stars	1	correct	1.56857648515143
158330	1	stim144_inanimate_furniture_bed_4.png	144	inanimate	furniture	bed	4	0	3	stars	1	correct	1.56857648515143
158530	1	stim126_inanimate_fruits_banana_2.png	126	inanimate	fruits	banana	2	0	3	stars	1	correct	1.56857648515143
158730	1	stim194_inanimate_tools_scissors_2.png	194	inanimate	tools	scissors	2	0	3	stars	1	correct	1.56857648515143
158930	1	stim011_animate_aquatic_seahorse_3.png	11	animate	aquatic	seahorse	3	0	3	stars	1	correct	1.56857648515143
159130	1	stim149_inanimate_furniture_closet_1.png	149	inanimate	furniture	closet	1	0	3	stars	1	correct	1.56857648515143
159330	1	stim143_inanimate_furniture_bed_3.png	143	inanimate	furniture	bed	3	0	3	stars	1	correct	1.56857648515143
159530	1	stim080_animate_insect_grasshopper_4.png	80	animate	insect	grasshopper	4	0	3	stars	1	correct	1.56857648515143
159730	1	stim093_animate_mammal_monkey_1.png	93	animate	mammal	monkey	1	0	3	stars	1	correct	1.56857648515143
159930	1	stim121_inanimate_fruits_apple_1.png	121	inanimate	fruits	apple	1	0	3	stars	1	correct	1.56857648515143
160130	1	stim110_inanimate_clothing_jeans_2.png	110	inanimate	clothing	jeans	2	0	3	stars	1	correct	1.56857648515143
160330	1	stim123_inanimate_fruits_apple_3.png	123	inanimate	fruits	apple	3	0	3	stars	1	correct	1.56857648515143
160530	1	stim070_animate_insect_butterfly_2.png	70	animate	insect	butterfly	2	0	3	stars	1	correct	1.56857648515143
160730	1	stim001_animate_aquatic_crab_1.png	1	animate	aquatic	crab	1	0	3	stars	1	correct	1.56857648515143
160930	1	stim018_animate_aquatic_shrimp_2.png	18	animate	aquatic	shrimp	2	0	3	stars	1	correct	1.56857648515143
161130	1	stim019_animate_aquatic_shrimp_3.png	19	animate	aquatic	shrimp	3	0	3	stars	1	correct	1.56857648515143
161330	1	stim054_animate_human_faces_2.png	54	animate	human	faces	2	0	3	stars	1	correct	1.56857648515143
161530	1	stim014_animate_aquatic_shark_2.png	14	animate	aquatic	shark	2	0	3	stars	1	correct	1.56857648515143
161730	1	stim119_inanimate_clothing_socks_3.png	119	inanimate	clothing	socks	3	0	3	stars	1	correct	1.56857648515143
161930	1	stim075_animate_insect_dragonfly_3.png	75	animate	insect	dragonfly	3	0	3	stars	1	correct	1.56857648515143
162130	1	stim193_inanimate_tools_scissors_1.png	193	inanimate	tools	scissors	1	0	3	stars	1	correct	1.56857648515143
162330	1	stim188_inanimate_tools_hammer_4.png	188	inanimate	tools	hammer	4	0	3	stars	1	correct	1.56857648515143
162530	1	stim009_animate_aquatic_seahorse_1.png	9	animate	aquatic	seahorse	1	0	3	stars	1	correct	1.56857648515143
162730	1	stim061_animate_insect_ant_1.png	61	animate	insect	ant	1	0	3	stars	1	correct	1.56857648515143
162930	1	stim176_inanimate_plants_tree_4.png	176	inanimate	plants	tree	4	0	3	stars	1	correct	1.56857648515143
163130	1	stim004_animate_aquatic_crab_4.png	4	animate	aquatic	crab	4	0	3	stars	1	correct	1.56857648515143
163330	1	stim195_inanimate_tools_scissors_3.png	195	inanimate	tools	scissors	3	0	3	stars	1	correct	1.56857648515143
163530	1	stim035_animate_bird_peacock_3.png	35	animate	bird	peacock	3	0	3	stars	1	correct	1.56857648515143
163730	1	stim079_animate_insect_grasshopper_3.png	79	animate	insect	grasshopper	3	0	3	stars	1	correct	1.56857648515143
163930	1	stim083_animate_mammal_cow_3.png	83	animate	mammal	cow	3	0	3	stars	1	correct	1.56857648515143
164130	1	stim156_inanimate_furniture_sofa_4.png	156	inanimate	furniture	sofa	4	0	3	stars	1	correct	1.56857648515143
164330	1	stim077_animate_insect_grasshopper_1.png	77	animate	insect	grasshopper	1	0	3	stars	1	correct	1.56857648515143
164530	1	stim037_animate_bird_penguin_1.png	37	animate	bird	penguin	1	0	3	stars	1	correct	1.56857648515143
164730	1	stim127_inanimate_fruits_banana_3.png	127	inanimate	fruits	banana	3	0	3	stars	1	correct	1.56857648515143
164930	1	stim049_animate_human_clown_1.png	49	animate	human	clown	1	0	3	stars	1	correct	1.56857648515143
165130	1	stim017_animate_aquatic_shrimp_1.png	17	animate	aquatic	shrimp	1	0	3	stars	1	correct	1.56857648515143
165330	1	stim151_inanimate_furniture_closet_3.png	151	inanimate	furniture	closet	3	0	3	stars	1	correct	1.56857648515143
165530	1	stim177_inanimate_plants_tulip_1.png	177	inanimate	plants	tulip	1	0	3	stars	1	correct	1.56857648515143
165730	1	stim058_animate_human_sports_2.png	58	animate	human	sports	2	0	3	stars	1	correct	1.56857648515143
165930	1	stim186_inanimate_tools_hammer_2.png	186	inanimate	tools	hammer	2	0	3	stars	1	correct	1.56857648515143
166130	1	stim166_inanimate_plants_cactus_2.png	166	inanimate	plants	cactus	2	0	3	stars	1	correct	1.56857648515143
166330	1	stim053_animate_human_faces_1.png	53	animate	human	faces	1	0	3	stars	1	correct	1.56857648515143
166530	1	stim115_inanimate_clothing_shirt_3.png	115	inanimate	clothing	shirt	3	0	3	stars	1	correct	1.56857648515143
166730	1	stim042_animate_human_baby_2.png	42	animate	human	baby	2	0	3	stars	1	correct	1.56857648515143
166930	1	stim010_animate_aquatic_seahorse_2.png	10	animate	aquatic	seahorse	2	0	3	stars	1	correct	1.56857648515143
167130	1	stim007_animate_aquatic_fish_3.png	7	animate	aquatic	fish	3	0	3	stars	1	correct	1.56857648515143
167330	1	stim059_animate_human_sports_3.png	59	animate	human	sports	3	0	3	stars	1	correct	1.56857648515143
167530	1	stim125_inanimate_fruits_banana_1.png	125	inanimate	fruits	banana	1	0	3	stars	1	correct	1.56857648515143
167730	1	stim197_inanimate_tools_wrench_1.png	197	inanimate	tools	wrench	1	0	3	stars	1	correct	1.56857648515143
167930	1	stim152_inanimate_furniture_closet_4.png	152	inanimate	furniture	closet	4	0	3	stars	1	correct	1.56857648515143
168130	1	stim154_inanimate_furniture_sofa_2.png	154	inanimate	furniture	sofa	2	0	3	stars	1	correct	1.56857648515143
168330	1	stim071_animate_insect_butterfly_3.png	71	animate	insect	butterfly	3	0	3	stars	1	correct	1.56857648515143
168530	1	stim172_inanimate_plants_sunflower_4.png	172	inanimate	plants	sunflower	4	0	3	stars	1	correct	1.56857648515143
168730	1	stim047_animate_human_child_3.png	47	animate	human	child	3	0	3	stars	1	correct	1.56857648515143
168930	1	stim133_inanimate_fruits_pineapple_1.png	133	inanimate	fruits	pineapple	1	0	3	stars	1	correct	1.56857648515143
169130	1	stim190_inanimate_tools_pan_2.png	190	inanimate	tools	pan	2	0	3	stars	1	correct	1.56857648515143
169330	1	stim095_animate_mammal_monkey_3.png	95	animate	mammal	monkey	3	0	3	stars	1	correct	1.56857648515143
169530	1	stim026_animate_bird_duck_2.png	26	animate	bird	duck	2	0	3	stars	1	correct	1.56857648515143
169730	1	stim097_animate_mammal_rhino_1.png	97	animate	mammal	rhino	1	0	3	stars	1	correct	1.56857648515143
169930	1	stim074_animate_insect_dragonfly_2.png	74	animate	insect	dragonfly	2	0	3	stars	1	correct	1.56857648515143
170130	1	stim086_animate_mammal_giraffe_2.png	86	animate	mammal	giraffe	2	0	3	stars	1	correct	1.56857648515143
170330	1	stim094_animate_mammal_monkey_2.png	94	animate	mammal	monkey	2	0	3	stars	1	correct	1.56857648515143
170530	1	stim138_inanimate_fruits_strawberry_2.png	138	inanimate	fruits	strawberry	2	0	3	stars	1	correct	1.56857648515143
170730	1	stim066_animate_insect_bug_2.png	66	animate	insect	bug	2	0	3	stars	1	correct	1.56857648515143
170930	1	stim081_animate_mammal_cow_1.png	81	animate	mammal	cow	1	0	3	stars	1	correct	1.56857648515143
171130	1	stim128_inanimate_fruits_banana_4.png	128	inanimate	fruits	banana	4	0	3	stars	1	correct	1.56857648515143
171330	1	stim003_animate_aquatic_crab_3.png	3	animate	aquatic	crab	3	0	3	stars	1	correct	1.56857648515143
171530	1	stim032_animate_bird_parrot_4.png	32	animate	bird	parrot	4	0	3	stars	1	correct	1.56857648515143
171730	1	stim114_inanimate_clothing_shirt_2.png	114	inanimate	clothing	shirt	2	0	3	stars	1	correct	1.56857648515143
171930	1	stim090_animate_mammal_kangaroo_2.png	90	animate	mammal	kangaroo	2	0	3	stars	1	correct	1.56857648515143
172130	1	stim174_inanimate_plants_tree_2.png	174	inanimate	plants	tree	2	0	3	stars	1	correct	1.56857648515143
172330	1	stim105_inanimate_clothing_hat_1.png	105	inanimate	clothing	hat	1	0	3	stars	1	correct	1.56857648515143
172530	1	stim040_animate_bird_penguin_4.png	40	animate	bird	penguin	4	0	3	stars	1	correct	1.56857648515143
172730	1	stim088_animate_mammal_giraffe_4.png	88	animate	mammal	giraffe	4	0	3	stars	1	correct	1.56857648515143
172930	1	stim185_inanimate_tools_hammer_1.png	185	inanimate	tools	hammer	1	0	3	stars	1	correct	1.56857648515143
173130	1	stim112_inanimate_clothing_jeans_4.png	112	inanimate	clothing	jeans	4	0	3	stars	1	correct	1.56857648515143
173330	1	stim137_inanimate_fruits_strawberry_1.png	137	inanimate	fruits	strawberry	1	0	3	stars	1	correct	1.56857648515143
173530	1	stim148_inanimate_furniture_chair_4.png	148	inanimate	furniture	chair	4	0	3	stars	1	correct	1.56857648515143
173730	1	stim153_inanimate_furniture_sofa_1.png	153	inanimate	furniture	sofa	1	0	3	stars	1	correct	1.56857648515143
173930	1	stim155_inanimate_furniture_sofa_3.png	155	inanimate	furniture	sofa	3	0	3	stars	1	correct	1.56857648515143
174130	1	stim013_animate_aquatic_shark_1.png	13	animate	aquatic	shark	1	0	3	stars	1	correct	1.56857648515143
174330	1	stim198_inanimate_tools_wrench_2.png	198	inanimate	tools	wrench	2	0	3	stars	1	correct	1.56857648515143
174530	1	stim175_inanimate_plants_tree_3.png	175	inanimate	plants	tree	3	0	3	stars	1	correct	1.56857648515143
174730	1	stim068_animate_insect_bug_4.png	68	animate	insect	bug	4	0	3	stars	1	correct	1.56857648515143
174930	1	stim062_animate_insect_ant_2.png	62	animate	insect	ant	2	0	3	stars	1	correct	1.56857648515143
175130	1	stim212_targets_shapes_star_4.png	212	targets	shapes	star	4	1	3	stars	1	correct	1.56857648515143
175330	1	stim029_animate_bird_parrot_1.png	29	animate	bird	parrot	1	0	3	stars	1	correct	1.56857648515143
175530	1	stim098_animate_mammal_rhino_2.png	98	animate	mammal	rhino	2	0	3	stars	1	correct	1.56857648515143
175730	1	stim078_animate_insect_grasshopper_2.png	78	animate	insect	grasshopper	2	0	3	stars	1	correct	1.56857648515143
175930	1	stim164_inanimate_plants_bush_4.png	164	inanimate	plants	bush	4	0	3	stars	1	correct	1.56857648515143
176130	1	stim189_inanimate_tools_pan_1.png	189	inanimate	tools	pan	1	0	3	stars	1	correct	1.56857648515143
176330	1	stim025_animate_bird_duck_1.png	25	animate	bird	duck	1	0	3	stars	1	correct	1.56857648515143
176530	1	stim045_animate_human_child_1.png	45	animate	human	child	1	0	3	stars	1	correct	1.56857648515143
176730	1	stim036_animate_bird_peacock_4.png	36	animate	bird	peacock	4	0	3	stars	1	correct	1.56857648515143
176930	1	stim033_animate_bird_peacock_1.png	33	animate	bird	peacock	1	0	3	stars	1	correct	1.56857648515143
177130	1	stim178_inanimate_plants_tulip_2.png	178	inanimate	plants	tulip	2	0	3	stars	1	correct	1.56857648515143
177330	1	stim200_inanimate_tools_wrench_4.png	200	inanimate	tools	wrench	4	0	3	stars	1	correct	1.56857648515143
177530	1	stim168_inanimate_plants_cactus_4.png	168	inanimate	plants	cactus	4	0	3	stars	1	correct	1.56857648515143
177730	1	stim163_inanimate_plants_bush_3.png	163	inanimate	plants	bush	3	0	3	stars	1	correct	1.56857648515143
177931	1	stim139_inanimate_fruits_strawberry_3.png	139	inanimate	fruits	strawberry	3	0	3	stars	1	correct	1.56857648515143
178131	1	stim117_inanimate_clothing_socks_1.png	117	inanimate	clothing	socks	1	0	3	stars	1	correct	1.56857648515143
178331	1	stim118_inanimate_clothing_socks_2.png	118	inanimate	clothing	socks	2	0	3	stars	1	correct	1.56857648515143
178531	1	stim141_inanimate_furniture_bed_1.png	141	inanimate	furniture	bed	1	0	3	stars	1	correct	1.56857648515143
178731	1	stim183_inanimate_tools_broom_3.png	183	inanimate	tools	broom	3	0	3	stars	1	correct	1.56857648515143
178931	1	stim184_inanimate_tools_broom_4.png	184	inanimate	tools	broom	4	0	3	stars	1	correct	1.56857648515143
179131	1	stim108_inanimate_clothing_hat_4.png	108	inanimate	clothing	hat	4	0	3	stars	1	correct	1.56857648515143
179331	1	stim107_inanimate_clothing_hat_3.png	107	inanimate	clothing	hat	3	0	3	stars	1	correct	1.56857648515143
179531	1	stim182_inanimate_tools_broom_2.png	182	inanimate	tools	broom	2	0	3	stars	1	correct	1.56857648515143
179731	1	stim161_inanimate_plants_bush_1.png	161	inanimate	plants	bush	1	0	3	stars	1	correct	1.56857648515143
179931	1	stim136_inanimate_fruits_pineapple_4.png	136	inanimate	fruits	pineapple	4	0	3	stars	1	correct	1.56857648515143
180131	1	stim082_animate_mammal_cow_2.png	82	animate	mammal	cow	2	0	3	stars	1	correct	1.56857648515143
180331	1	stim181_inanimate_tools_broom_1.png	181	inanimate	tools	broom	1	0	3	stars	1	correct	1.56857648515143
180531	1	stim100_animate_mammal_rhino_4.png	100	animate	mammal	rhino	4	0	3	stars	1	correct	1.56857648515143
180731	1	stim103_inanimate_clothing_gloves_3.png	103	inanimate	clothing	gloves	3	0	3	stars	1	correct	1.56857648515143
180931	1	stim076_animate_insect_dragonfly_4.png	76	animate	insect	dragonfly	4	0	3	stars	1	correct	1.56857648515143
181131	1	stim124_inanimate_fruits_apple_4.png	124	inanimate	fruits	apple	4	0	3	stars	1	correct	1.56857648515143
181331	1	stim091_animate_mammal_kangaroo_3.png	91	animate	mammal	kangaroo	3	0	3	stars	1	correct	1.56857648515143
181531	1	stim085_animate_mammal_giraffe_1.png	85	animate	mammal	giraffe	1	0	3	stars	1	correct	1.56857648515143
181731	1	stim191_inanimate_tools_pan_3.png	191	inanimate	tools	pan	3	0	3	stars	1	correct	1.56857648515143
181931	1	stim173_inanimate_plants_tree_1.png	173	inanimate	plants	tree	1	0	3	stars	1	correct	1.56857648515143
182131	1	stim020_animate_aquatic_shrimp_4.png	20	animate	aquatic	shrimp	4	0	3	stars	1	correct	1.56857648515143
182331	1	stim031_animate_bird_parrot_3.png	31	animate	bird	parrot	3	0	3	stars	1	correct	1.56857648515143
182531	1	stim023_animate_bird_chicken_3.png	23	animate	bird	chicken	3	0	3	stars	1	correct	1.56857648515143
182731	1	stim135_inanimate_fruits_pineapple_3.png	135	inanimate	fruits	pineapple	3	0	3	stars	1	correct	1.56857648515143
182931	1	stim052_animate_human_clown_4.png	52	animate	human	clown	4	0	3	stars	1	correct	1.56857648515143
183131	1	stim165_inanimate_plants_cactus_1.png	165	inanimate	plants	cactus	1	0	3	stars	1	correct	1.56857648515143
183331	1	stim030_animate_bird_parrot_2.png	30	animate	bird	parrot	2	0	3	stars	1	correct	1.56857648515143
183531	1	stim113_inanimate_clothing_shirt_1.png	113	inanimate	clothing	shirt	1	0	3	stars	1	correct	1.56857648515143
183731	1	stim180_inanimate_plants_tulip_4.png	180	inanimate	plants	tulip	4	0	3	stars	1	correct	1.56857648515143
183931	1	stim073_animate_insect_dragonfly_1.png	73	animate	insect	dragonfly	1	0	3	stars	1	correct	1.56857648515143
184131	1	stim022_animate_bird_chicken_2.png	22	animate	bird	chicken	2	0	3	stars	1	correct	1.56857648515143
184331	1	stim006_animate_aquatic_fish_2.png	6	animate	aquatic	fish	2	0	3	stars	1	correct	1.56857648515143
184531	1	stim055_animate_human_faces_3.png	55	animate	human	faces	3	0	3	stars	1	correct	1.56857648515143
184731	1	stim159_inanimate_furniture_table_3.png	159	inanimate	furniture	table	3	0	3	stars	1	correct	1.56857648515143
184931	1	stim012_animate_aquatic_seahorse_4.png	12	animate	aquatic	seahorse	4	0	3	stars	1	correct	1.56857648515143
185131	1	stim146_inanimate_furniture_chair_2.png	146	inanimate	furniture	chair	2	0	3	stars	1	correct	1.56857648515143
185331	1	stim179_inanimate_plants_tulip_3.png	179	inanimate	plants	tulip	3	0	3	stars	1	correct	1.56857648515143
185531	1	stim196_inanimate_tools_scissors_4.png	196	inanimate	tools	scissors	4	0	3	stars	1	correct	1.56857648515143
185731	1	stim016_animate_aquatic_shark_4.png	16	animate	aquatic	shark	4	0	3	stars	1	correct	1.56857648515143
185931	1	stim024_animate_bird_chicken_4.png	24	animate	bird	chicken	4	0	3	stars	1	correct	1.56857648515143
186131	1	stim038_animate_bird_penguin_2.png	38	animate	bird	penguin	2	0	3	stars	1	correct	1.56857648515143
186331	1	stim064_animate_insect_ant_4.png	64	animate	insect	ant	4	0	3	stars	1	correct	1.56857648515143
186531	1	stim106_inanimate_clothing_hat_2.png	106	inanimate	clothing	hat	2	0	3	stars	1	correct	1.56857648515143
186731	1	stim092_animate_mammal_kangaroo_4.png	92	animate	mammal	kangaroo	4	0	3	stars	1	correct	1.56857648515143
186931	1	stim072_animate_insect_butterfly_4.png	72	animate	insect	butterfly	4	0	3	stars	1	correct	1.56857648515143
187131	1	stim044_animate_human_baby_4.png	44	animate	human	baby	4	0	3	stars	1	correct	1.56857648515143
187331	1	stim111_inanimate_clothing_jeans_3.png	111	inanimate	clothing	jeans	3	0	3	stars	1	correct	1.56857648515143
187531	1	stim129_inanimate_fruits_grape_1.png	129	inanimate	fruits	grape	1	0	3	stars	1	correct	1.56857648515143
187731	1	stim021_animate_bird_chicken_1.png	21	animate	bird	chicken	1	0	3	stars	1	correct	1.56857648515143
187931	1	stim162_inanimate_plants_bush_2.png	162	inanimate	plants	bush	2	0	3	stars	1	correct	1.56857648515143
188131	1	stim057_animate_human_sports_1.png	57	animate	human	sports	1	0	3	stars	1	correct	1.56857648515143
188331	1	stim065_animate_insect_bug_1.png	65	animate	insect	bug	1	0	3	stars	1	correct	1.56857648515143
188531	1	stim104_inanimate_clothing_gloves_4.png	104	inanimate	clothing	gloves	4	0	3	stars	1	correct	1.56857648515143
188731	1	stim192_inanimate_tools_pan_4.png	192	inanimate	tools	pan	4	0	3	stars	1	correct	1.56857648515143
188931	1	stim063_animate_insect_ant_3.png	63	animate	insect	ant	3	0	3	stars	1	correct	1.56857648515143
189131	1	stim089_animate_mammal_kangaroo_1.png	89	animate	mammal	kangaroo	1	0	3	stars	1	correct	1.56857648515143
189331	1	stim116_inanimate_clothing_shirt_4.png	116	inanimate	clothing	shirt	4	0	3	stars	1	correct	1.56857648515143
189531	1	stim050_animate_human_clown_2.png	50	animate	human	clown	2	0	3	stars	1	correct	1.56857648515143
189731	1	stim099_animate_mammal_rhino_3.png	99	animate	mammal	rhino	3	0	3	stars	1	correct	1.56857648515143
189931	1	stim067_animate_insect_bug_3.png	67	animate	insect	bug	3	0	3	stars	1	correct	1.56857648515143
190131	1	stim034_animate_bird_peacock_2.png	34	animate	bird	peacock	2	0	3	stars	1	correct	1.56857648515143
190331	1	stim134_inanimate_fruits_pineapple_2.png	134	inanimate	fruits	pineapple	2	0	3	stars	1	correct	1.56857648515143
190531	1	stim150_inanimate_furniture_closet_2.png	150	inanimate	furniture	closet	2	0	3	stars	1	correct	1.56857648515143
190731	1	stim084_animate_mammal_cow_4.png	84	animate	mammal	cow	4	0	3	stars	1	correct	1.56857648515143
190931	1	stim132_inanimate_fruits_grape_4.png	132	inanimate	fruits	grape	4	0	3	stars	1	correct	1.56857648515143
191131	1	stim028_animate_bird_duck_4.png	28	animate	bird	duck	4	0	3	stars	1	correct	1.56857648515143
191331	1	stim147_inanimate_furniture_chair_3.png	147	inanimate	furniture	chair	3	0	3	stars	1	correct	1.56857648515143
191531	1	stim120_inanimate_clothing_socks_4.png	120	inanimate	clothing	socks	4	0	3	stars	1	correct	1.56857648515143
191731	1	stim069_animate_insect_butterfly_1.png	69	animate	insect	butterfly	1	0	3	stars	1	correct	1.56857648515143
191931	1	stim041_animate_human_baby_1.png	41	animate	human	baby	1	0	3	stars	1	correct	1.56857648515143
192131	1	stim145_inanimate_furniture_chair_1.png	145	inanimate	furniture	chair	1	0	3	stars	1	correct	1.56857648515143
192331	1	stim039_animate_bird_penguin_3.png	39	animate	bird	penguin	3	0	3	stars	1	correct	1.56857648515143
192531	1	stim043_animate_human_baby_3.png	43	animate	human	baby	3	0	3	stars	1	correct	1.56857648515143
192731	1	stim102_inanimate_clothing_gloves_2.png	102	inanimate	clothing	gloves	2	0	3	stars	1	correct	1.56857648515143
192931	1	stim056_animate_human_faces_4.png	56	animate	human	faces	4	0	3	stars	1	correct	1.56857648515143
193131	1	stim160_inanimate_furniture_table_4.png	160	inanimate	furniture	table	4	0	3	stars	1	correct	1.56857648515143
193331	1	stim122_inanimate_fruits_apple_2.png	122	inanimate	fruits	apple	2	0	3	stars	1	correct	1.56857648515143
193531	1	stim005_animate_aquatic_fish_1.png	5	animate	aquatic	fish	1	0	3	stars	1	correct	1.56857648515143
193731	1	stim170_inanimate_plants_sunflower_2.png	170	inanimate	plants	sunflower	2	0	3	stars	1	correct	1.56857648515143
193931	1	stim002_animate_aquatic_crab_2.png	2	animate	aquatic	crab	2	0	3	stars	1	correct	1.56857648515143
194131	1	stim096_animate_mammal_monkey_4.png	96	animate	mammal	monkey	4	0	3	stars	1	correct	1.56857648515143
194331	1	stim087_animate_mammal_giraffe_3.png	87	animate	mammal	giraffe	3	0	3	stars	1	correct	1.56857648515143
201364	1	stim100_animate_mammal_rhino_4.png	100	animate	mammal	rhino	4	0	4	stars	3	incorrect	0.940331956604496
201564	1	stim022_animate_bird_chicken_2.png	22	animate	bird	chicken	2	0	4	stars	3	incorrect	0.940331956604496
201764	1	stim164_inanimate_plants_bush_4.png	164	inanimate	plants	bush	4	0	4	stars	3	incorrect	0.940331956604496
201964	1	stim105_inanimate_clothing_hat_1.png	105	inanimate	clothing	hat	1	0	4	stars	3	incorrect	0.940331956604496
202164	1	stim162_inanimate_plants_bush_2.png	162	inanimate	plants	bush	2	0	4	stars	3	incorrect	0.940331956604496
202364	1	stim043_animate_human_baby_3.png	43	animate	human	baby	3	0	4	stars	3	incorrect	0.940331956604496
202564	1	stim078_animate_insect_grasshopper_2.png	78	animate	insect	grasshopper	2	0	4	stars	3	incorrect	0.940331956604496
202764	1	stim126_inanimate_fruits_banana_2.png	126	inanimate	fruits	banana	2	0	4	stars	3	incorrect	0.940331956604496
202964	1	stim007_animate_aquatic_fish_3.png	7	animate	aquatic	fish	3	0	4	stars	3	incorrect	0.940331956604496
203164	1	stim103_inanimate_clothing_gloves_3.png	103	inanimate	clothing	gloves	3	0	4	stars	3	incorrect	0.940331956604496
203364	1	stim030_animate_bird_parrot_2.png	30	animate	bird	parrot	2	0	4	stars	3	incorrect	0.940331956604496
203564	1	stim071_animate_insect_butterfly_3.png	71	animate	insect	butterfly	3	0	4	stars	3	incorrect	0.940331956604496
203764	1	stim113_inanimate_clothing_shirt_1.png	113	inanimate	clothing	shirt	1	0	4	stars	3	incorrect	0.940331956604496
203964	1	stim044_animate_human_baby_4.png	44	animate	human	baby	4	0	4	stars	3	incorrect	0.940331956604496
204164	1	stim151_inanimate_furniture_closet_3.png	151	inanimate	furniture	closet	3	0	4	stars	3	incorrect	0.940331956604496
204364	1	stim075_animate_insect_dragonfly_3.png	75	animate	insect	dragonfly	3	0	4	stars	3	incorrect	0.940331956604496
204564	1	stim026_animate_bird_duck_2.png	26	animate	bird	duck	2	0	4	stars	3	incorrect	0.940331956604496
204764	1	stim036_animate_bird_peacock_4.png	36	animate	bird	peacock	4	0	4	stars	3	incorrect	0.940331956604496
204964	1	stim192_inanimate_tools_pan_4.png	192	inanimate	tools	pan	4	0	4	stars	3	incorrect	0.940331956604496
205164	1	stim037_animate_bird_penguin_1.png	37	animate	bird	penguin	1	0	4	stars	3	incorrect	0.940331956604496
205364	1	stim182_inanimate_tools_broom_2.png	182	inanimate	tools	broom	2	0	4	stars	3	incorrect	0.940331956604496
205564	1	stim079_animate_insect_grasshopper_3.png	79	animate	insect	grasshopper	3	0	4	stars	3	incorrect	0.940331956604496
205764	1	stim059_animate_human_sports_3.png	59	animate	human	sports	3	0	4	stars	3	incorrect	0.940331956604496
205964	1	stim088_animate_mammal_giraffe_4.png	88	animate	mammal	giraffe	4	0	4	stars	3	incorrect	0.940331956604496
206164	1	stim169_inanimate_plants_sunflower_1.png	169	inanimate	plants	sunflower	1	0	4	stars	3	incorrect	0.940331956604496
206364	1	stim124_inanimate_fruits_apple_4.png	124	inanimate	fruits	apple	4	0	4	stars	3	incorrect	0.940331956604496
206564	1	stim190_inanimate_tools_pan_2.png	190	inanimate	tools	pan	2	0	4	stars	3	incorrect	0.940331956604496
206764	1	stim074_animate_insect_dragonfly_2.png	74	animate	insect	dragonfly	2	0	4	stars	3	incorrect	0.940331956604496
206964	1	stim053_animate_human_faces_1.png	53	animate	human	faces	1	0	4	stars	3	incorrect	0.940331956604496
207164	1	stim099_animate_mammal_rhino_3.png	99	animate	mammal	rhino	3	0	4	stars	3	incorrect	0.940331956604496
207364	1	stim021_animate_bird_chicken_1.png	21	animate	bird	chicken	1	0	4	stars	3	incorrect	0.940331956604496
207564	1	stim146_inanimate_furniture_chair_2.png	146	inanimate	furniture	chair	2	0	4	stars	3	incorrect	0.940331956604496
207765	1	stim149_inanimate_furniture_closet_1.png	149	inanimate	furniture	closet	1	0	4	stars	3	incorrect	0.940331956604496
207964	1	stim027_animate_bird_duck_3.png	27	animate	bird	duck	3	0	4	stars	3	incorrect	0.940331956604496
208165	1	stim110_inanimate_clothing_jeans_2.png	110	inanimate	clothing	jeans	2	0	4	stars	3	incorrect	0.940331956604496
208365	1	stim049_animate_human_clown_1.png	49	animate	human	clown	1	0	4	stars	3	incorrect	0.940331956604496
208565	1	stim012_animate_aquatic_seahorse_4.png	12	animate	aquatic	seahorse	4	0	4	stars	3	incorrect	0.940331956604496
208765	1	stim128_inanimate_fruits_banana_4.png	128	inanimate	fruits	banana	4	0	4	stars	3	incorrect	0.940331956604496
208965	1	stim180_inanimate_plants_tulip_4.png	180	inanimate	plants	tulip	4	0	4	stars	3	incorrect	0.940331956604496
209165	1	stim014_animate_aquatic_shark_2.png	14	animate	aquatic	shark	2	0	4	stars	3	incorrect	0.940331956604496
209365	1	stim035_animate_bird_peacock_3.png	35	animate	bird	peacock	3	0	4	stars	3	incorrect	0.940331956604496
209565	1	stim176_inanimate_plants_tree_4.png	176	inanimate	plants	tree	4	0	4	stars	3	incorrect	0.940331956604496
209765	1	stim089_animate_mammal_kangaroo_1.png	89	animate	mammal	kangaroo	1	0	4	stars	3	incorrect	0.940331956604496
209965	1	stim106_inanimate_clothing_hat_2.png	106	inanimate	clothing	hat	2	0	4	stars	3	incorrect	0.940331956604496
210165	1	stim055_animate_human_faces_3.png	55	animate	human	faces	3	0	4	stars	3	incorrect	0.940331956604496
210365	1	stim155_inanimate_furniture_sofa_3.png	155	inanimate	furniture	sofa	3	0	4	stars	3	incorrect	0.940331956604496
210565	1	stim179_inanimate_plants_tulip_3.png	179	inanimate	plants	tulip	3	0	4	stars	3	incorrect	0.940331956604496
210765	1	stim125_inanimate_fruits_banana_1.png	125	inanimate	fruits	banana	1	0	4	stars	3	incorrect	0.940331956604496
210965	1	stim185_inanimate_tools_hammer_1.png	185	inanimate	tools	hammer	1	0	4	stars	3	incorrect	0.940331956604496
211165	1	stim003_animate_aquatic_crab_3.png	3	animate	aquatic	crab	3	0	4	stars	3	incorrect	0.940331956604496
211365	1	stim132_inanimate_fruits_grape_4.png	132	inanimate	fruits	grape	4	0	4	stars	3	incorrect	0.940331956604496
211565	1	stim117_inanimate_clothing_socks_1.png	117	inanimate	clothing	socks	1	0	4	stars	3	incorrect	0.940331956604496
211765	1	stim093_animate_mammal_monkey_1.png	93	animate	mammal	monkey	1	0	4	stars	3	incorrect	0.940331956604496
211965	1	stim084_animate_mammal_cow_4.png	84	animate	mammal	cow	4	0	4	stars	3	incorrect	0.940331956604496
212165	1	stim094_animate_mammal_monkey_2.png	94	animate	mammal	monkey	2	0	4	stars	3	incorrect	0.940331956604496
212365	1	stim025_animate_bird_duck_1.png	25	animate	bird	duck	1	0	4	stars	3	incorrect	0.940331956604496
212565	1	stim086_animate_mammal_giraffe_2.png	86	animate	mammal	giraffe	2	0	4	stars	3	incorrect	0.940331956604496
212765	1	stim008_animate_aquatic_fish_4.png	8	animate	aquatic	fish	4	0	4	stars	3	incorrect	0.940331956604496
212965	1	stim096_animate_mammal_monkey_4.png	96	animate	mammal	monkey	4	0	4	stars	3	incorrect	0.940331956604496
213165	1	stim080_animate_insect_grasshopper_4.png	80	animate	insect	grasshopper	4	0	4	stars	3	incorrect	0.940331956604496
213365	1	stim052_animate_human_clown_4.png	52	animate	human	clown	4	0	4	stars	3	incorrect	0.940331956604496
213565	1	stim031_animate_bird_parrot_3.png	31	animate	bird	parrot	3	0	4	stars	3	incorrect	0.940331956604496
213765	1	stim042_animate_human_baby_2.png	42	animate	human	baby	2	0	4	stars	3	incorrect	0.940331956604496
213965	1	stim213_targets_shapes_star_1.png	213	targets	shapes	star	1	1	4	stars	3	incorrect	0.940331956604496
214165	1	stim193_inanimate_tools_scissors_1.png	193	inanimate	tools	scissors	1	0	4	stars	3	incorrect	0.940331956604496
214365	1	stim004_animate_aquatic_crab_4.png	4	animate	aquatic	crab	4	0	4	stars	3	incorrect	0.940331956604496
214565	1	stim034_animate_bird_peacock_2.png	34	animate	bird	peacock	2	0	4	stars	3	incorrect	0.940331956604496
214765	1	stim166_inanimate_plants_cactus_2.png	166	inanimate	plants	cactus	2	0	4	stars	3	incorrect	0.940331956604496
214965	1	stim138_inanimate_fruits_strawberry_2.png	138	inanimate	fruits	strawberry	2	0	4	stars	3	incorrect	0.940331956604496
215165	1	stim010_animate_aquatic_seahorse_2.png	10	animate	aquatic	seahorse	2	0	4	stars	3	incorrect	0.940331956604496
215365	1	stim064_animate_insect_ant_4.png	64	animate	insect	ant	4	0	4	stars	3	incorrect	0.940331956604496
215565	1	stim120_inanimate_clothing_socks_4.png	120	inanimate	clothing	socks	4	0	4	stars	3	incorrect	0.940331956604496
215765	1	stim040_animate_bird_penguin_4.png	40	animate	bird	penguin	4	0	4	stars	3	incorrect	0.940331956604496
215965	1	stim016_animate_aquatic_shark_4.png	16	animate	aquatic	shark	4	0	4	stars	3	incorrect	0.940331956604496
216165	1	stim158_inanimate_furniture_table_2.png	158	inanimate	furniture	table	2	0	4	stars	3	incorrect	0.940331956604496
216365	1	stim060_animate_human_sports_4.png	60	animate	human	sports	4	0	4	stars	3	incorrect	0.940331956604496
216565	1	stim090_animate_mammal_kangaroo_2.png	90	animate	mammal	kangaroo	2	0	4	stars	3	incorrect	0.940331956604496
216765	1	stim013_animate_aquatic_shark_1.png	13	animate	aquatic	shark	1	0	4	stars	3	incorrect	0.940331956604496
216965	1	stim029_animate_bird_parrot_1.png	29	animate	bird	parrot	1	0	4	stars	3	incorrect	0.940331956604496
217165	1	stim083_animate_mammal_cow_3.png	83	animate	mammal	cow	3	0	4	stars	3	incorrect	0.940331956604496
217365	1	stim092_animate_mammal_kangaroo_4.png	92	animate	mammal	kangaroo	4	0	4	stars	3	incorrect	0.940331956604496
217565	1	stim191_inanimate_tools_pan_3.png	191	inanimate	tools	pan	3	0	4	stars	3	incorrect	0.940331956604496
217765	1	stim065_animate_insect_bug_1.png	65	animate	insect	bug	1	0	4	stars	3	incorrect	0.940331956604496
217965	1	stim168_inanimate_plants_cactus_4.png	168	inanimate	plants	cactus	4	0	4	stars	3	incorrect	0.940331956604496
218165	1	stim087_animate_mammal_giraffe_3.png	87	animate	mammal	giraffe	3	0	4	stars	3	incorrect	0.940331956604496
218365	1	stim199_inanimate_tools_wrench_3.png	199	inanimate	tools	wrench	3	0	4	stars	3	incorrect	0.940331956604496
218565	1	stim115_inanimate_clothing_shirt_3.png	115	inanimate	clothing	shirt	3	0	4	stars	3	incorrect	0.940331956604496
218765	1	stim054_animate_human_faces_2.png	54	animate	human	faces	2	0	4	stars	3	incorrect	0.940331956604496
218965	1	stim144_inanimate_furniture_bed_4.png	144	inanimate	furniture	bed	4	0	4	stars	3	incorrect	0.940331956604496
219165	1	stim002_animate_aquatic_crab_2.png	2	animate	aquatic	crab	2	0	4	stars	3	incorrect	0.940331956604496
219365	1	stim070_animate_insect_butterfly_2.png	70	animate	insect	butterfly	2	0	4	stars	3	incorrect	0.940331956604496
219565	1	stim161_inanimate_plants_bush_1.png	161	inanimate	plants	bush	1	0	4	stars	3	incorrect	0.940331956604496
219765	1	stim173_inanimate_plants_tree_1.png	173	inanimate	plants	tree	1	0	4	stars	3	incorrect	0.940331956604496
219965	1	stim045_animate_human_child_1.png	45	animate	human	child	1	0	4	stars	3	incorrect	0.940331956604496
220165	1	stim082_animate_mammal_cow_2.png	82	animate	mammal	cow	2	0	4	stars	3	incorrect	0.940331956604496
220365	1	stim121_inanimate_fruits_apple_1.png	121	inanimate	fruits	apple	1	0	4	stars	3	incorrect	0.940331956604496
220565	1	stim068_animate_insect_bug_4.png	68	animate	insect	bug	4	0	4	stars	3	incorrect	0.940331956604496
220765	1	stim005_animate_aquatic_fish_1.png	5	animate	aquatic	fish	1	0	4	stars	3	incorrect	0.940331956604496
220965	1	stim018_animate_aquatic_shrimp_2.png	18	animate	aquatic	shrimp	2	0	4	stars	3	incorrect	0.940331956604496
221165	1	stim127_inanimate_fruits_banana_3.png	127	inanimate	fruits	banana	3	0	4	stars	3	incorrect	0.940331956604496
221365	1	stim101_inanimate_clothing_gloves_1.png	101	inanimate	clothing	gloves	1	0	4	stars	3	incorrect	0.940331956604496
221565	1	stim091_animate_mammal_kangaroo_3.png	91	animate	mammal	kangaroo	3	0	4	stars	3	incorrect	0.940331956604496
221765	1	stim038_animate_bird_penguin_2.png	38	animate	bird	penguin	2	0	4	stars	3	incorrect	0.940331956604496
221965	1	stim194_inanimate_tools_scissors_2.png	194	inanimate	tools	scissors	2	0	4	stars	3	incorrect	0.940331956604496
222165	1	stim107_inanimate_clothing_hat_3.png	107	inanimate	clothing	hat	3	0	4	stars	3	incorrect	0.940331956604496
222365	1	stim015_animate_aquatic_shark_3.png	15	animate	aquatic	shark	3	0	4	stars	3	incorrect	0.940331956604496
222565	1	stim123_inanimate_fruits_apple_3.png	123	inanimate	fruits	apple	3	0	4	stars	3	incorrect	0.940331956604496
222765	1	stim142_inanimate_furniture_bed_2.png	142	inanimate	furniture	bed	2	0	4	stars	3	incorrect	0.940331956604496
222965	1	stim148_inanimate_furniture_chair_4.png	148	inanimate	furniture	chair	4	0	4	stars	3	incorrect	0.940331956604496
223165	1	stim195_inanimate_tools_scissors_3.png	195	inanimate	tools	scissors	3	0	4	stars	3	incorrect	0.940331956604496
223365	1	stim197_inanimate_tools_wrench_1.png	197	inanimate	tools	wrench	1	0	4	stars	3	incorrect	0.940331956604496
223565	1	stim145_inanimate_furniture_chair_1.png	145	inanimate	furniture	chair	1	0	4	stars	3	incorrect	0.940331956604496
223765	1	stim067_animate_insect_bug_3.png	67	animate	insect	bug	3	0	4	stars	3	incorrect	0.940331956604496
223965	1	stim159_inanimate_furniture_table_3.png	159	inanimate	furniture	table	3	0	4	stars	3	incorrect	0.940331956604496
224165	1	stim184_inanimate_tools_broom_4.png	184	inanimate	tools	broom	4	0	4	stars	3	incorrect	0.940331956604496
224365	1	stim147_inanimate_furniture_chair_3.png	147	inanimate	furniture	chair	3	0	4	stars	3	incorrect	0.940331956604496
224565	1	stim119_inanimate_clothing_socks_3.png	119	inanimate	clothing	socks	3	0	4	stars	3	incorrect	0.940331956604496
224765	1	stim108_inanimate_clothing_hat_4.png	108	inanimate	clothing	hat	4	0	4	stars	3	incorrect	0.940331956604496
224965	1	stim140_inanimate_fruits_strawberry_4.png	140	inanimate	fruits	strawberry	4	0	4	stars	3	incorrect	0.940331956604496
225165	1	stim039_animate_bird_penguin_3.png	39	animate	bird	penguin	3	0	4	stars	3	incorrect	0.940331956604496
225365	1	stim135_inanimate_fruits_pineapple_3.png	135	inanimate	fruits	pineapple	3	0	4	stars	3	incorrect	0.940331956604496
225565	1	stim072_animate_insect_butterfly_4.png	72	animate	insect	butterfly	4	0	4	stars	3	incorrect	0.940331956604496
225765	1	stim058_animate_human_sports_2.png	58	animate	human	sports	2	0	4	stars	3	incorrect	0.940331956604496
225965	1	stim001_animate_aquatic_crab_1.png	1	animate	aquatic	crab	1	0	4	stars	3	incorrect	0.940331956604496
226165	1	stim186_inanimate_tools_hammer_2.png	186	inanimate	tools	hammer	2	0	4	stars	3	incorrect	0.940331956604496
226365	1	stim116_inanimate_clothing_shirt_4.png	116	inanimate	clothing	shirt	4	0	4	stars	3	incorrect	0.940331956604496
226565	1	stim136_inanimate_fruits_pineapple_4.png	136	inanimate	fruits	pineapple	4	0	4	stars	3	incorrect	0.940331956604496
226765	1	stim167_inanimate_plants_cactus_3.png	167	inanimate	plants	cactus	3	0	4	stars	3	incorrect	0.940331956604496
226965	1	stim032_animate_bird_parrot_4.png	32	animate	bird	parrot	4	0	4	stars	3	incorrect	0.940331956604496
227165	1	stim188_inanimate_tools_hammer_4.png	188	inanimate	tools	hammer	4	0	4	stars	3	incorrect	0.940331956604496
227365	1	stim097_animate_mammal_rhino_1.png	97	animate	mammal	rhino	1	0	4	stars	3	incorrect	0.940331956604496
227565	1	stim181_inanimate_tools_broom_1.png	181	inanimate	tools	broom	1	0	4	stars	3	incorrect	0.940331956604496
227765	1	stim041_animate_human_baby_1.png	41	animate	human	baby	1	0	4	stars	3	incorrect	0.940331956604496
227965	1	stim102_inanimate_clothing_gloves_2.png	102	inanimate	clothing	gloves	2	0	4	stars	3	incorrect	0.940331956604496
228165	1	stim174_inanimate_plants_tree_2.png	174	inanimate	plants	tree	2	0	4	stars	3	incorrect	0.940331956604496
228365	1	stim066_animate_insect_bug_2.png	66	animate	insect	bug	2	0	4	stars	3	incorrect	0.940331956604496
228565	1	stim214_targets_shapes_star_2.png	214	targets	shapes	star	2	1	4	stars	3	incorrect	0.940331956604496
228765	1	stim133_inanimate_fruits_pineapple_1.png	133	inanimate	fruits	pineapple	1	0	4	stars	3	incorrect	0.940331956604496
228965	1	stim122_inanimate_fruits_apple_2.png	122	inanimate	fruits	apple	2	0	4	stars	3	incorrect	0.940331956604496
229165	1	stim200_inanimate_tools_wrench_4.png	200	inanimate	tools	wrench	4	0	4	stars	3	incorrect	0.940331956604496
229365	1	stim111_inanimate_clothing_jeans_3.png	111	inanimate	clothing	jeans	3	0	4	stars	3	incorrect	0.940331956604496
229565	1	stim081_animate_mammal_cow_1.png	81	animate	mammal	cow	1	0	4	stars	3	incorrect	0.940331956604496
229765	1	stim063_animate_insect_ant_3.png	63	animate	insect	ant	3	0	4	stars	3	incorrect	0.940331956604496
229965	1	stim143_inanimate_furniture_bed_3.png	143	inanimate	furniture	bed	3	0	4	stars	3	incorrect	0.940331956604496
230165	1	stim175_inanimate_plants_tree_3.png	175	inanimate	plants	tree	3	0	4	stars	3	incorrect	0.940331956604496
230365	1	stim006_animate_aquatic_fish_2.png	6	animate	aquatic	fish	2	0	4	stars	3	incorrect	0.940331956604496
230565	1	stim017_animate_aquatic_shrimp_1.png	17	animate	aquatic	shrimp	1	0	4	stars	3	incorrect	0.940331956604496
230765	1	stim009_animate_aquatic_seahorse_1.png	9	animate	aquatic	seahorse	1	0	4	stars	3	incorrect	0.940331956604496
230965	1	stim183_inanimate_tools_broom_3.png	183	inanimate	tools	broom	3	0	4	stars	3	incorrect	0.940331956604496
231165	1	stim011_animate_aquatic_seahorse_3.png	11	animate	aquatic	seahorse	3	0	4	stars	3	incorrect	0.940331956604496
231365	1	stim051_animate_human_clown_3.png	51	animate	human	clown	3	0	4	stars	3	incorrect	0.940331956604496
231565	1	stim163_inanimate_plants_bush_3.png	163	inanimate	plants	bush	3	0	4	stars	3	incorrect	0.940331956604496
231765	1	stim130_inanimate_fruits_grape_2.png	130	inanimate	fruits	grape	2	0	4	stars	3	incorrect	0.940331956604496
231965	1	stim024_animate_bird_chicken_4.png	24	animate	bird	chicken	4	0	4	stars	3	incorrect	0.940331956604496
232165	1	stim118_inanimate_clothing_socks_2.png	118	inanimate	clothing	socks	2	0	4	stars	3	incorrect	0.940331956604496
232365	1	stim170_inanimate_plants_sunflower_2.png	170	inanimate	plants	sunflower	2	0	4	stars	3	incorrect	0.940331956604496
232565	1	stim033_animate_bird_peacock_1.png	33	animate	bird	peacock	1	0	4	stars	3	incorrect	0.940331956604496
232765	1	stim157_inanimate_furniture_table_1.png	157	inanimate	furniture	table	1	0	4	stars	3	incorrect	0.940331956604496
232965	1	stim048_animate_human_child_4.png	48	animate	human	child	4	0	4	stars	3	incorrect	0.940331956604496
233165	1	stim062_animate_insect_ant_2.png	62	animate	insect	ant	2	0	4	stars	3	incorrect	0.940331956604496
233365	1	stim085_animate_mammal_giraffe_1.png	85	animate	mammal	giraffe	1	0	4	stars	3	incorrect	0.940331956604496
233565	1	stim134_inanimate_fruits_pineapple_2.png	134	inanimate	fruits	pineapple	2	0	4	stars	3	incorrect	0.940331956604496
233765	1	stim165_inanimate_plants_cactus_1.png	165	inanimate	plants	cactus	1	0	4	stars	3	incorrect	0.940331956604496
233965	1	stim047_animate_human_child_3.png	47	animate	human	child	3	0	4	stars	3	incorrect	0.940331956604496
234165	1	stim098_animate_mammal_rhino_2.png	98	animate	mammal	rhino	2	0	4	stars	3	incorrect	0.940331956604496
234365	1	stim046_animate_human_child_2.png	46	animate	human	child	2	0	4	stars	3	incorrect	0.940331956604496
234565	1	stim139_inanimate_fruits_strawberry_3.png	139	inanimate	fruits	strawberry	3	0	4	stars	3	incorrect	0.940331956604496
234765	1	stim196_inanimate_tools_scissors_4.png	196	inanimate	tools	scissors	4	0	4	stars	3	incorrect	0.940331956604496
234965	1	stim109_inanimate_clothing_jeans_1.png	109	inanimate	clothing	jeans	1	0	4	stars	3	incorrect	0.940331956604496
235165	1	stim114_inanimate_clothing_shirt_2.png	114	inanimate	clothing	shirt	2	0	4	stars	3	incorrect	0.940331956604496
235365	1	stim129_inanimate_fruits_grape_1.png	129	inanimate	fruits	grape	1	0	4	stars	3	incorrect	0.940331956604496
235565	1	stim160_inanimate_furniture_table_4.png	160	inanimate	furniture	table	4	0	4	stars	3	incorrect	0.940331956604496
235765	1	stim095_animate_mammal_monkey_3.png	95	animate	mammal	monkey	3	0	4	stars	3	incorrect	0.940331956604496
235965	1	stim073_animate_insect_dragonfly_1.png	73	animate	insect	dragonfly	1	0	4	stars	3	incorrect	0.940331956604496
236165	1	stim023_animate_bird_chicken_3.png	23	animate	bird	chicken	3	0	4	stars	3	incorrect	0.940331956604496
236365	1	stim153_inanimate_furniture_sofa_1.png	153	inanimate	furniture	sofa	1	0	4	stars	3	incorrect	0.940331956604496
236565	1	stim061_animate_insect_ant_1.png	61	animate	insect	ant	1	0	4	stars	3	incorrect	0.940331956604496
236765	1	stim056_animate_human_faces_4.png	56	animate	human	faces	4	0	4	stars	3	incorrect	0.940331956604496
236965	1	stim152_inanimate_furniture_closet_4.png	152	inanimate	furniture	closet	4	0	4	stars	3	incorrect	0.940331956604496
237165	1	stim154_inanimate_furniture_sofa_2.png	154	inanimate	furniture	sofa	2	0	4	stars	3	incorrect	0.940331956604496
237365	1	stim177_inanimate_plants_tulip_1.png	177	inanimate	plants	tulip	1	0	4	stars	3	incorrect	0.940331956604496
237565	1	stim050_animate_human_clown_2.png	50	animate	human	clown	2	0	4	stars	3	incorrect	0.940331956604496
237765	1	stim057_animate_human_sports_1.png	57	animate	human	sports	1	0	4	stars	3	incorrect	0.940331956604496
237965	1	stim187_inanimate_tools_hammer_3.png	187	inanimate	tools	hammer	3	0	4	stars	3	incorrect	0.940331956604496
238165	1	stim019_animate_aquatic_shrimp_3.png	19	animate	aquatic	shrimp	3	0	4	stars	3	incorrect	0.940331956604496
238365	1	stim028_animate_bird_duck_4.png	28	animate	bird	duck	4	0	4	stars	3	incorrect	0.940331956604496
238565	1	stim104_inanimate_clothing_gloves_4.png	104	inanimate	clothing	gloves	4	0	4	stars	3	incorrect	0.940331956604496
238765	1	stim172_inanimate_plants_sunflower_4.png	172	inanimate	plants	sunflower	4	0	4	stars	3	incorrect	0.940331956604496
238965	1	stim178_inanimate_plants_tulip_2.png	178	inanimate	plants	tulip	2	0	4	stars	3	incorrect	0.940331956604496
239165	1	stim141_inanimate_furniture_bed_1.png	141	inanimate	furniture	bed	1	0	4	stars	3	incorrect	0.940331956604496
239365	1	stim171_inanimate_plants_sunflower_3.png	171	inanimate	plants	sunflower	3	0	4	stars	3	incorrect	0.940331956604496
239565	1	stim150_inanimate_furniture_closet_2.png	150	inanimate	furniture	closet	2	0	4	stars	3	incorrect	0.940331956604496
239765	1	stim198_inanimate_tools_wrench_2.png	198	inanimate	tools	wrench	2	0	4	stars	3	incorrect	0.940331956604496
239965	1	stim137_inanimate_fruits_strawberry_1.png	137	inanimate	fruits	strawberry	1	0	4	stars	3	incorrect	0.940331956604496
240165	1	stim189_inanimate_tools_pan_1.png	189	inanimate	tools	pan	1	0	4	stars	3	incorrect	0.940331956604496
240365	1	stim020_animate_aquatic_shrimp_4.png	20	animate	aquatic	shrimp	4	0	4	stars	3	incorrect	0.940331956604496
240565	1	stim156_inanimate_furniture_sofa_4.png	156	inanimate	furniture	sofa	4	0	4	stars	3	incorrect	0.940331956604496
240765	1	stim076_animate_insect_dragonfly_4.png	76	animate	insect	dragonfly	4	0	4	stars	3	incorrect	0.940331956604496
240965	1	stim112_inanimate_clothing_jeans_4.png	112	inanimate	clothing	jeans	4	0	4	stars	3	incorrect	0.940331956604496
241165	1	stim131_inanimate_fruits_grape_3.png	131	inanimate	fruits	grape	3	0	4	stars	3	incorrect	0.940331956604496
241365	1	stim069_animate_insect_butterfly_1.png	69	animate	insect	butterfly	1	0	4	stars	3	incorrect	0.940331956604496
241565	1	stim077_animate_insect_grasshopper_1.png	77	animate	insect	grasshopper	1	0	4	stars	3	incorrect	0.940331956604496
249499	1	stim094_animate_mammal_monkey_2.png	94	animate	mammal	monkey	2	0	5	stars	3	correct	1.17492153588682
249699	1	stim131_inanimate_fruits_grape_3.png	131	inanimate	fruits	grape	3	0	5	stars	3	correct	1.17492153588682
249899	1	stim022_animate_bird_chicken_2.png	22	animate	bird	chicken	2	0	5	stars	3	correct	1.17492153588682
250099	1	stim103_inanimate_clothing_gloves_3.png	103	inanimate	clothing	gloves	3	0	5	stars	3	correct	1.17492153588682
250299	1	stim037_animate_bird_penguin_1.png	37	animate	bird	penguin	1	0	5	stars	3	correct	1.17492153588682
250499	1	stim147_inanimate_furniture_chair_3.png	147	inanimate	furniture	chair	3	0	5	stars	3	correct	1.17492153588682
250699	1	stim035_animate_bird_peacock_3.png	35	animate	bird	peacock	3	0	5	stars	3	correct	1.17492153588682
250899	1	stim011_animate_aquatic_seahorse_3.png	11	animate	aquatic	seahorse	3	0	5	stars	3	correct	1.17492153588682
251099	1	stim186_inanimate_tools_hammer_2.png	186	inanimate	tools	hammer	2	0	5	stars	3	correct	1.17492153588682
251299	1	stim006_animate_aquatic_fish_2.png	6	animate	aquatic	fish	2	0	5	stars	3	correct	1.17492153588682
251499	1	stim014_animate_aquatic_shark_2.png	14	animate	aquatic	shark	2	0	5	stars	3	correct	1.17492153588682
251699	1	stim075_animate_insect_dragonfly_3.png	75	animate	insect	dragonfly	3	0	5	stars	3	correct	1.17492153588682
251899	1	stim128_inanimate_fruits_banana_4.png	128	inanimate	fruits	banana	4	0	5	stars	3	correct	1.17492153588682
252099	1	stim172_inanimate_plants_sunflower_4.png	172	inanimate	plants	sunflower	4	0	5	stars	3	correct	1.17492153588682
252299	1	stim136_inanimate_fruits_pineapple_4.png	136	inanimate	fruits	pineapple	4	0	5	stars	3	correct	1.17492153588682
252499	1	stim026_animate_bird_duck_2.png	26	animate	bird	duck	2	0	5	stars	3	correct	1.17492153588682
252699	1	stim135_inanimate_fruits_pineapple_3.png	135	inanimate	fruits	pineapple	3	0	5	stars	3	correct	1.17492153588682
252899	1	stim079_animate_insect_grasshopper_3.png	79	animate	insect	grasshopper	3	0	5	stars	3	correct	1.17492153588682
253099	1	stim013_animate_aquatic_shark_1.png	13	animate	aquatic	shark	1	0	5	stars	3	correct	1.17492153588682
253299	1	stim173_inanimate_plants_tree_1.png	173	inanimate	plants	tree	1	0	5	stars	3	correct	1.17492153588682
253499	1	stim171_inanimate_plants_sunflower_3.png	171	inanimate	plants	sunflower	3	0	5	stars	3	correct	1.17492153588682
253699	1	stim150_inanimate_furniture_closet_2.png	150	inanimate	furniture	closet	2	0	5	stars	3	correct	1.17492153588682
253899	1	stim112_inanimate_clothing_jeans_4.png	112	inanimate	clothing	jeans	4	0	5	stars	3	correct	1.17492153588682
254099	1	stim106_inanimate_clothing_hat_2.png	106	inanimate	clothing	hat	2	0	5	stars	3	correct	1.17492153588682
254299	1	stim099_animate_mammal_rhino_3.png	99	animate	mammal	rhino	3	0	5	stars	3	correct	1.17492153588682
254499	1	stim032_animate_bird_parrot_4.png	32	animate	bird	parrot	4	0	5	stars	3	correct	1.17492153588682
254699	1	stim077_animate_insect_grasshopper_1.png	77	animate	insect	grasshopper	1	0	5	stars	3	correct	1.17492153588682
254899	1	stim197_inanimate_tools_wrench_1.png	197	inanimate	tools	wrench	1	0	5	stars	3	correct	1.17492153588682
255099	1	stim141_inanimate_furniture_bed_1.png	141	inanimate	furniture	bed	1	0	5	stars	3	correct	1.17492153588682
255299	1	stim009_animate_aquatic_seahorse_1.png	9	animate	aquatic	seahorse	1	0	5	stars	3	correct	1.17492153588682
255499	1	stim189_inanimate_tools_pan_1.png	189	inanimate	tools	pan	1	0	5	stars	3	correct	1.17492153588682
255699	1	stim154_inanimate_furniture_sofa_2.png	154	inanimate	furniture	sofa	2	0	5	stars	3	correct	1.17492153588682
255899	1	stim055_animate_human_faces_3.png	55	animate	human	faces	3	0	5	stars	3	correct	1.17492153588682
256099	1	stim182_inanimate_tools_broom_2.png	182	inanimate	tools	broom	2	0	5	stars	3	correct	1.17492153588682
256299	1	stim199_inanimate_tools_wrench_3.png	199	inanimate	tools	wrench	3	0	5	stars	3	correct	1.17492153588682
256499	1	stim097_animate_mammal_rhino_1.png	97	animate	mammal	rhino	1	0	5	stars	3	correct	1.17492153588682
256699	1	stim117_inanimate_clothing_socks_1.png	117	inanimate	clothing	socks	1	0	5	stars	3	correct	1.17492153588682
256899	1	stim049_animate_human_clown_1.png	49	animate	human	clown	1	0	5	stars	3	correct	1.17492153588682
257099	1	stim072_animate_insect_butterfly_4.png	72	animate	insect	butterfly	4	0	5	stars	3	correct	1.17492153588682
257299	1	stim160_inanimate_furniture_table_4.png	160	inanimate	furniture	table	4	0	5	stars	3	correct	1.17492153588682
257499	1	stim149_inanimate_furniture_closet_1.png	149	inanimate	furniture	closet	1	0	5	stars	3	correct	1.17492153588682
257699	1	stim098_animate_mammal_rhino_2.png	98	animate	mammal	rhino	2	0	5	stars	3	correct	1.17492153588682
257899	1	stim146_inanimate_furniture_chair_2.png	146	inanimate	furniture	chair	2	0	5	stars	3	correct	1.17492153588682
258099	1	stim046_animate_human_child_2.png	46	animate	human	child	2	0	5	stars	3	correct	1.17492153588682
258299	1	stim104_inanimate_clothing_gloves_4.png	104	inanimate	clothing	gloves	4	0	5	stars	3	correct	1.17492153588682
258499	1	stim164_inanimate_plants_bush_4.png	164	inanimate	plants	bush	4	0	5	stars	3	correct	1.17492153588682
258699	1	stim156_inanimate_furniture_sofa_4.png	156	inanimate	furniture	sofa	4	0	5	stars	3	correct	1.17492153588682
258899	1	stim137_inanimate_fruits_strawberry_1.png	137	inanimate	fruits	strawberry	1	0	5	stars	3	correct	1.17492153588682
259099	1	stim118_inanimate_clothing_socks_2.png	118	inanimate	clothing	socks	2	0	5	stars	3	correct	1.17492153588682
259299	1	stim102_inanimate_clothing_gloves_2.png	102	inanimate	clothing	gloves	2	0	5	stars	3	correct	1.17492153588682
259499	1	stim017_animate_aquatic_shrimp_1.png	17	animate	aquatic	shrimp	1	0	5	stars	3	correct	1.17492153588682
259699	1	stim158_inanimate_furniture_table_2.png	158	inanimate	furniture	table	2	0	5	stars	3	correct	1.17492153588682
259899	1	stim027_animate_bird_duck_3.png	27	animate	bird	duck	3	0	5	stars	3	correct	1.17492153588682
260099	1	stim081_animate_mammal_cow_1.png	81	animate	mammal	cow	1	0	5	stars	3	correct	1.17492153588682
260299	1	stim015_animate_aquatic_shark_3.png	15	animate	aquatic	shark	3	0	5	stars	3	correct	1.17492153588682
260499	1	stim212_targets_shapes_star_4.png	212	targets	shapes	star	4	1	5	stars	3	correct	1.17492153588682
260699	1	stim174_inanimate_plants_tree_2.png	174	inanimate	plants	tree	2	0	5	stars	3	correct	1.17492153588682
260899	1	stim176_inanimate_plants_tree_4.png	176	inanimate	plants	tree	4	0	5	stars	3	correct	1.17492153588682
261099	1	stim200_inanimate_tools_wrench_4.png	200	inanimate	tools	wrench	4	0	5	stars	3	correct	1.17492153588682
261299	1	stim181_inanimate_tools_broom_1.png	181	inanimate	tools	broom	1	0	5	stars	3	correct	1.17492153588682
261499	1	stim093_animate_mammal_monkey_1.png	93	animate	mammal	monkey	1	0	5	stars	3	correct	1.17492153588682
261699	1	stim025_animate_bird_duck_1.png	25	animate	bird	duck	1	0	5	stars	3	correct	1.17492153588682
261899	1	stim170_inanimate_plants_sunflower_2.png	170	inanimate	plants	sunflower	2	0	5	stars	3	correct	1.17492153588682
262099	1	stim188_inanimate_tools_hammer_4.png	188	inanimate	tools	hammer	4	0	5	stars	3	correct	1.17492153588682
262299	1	stim062_animate_insect_ant_2.png	62	animate	insect	ant	2	0	5	stars	3	correct	1.17492153588682
262499	1	stim133_inanimate_fruits_pineapple_1.png	133	inanimate	fruits	pineapple	1	0	5	stars	3	correct	1.17492153588682
262699	1	stim193_inanimate_tools_scissors_1.png	193	inanimate	tools	scissors	1	0	5	stars	3	correct	1.17492153588682
262899	1	stim016_animate_aquatic_shark_4.png	16	animate	aquatic	shark	4	0	5	stars	3	correct	1.17492153588682
263099	1	stim021_animate_bird_chicken_1.png	21	animate	bird	chicken	1	0	5	stars	3	correct	1.17492153588682
263299	1	stim019_animate_aquatic_shrimp_3.png	19	animate	aquatic	shrimp	3	0	5	stars	3	correct	1.17492153588682
263499	1	stim059_animate_human_sports_3.png	59	animate	human	sports	3	0	5	stars	3	correct	1.17492153588682
263699	1	stim090_animate_mammal_kangaroo_2.png	90	animate	mammal	kangaroo	2	0	5	stars	3	correct	1.17492153588682
263899	1	stim040_animate_bird_penguin_4.png	40	animate	bird	penguin	4	0	5	stars	3	correct	1.17492153588682
264099	1	stim157_inanimate_furniture_table_1.png	157	inanimate	furniture	table	1	0	5	stars	3	correct	1.17492153588682
264299	1	stim028_animate_bird_duck_4.png	28	animate	bird	duck	4	0	5	stars	3	correct	1.17492153588682
264499	1	stim033_animate_bird_peacock_1.png	33	animate	bird	peacock	1	0	5	stars	3	correct	1.17492153588682
264699	1	stim078_animate_insect_grasshopper_2.png	78	animate	insect	grasshopper	2	0	5	stars	3	correct	1.17492153588682
264899	1	stim115_inanimate_clothing_shirt_3.png	115	inanimate	clothing	shirt	3	0	5	stars	3	correct	1.17492153588682
265099	1	stim113_inanimate_clothing_shirt_1.png	113	inanimate	clothing	shirt	1	0	5	stars	3	correct	1.17492153588682
265299	1	stim159_inanimate_furniture_table_3.png	159	inanimate	furniture	table	3	0	5	stars	3	correct	1.17492153588682
265499	1	stim095_animate_mammal_monkey_3.png	95	animate	mammal	monkey	3	0	5	stars	3	correct	1.17492153588682
