onset	duration	stimulusname	stimulusnumber	levelA	levelB	levelC	withinexemplarnumber	istarget	trialnumber	condition	response	correct	rt
30337	1	stim158_inanimate_furniture_table_2.png	158	inanimate	furniture	table	2	0	1	stars	4	correct	0.70360197185073
30387	1	stim098_animate_mammal_rhino_2.png	98	animate	mammal	rhino	2	0	1	stars	4	correct	0.70360197185073
30437	1	stim199_inanimate_tools_wrench_3.png	199	inanimate	tools	wrench	3	0	1	stars	4	correct	0.70360197185073
30487	1	stim170_inanimate_plants_sunflower_2.png	170	inanimate	plants	sunflower	2	0	1	stars	4	correct	0.70360197185073
30537	1	stim007_animate_aquatic_fish_3.png	7	animate	aquatic	fish	3	0	1	stars	4	correct	0.70360197185073
30587	1	stim182_inanimate_tools_broom_2.png	182	inanimate	tools	broom	2	0	1	stars	4	correct	0.70360197185073
30637	1	stim105_inanimate_clothing_hat_1.png	105	inanimate	clothing	hat	1	0	1	stars	4	correct	0.70360197185073
30687	1	stim049_animate_human_clown_1.png	49	animate	human	clown	1	0	1	stars	4	correct	0.70360197185073
30737	1	stim091_animate_mammal_kangaroo_3.png	91	animate	mammal	kangaroo	3	0	1	stars	4	correct	0.70360197185073
30787	1	stim178_inanimate_plants_tulip_2.png	178	inanimate	plants	tulip	2	0	1	stars	4	correct	0.70360197185073
30837	1	stim070_animate_insect_butterfly_2.png	70	animate	insect	butterfly	2	0	1	stars	4	correct	0.70360197185073
30887	1	stim161_inanimate_plants_bush_1.png	161	inanimate	plants	bush	1	0	1	stars	4	correct	0.70360197185073
30937	1	stim121_inanimate_fruits_apple_1.png	121	inanimate	fruits	apple	1	0	1	stars	4	correct	0.70360197185073
30987	1	stim061_animate_insect_ant_1.png	61	animate	insect	ant	1	0	1	stars	4	correct	0.70360197185073
31037	1	stim188_inanimate_tools_hammer_4.png	188	inanimate	tools	hammer	4	0	1	stars	4	correct	0.70360197185073
31087	1	stim078_animate_insect_grasshopper_2.png	78	animate	insect	grasshopper	2	0	1	stars	4	correct	0.70360197185073
31137	1	stim073_animate_insect_dragonfly_1.png	73	animate	insect	dragonfly	1	0	1	stars	4	correct	0.70360197185073
31187	1	stim024_animate_bird_chicken_4.png	24	animate	bird	chicken	4	0	1	stars	4	correct	0.70360197185073
31237	1	stim085_animate_mammal_giraffe_1.png	85	animate	mammal	giraffe	1	0	1	stars	4	correct	0.70360197185073
31287	1	stim092_animate_mammal_kangaroo_4.png	92	animate	mammal	kangaroo	4	0	1	stars	4	correct	0.70360197185073
31337	1	stim197_inanimate_tools_wrench_1.png	197	inanimate	tools	wrench	1	0	1	stars	4	correct	0.70360197185073
31387	1	stim163_inanimate_plants_bush_3.png	163	inanimate	plants	bush	3	0	1	stars	4	correct	0.70360197185073
31437	1	stim021_animate_bird_chicken_1.png	21	animate	bird	chicken	1	0	1	stars	4	correct	0.70360197185073
31487	1	stim136_inanimate_fruits_pineapple_4.png	136	inanimate	fruits	pineapple	4	0	1	stars	4	correct	0.70360197185073
31537	1	stim020_animate_aquatic_shrimp_4.png	20	animate	aquatic	shrimp	4	0	1	stars	4	correct	0.70360197185073
31587	1	stim068_animate_insect_bug_4.png	68	animate	insect	bug	4	0	1	stars	4	correct	0.70360197185073
31637	1	stim164_inanimate_plants_bush_4.png	164	inanimate	plants	bush	4	0	1	stars	4	correct	0.70360197185073
31687	1	stim148_inanimate_furniture_chair_4.png	148	inanimate	furniture	chair	4	0	1	stars	4	correct	0.70360197185073
31737	1	stim113_inanimate_clothing_shirt_1.png	113	inanimate	clothing	shirt	1	0	1	stars	4	correct	0.70360197185073
31787	1	stim035_animate_bird_peacock_3.png	35	animate	bird	peacock	3	0	1	stars	4	correct	0.70360197185073
31837	1	stim053_animate_human_faces_1.png	53	animate	human	faces	1	0	1	stars	4	correct	0.70360197185073
31887	1	stim159_inanimate_furniture_table_3.png	159	inanimate	furniture	table	3	0	1	stars	4	correct	0.70360197185073
31937	1	stim030_animate_bird_parrot_2.png	30	animate	bird	parrot	2	0	1	stars	4	correct	0.70360197185073
31987	1	stim117_inanimate_clothing_socks_1.png	117	inanimate	clothing	socks	1	0	1	stars	4	correct	0.70360197185073
32037	1	stim145_inanimate_furniture_chair_1.png	145	inanimate	furniture	chair	1	0	1	stars	4	correct	0.70360197185073
32087	1	stim140_inanimate_fruits_strawberry_4.png	140	inanimate	fruits	strawberry	4	0	1	stars	4	correct	0.70360197185073
32137	1	stim108_inanimate_clothing_hat_4.png	108	inanimate	clothing	hat	4	0	1	stars	4	correct	0.70360197185073
32187	1	stim060_animate_human_sports_4.png	60	animate	human	sports	4	0	1	stars	4	correct	0.70360197185073
32237	1	stim137_inanimate_fruits_strawberry_1.png	137	inanimate	fruits	strawberry	1	0	1	stars	4	correct	0.70360197185073
32287	1	stim147_inanimate_furniture_chair_3.png	147	inanimate	furniture	chair	3	0	1	stars	4	correct	0.70360197185073
32337	1	stim115_inanimate_clothing_shirt_3.png	115	inanimate	clothing	shirt	3	0	1	stars	4	correct	0.70360197185073
32387	1	stim187_inanimate_tools_hammer_3.png	187	inanimate	tools	hammer	3	0	1	stars	4	correct	0.70360197185073
32437	1	stim026_animate_bird_duck_2.png	26	animate	bird	duck	2	0	1	stars	4	correct	0.70360197185073
32487	1	stim039_animate_bird_penguin_3.png	39	animate	bird	penguin	3	0	1	stars	4	correct	0.70360197185073
32537	1	stim127_inanimate_fruits_banana_3.png	127	inanimate	fruits	banana	3	0	1	stars	4	correct	0.70360197185073
32587	1	stim008_animate_aquatic_fish_4.png	8	animate	aquatic	fish	4	0	1	stars	4	correct	0.70360197185073
32637	1	stim149_inanimate_furniture_closet_1.png	149	inanimate	furniture	closet	1	0	1	stars	4	correct	0.70360197185073
32687	1	stim064_animate_insect_ant_4.png	64	animate	insect	ant	4	0	1	stars	4	correct	0.70360197185073
32737	1	stim213_targets_shapes_star_1.png	213	targets	shapes	star	1	1	1	stars	4	correct	0.70360197185073
32787	1	stim118_inanimate_clothing_socks_2.png	118	inanimate	clothing	socks	2	0	1	stars	4	correct	0.70360197185073
32837	1	stim175_inanimate_plants_tree_3.png	175	inanimate	plants	tree	3	0	1	stars	4	correct	0.70360197185073
32887	1	stim107_inanimate_clothing_hat_3.png	107	inanimate	clothing	hat	3	0	1	stars	4	correct	0.70360197185073
32937	1	stim165_inanimate_plants_cactus_1.png	165	inanimate	plants	cactus	1	0	1	stars	4	correct	0.70360197185073
32987	1	stim150_inanimate_furniture_closet_2.png	150	inanimate	furniture	closet	2	0	1	stars	4	correct	0.70360197185073
33037	1	stim004_animate_aquatic_crab_4.png	4	animate	aquatic	crab	4	0	1	stars	4	correct	0.70360197185073
33087	1	stim166_inanimate_plants_cactus_2.png	166	inanimate	plants	cactus	2	0	1	stars	4	correct	0.70360197185073
33137	1	stim089_animate_mammal_kangaroo_1.png	89	animate	mammal	kangaroo	1	0	1	stars	4	correct	0.70360197185073
33187	1	stim138_inanimate_fruits_strawberry_2.png	138	inanimate	fruits	strawberry	2	0	1	stars	4	correct	0.70360197185073
33237	1	stim040_animate_bird_penguin_4.png	40	animate	bird	penguin	4	0	1	stars	4	correct	0.70360197185073
33287	1	stim143_inanimate_furniture_bed_3.png	143	inanimate	furniture	bed	3	0	1	stars	4	correct	0.70360197185073
33337	1	stim099_animate_mammal_rhino_3.png	99	animate	mammal	rhino	3	0	1	stars	4	correct	0.70360197185073
33387	1	stim093_animate_mammal_monkey_1.png	93	animate	mammal	monkey	1	0	1	stars	4	correct	0.70360197185073
33437	1	stim050_animate_human_clown_2.png	50	animate	human	clown	2	0	1	stars	4	correct	0.70360197185073
33487	1	stim056_animate_human_faces_4.png	56	animate	human	faces	4	0	1	stars	4	correct	0.70360197185073
33537	1	stim062_animate_insect_ant_2.png	62	animate	insect	ant	2	0	1	stars	4	correct	0.70360197185073
33587	1	stim047_animate_human_child_3.png	47	animate	human	child	3	0	1	stars	4	correct	0.70360197185073
33637	1	stim081_animate_mammal_cow_1.png	81	animate	mammal	cow	1	0	1	stars	4	correct	0.70360197185073
33687	1	stim067_animate_insect_bug_3.png	67	animate	insect	bug	3	0	1	stars	4	correct	0.70360197185073
33737	1	stim173_inanimate_plants_tree_1.png	173	inanimate	plants	tree	1	0	1	stars	4	correct	0.70360197185073
33787	1	stim082_animate_mammal_cow_2.png	82	animate	mammal	cow	2	0	1	stars	4	correct	0.70360197185073
33837	1	stim033_animate_bird_peacock_1.png	33	animate	bird	peacock	1	0	1	stars	4	correct	0.70360197185073
33887	1	stim155_inanimate_furniture_sofa_3.png	155	inanimate	furniture	sofa	3	0	1	stars	4	correct	0.70360197185073
33937	1	stim168_inanimate_plants_cactus_4.png	168	inanimate	plants	cactus	4	0	1	stars	4	correct	0.70360197185073
33987	1	stim029_animate_bird_parrot_1.png	29	animate	bird	parrot	1	0	1	stars	4	correct	0.70360197185073
34037	1	stim090_animate_mammal_kangaroo_2.png	90	animate	mammal	kangaroo	2	0	1	stars	4	correct	0.70360197185073
34087	1	stim052_animate_human_clown_4.png	52	animate	human	clown	4	0	1	stars	4	correct	0.70360197185073
34137	1	stim096_animate_mammal_monkey_4.png	96	animate	mammal	monkey	4	0	1	stars	4	correct	0.70360197185073
34187	1	stim031_animate_bird_parrot_3.png	31	animate	bird	parrot	3	0	1	stars	4	correct	0.70360197185073
34237	1	stim133_inanimate_fruits_pineapple_1.png	133	inanimate	fruits	pineapple	1	0	1	stars	4	correct	0.70360197185073
34287	1	stim214_targets_shapes_star_2.png	214	targets	shapes	star	2	1	1	stars	4	correct	0.70360197185073
34337	1	stim135_inanimate_fruits_pineapple_3.png	135	inanimate	fruits	pineapple	3	0	1	stars	4	correct	0.70360197185073
34387	1	stim042_animate_human_baby_2.png	42	animate	human	baby	2	0	1	stars	4	correct	0.70360197185073
34437	1	stim075_animate_insect_dragonfly_3.png	75	animate	insect	dragonfly	3	0	1	stars	4	correct	0.70360197185073
34487	1	stim183_inanimate_tools_broom_3.png	183	inanimate	tools	broom	3	0	1	stars	4	correct	0.70360197185073
34537	1	stim153_inanimate_furniture_sofa_1.png	153	inanimate	furniture	sofa	1	0	1	stars	4	correct	0.70360197185073
34587	1	stim198_inanimate_tools_wrench_2.png	198	inanimate	tools	wrench	2	0	1	stars	4	correct	0.70360197185073
34637	1	stim179_inanimate_plants_tulip_3.png	179	inanimate	plants	tulip	3	0	1	stars	4	correct	0.70360197185073
34687	1	stim172_inanimate_plants_sunflower_4.png	172	inanimate	plants	sunflower	4	0	1	stars	4	correct	0.70360197185073
34737	1	stim036_animate_bird_peacock_4.png	36	animate	bird	peacock	4	0	1	stars	4	correct	0.70360197185073
34787	1	stim016_animate_aquatic_shark_4.png	16	animate	aquatic	shark	4	0	1	stars	4	correct	0.70360197185073
34837	1	stim023_animate_bird_chicken_3.png	23	animate	bird	chicken	3	0	1	stars	4	correct	0.70360197185073
34887	1	stim094_animate_mammal_monkey_2.png	94	animate	mammal	monkey	2	0	1	stars	4	correct	0.70360197185073
34937	1	stim125_inanimate_fruits_banana_1.png	125	inanimate	fruits	banana	1	0	1	stars	4	correct	0.70360197185073
34987	1	stim190_inanimate_tools_pan_2.png	190	inanimate	tools	pan	2	0	1	stars	4	correct	0.70360197185073
35037	1	stim044_animate_human_baby_4.png	44	animate	human	baby	4	0	1	stars	4	correct	0.70360197185073
35087	1	stim167_inanimate_plants_cactus_3.png	167	inanimate	plants	cactus	3	0	1	stars	4	correct	0.70360197185073
35137	1	stim019_animate_aquatic_shrimp_3.png	19	animate	aquatic	shrimp	3	0	1	stars	4	correct	0.70360197185073
35187	1	stim156_inanimate_furniture_sofa_4.png	156	inanimate	furniture	sofa	4	0	1	stars	4	correct	0.70360197185073
35237	1	stim017_animate_aquatic_shrimp_1.png	17	animate	aquatic	shrimp	1	0	1	stars	4	correct	0.70360197185073
35287	1	stim025_animate_bird_duck_1.png	25	animate	bird	duck	1	0	1	stars	4	correct	0.70360197185073
35337	1	stim152_inanimate_furniture_closet_4.png	152	inanimate	furniture	closet	4	0	1	stars	4	correct	0.70360197185073
35387	1	stim097_animate_mammal_rhino_1.png	97	animate	mammal	rhino	1	0	1	stars	4	correct	0.70360197185073
35437	1	stim101_inanimate_clothing_gloves_1.png	101	inanimate	clothing	gloves	1	0	1	stars	4	correct	0.70360197185073
35487	1	stim120_inanimate_clothing_socks_4.png	120	inanimate	clothing	socks	4	0	1	stars	4	correct	0.70360197185073
35537	1	stim130_inanimate_fruits_grape_2.png	130	inanimate	fruits	grape	2	0	1	stars	4	correct	0.70360197185073
35587	1	stim195_inanimate_tools_scissors_3.png	195	inanimate	tools	scissors	3	0	1	stars	4	correct	0.70360197185073
35637	1	stim001_animate_aquatic_crab_1.png	1	animate	aquatic	crab	1	0	1	stars	4	correct	0.70360197185073
35687	1	stim066_animate_insect_bug_2.png	66	animate	insect	bug	2	0	1	stars	4	correct	0.70360197185073
35737	1	stim119_inanimate_clothing_socks_3.png	119	inanimate	clothing	socks	3	0	1	stars	4	correct	0.70360197185073
35787	1	stim192_inanimate_tools_pan_4.png	192	inanimate	tools	pan	4	0	1	stars	4	correct	0.70360197185073
35837	1	stim154_inanimate_furniture_sofa_2.png	154	inanimate	furniture	sofa	2	0	1	stars	4	correct	0.70360197185073
35887	1	stim027_animate_bird_duck_3.png	27	animate	bird	duck	3	0	1	stars	4	correct	0.70360197185073
35937	1	stim139_inanimate_fruits_strawberry_3.png	139	inanimate	fruits	strawberry	3	0	1	stars	4	correct	0.70360197185073
35987	1	stim034_animate_bird_peacock_2.png	34	animate	bird	peacock	2	0	1	stars	4	correct	0.70360197185073
36037	1	stim185_inanimate_tools_hammer_1.png	185	inanimate	tools	hammer	1	0	1	stars	4	correct	0.70360197185073
36087	1	stim045_animate_human_child_1.png	45	animate	human	child	1	0	1	stars	4	correct	0.70360197185073
36137	1	stim157_inanimate_furniture_table_1.png	157	inanimate	furniture	table	1	0	1	stars	4	correct	0.70360197185073
36187	1	stim106_inanimate_clothing_hat_2.png	106	inanimate	clothing	hat	2	0	1	stars	4	correct	0.70360197185073
36237	1	stim022_animate_bird_chicken_2.png	22	animate	bird	chicken	2	0	1	stars	4	correct	0.70360197185073
36287	1	stim193_inanimate_tools_scissors_1.png	193	inanimate	tools	scissors	1	0	1	stars	4	correct	0.70360197185073
36337	1	stim046_animate_human_child_2.png	46	animate	human	child	2	0	1	stars	4	correct	0.70360197185073
36387	1	stim216_targets_shapes_star_4.png	216	targets	shapes	star	4	1	1	stars	4	correct	0.70360197185073
36437	1	stim123_inanimate_fruits_apple_3.png	123	inanimate	fruits	apple	3	0	1	stars	4	correct	0.70360197185073
36487	1	stim184_inanimate_tools_broom_4.png	184	inanimate	tools	broom	4	0	1	stars	4	correct	0.70360197185073
36537	1	stim028_animate_bird_duck_4.png	28	animate	bird	duck	4	0	1	stars	4	correct	0.70360197185073
36587	1	stim141_inanimate_furniture_bed_1.png	141	inanimate	furniture	bed	1	0	1	stars	4	correct	0.70360197185073
36637	1	stim009_animate_aquatic_seahorse_1.png	9	animate	aquatic	seahorse	1	0	1	stars	4	correct	0.70360197185073
36687	1	stim043_animate_human_baby_3.png	43	animate	human	baby	3	0	1	stars	4	correct	0.70360197185073
36737	1	stim077_animate_insect_grasshopper_1.png	77	animate	insect	grasshopper	1	0	1	stars	4	correct	0.70360197185073
36787	1	stim132_inanimate_fruits_grape_4.png	132	inanimate	fruits	grape	4	0	1	stars	4	correct	0.70360197185073
36837	1	stim169_inanimate_plants_sunflower_1.png	169	inanimate	plants	sunflower	1	0	1	stars	4	correct	0.70360197185073
36887	1	stim059_animate_human_sports_3.png	59	animate	human	sports	3	0	1	stars	4	correct	0.70360197185073
36937	1	stim063_animate_insect_ant_3.png	63	animate	insect	ant	3	0	1	stars	4	correct	0.70360197185073
36987	1	stim018_animate_aquatic_shrimp_2.png	18	animate	aquatic	shrimp	2	0	1	stars	4	correct	0.70360197185073
37037	1	stim181_inanimate_tools_broom_1.png	181	inanimate	tools	broom	1	0	1	stars	4	correct	0.70360197185073
37087	1	stim144_inanimate_furniture_bed_4.png	144	inanimate	furniture	bed	4	0	1	stars	4	correct	0.70360197185073
37137	1	stim074_animate_insect_dragonfly_2.png	74	animate	insect	dragonfly	2	0	1	stars	4	correct	0.70360197185073
37187	1	stim176_inanimate_plants_tree_4.png	176	inanimate	plants	tree	4	0	1	stars	4	correct	0.70360197185073
37237	1	stim041_animate_human_baby_1.png	41	animate	human	baby	1	0	1	stars	4	correct	0.70360197185073
37287	1	stim102_inanimate_clothing_gloves_2.png	102	inanimate	clothing	gloves	2	0	1	stars	4	correct	0.70360197185073
37337	1	stim071_animate_insect_butterfly_3.png	71	animate	insect	butterfly	3	0	1	stars	4	correct	0.70360197185073
37387	1	stim114_inanimate_clothing_shirt_2.png	114	inanimate	clothing	shirt	2	0	1	stars	4	correct	0.70360197185073
37437	1	stim211_targets_shapes_star_3.png	211	targets	shapes	star	3	1	1	stars	4	correct	0.70360197185073
37487	1	stim191_inanimate_tools_pan_3.png	191	inanimate	tools	pan	3	0	1	stars	4	correct	0.70360197185073
37537	1	stim104_inanimate_clothing_gloves_4.png	104	inanimate	clothing	gloves	4	0	1	stars	4	correct	0.70360197185073
37587	1	stim095_animate_mammal_monkey_3.png	95	animate	mammal	monkey	3	0	1	stars	4	correct	0.70360197185073
37637	1	stim057_animate_human_sports_1.png	57	animate	human	sports	1	0	1	stars	4	correct	0.70360197185073
37687	1	stim080_animate_insect_grasshopper_4.png	80	animate	insect	grasshopper	4	0	1	stars	4	correct	0.70360197185073
37737	1	stim128_inanimate_fruits_banana_4.png	128	inanimate	fruits	banana	4	0	1	stars	4	correct	0.70360197185073
37787	1	stim200_inanimate_tools_wrench_4.png	200	inanimate	tools	wrench	4	0	1	stars	4	correct	0.70360197185073
37837	1	stim069_animate_insect_butterfly_1.png	69	animate	insect	butterfly	1	0	1	stars	4	correct	0.70360197185073
37887	1	stim100_animate_mammal_rhino_4.png	100	animate	mammal	rhino	4	0	1	stars	4	correct	0.70360197185073
37937	1	stim131_inanimate_fruits_grape_3.png	131	inanimate	fruits	grape	3	0	1	stars	4	correct	0.70360197185073
37987	1	stim058_animate_human_sports_2.png	58	animate	human	sports	2	0	1	stars	4	correct	0.70360197185073
38037	1	stim124_inanimate_fruits_apple_4.png	124	inanimate	fruits	apple	4	0	1	stars	4	correct	0.70360197185073
38087	1	stim014_animate_aquatic_shark_2.png	14	animate	aquatic	shark	2	0	1	stars	4	correct	0.70360197185073
38137	1	stim072_animate_insect_butterfly_4.png	72	animate	insect	butterfly	4	0	1	stars	4	correct	0.70360197185073
38187	1	stim032_animate_bird_parrot_4.png	32	animate	bird	parrot	4	0	1	stars	4	correct	0.70360197185073
38237	1	stim109_inanimate_clothing_jeans_1.png	109	inanimate	clothing	jeans	1	0	1	stars	4	correct	0.70360197185073
38287	1	stim011_animate_aquatic_seahorse_3.png	11	animate	aquatic	seahorse	3	0	1	stars	4	correct	0.70360197185073
38337	1	stim037_animate_bird_penguin_1.png	37	animate	bird	penguin	1	0	1	stars	4	correct	0.70360197185073
38387	1	stim103_inanimate_clothing_gloves_3.png	103	inanimate	clothing	gloves	3	0	1	stars	4	correct	0.70360197185073
38437	1	stim013_animate_aquatic_shark_1.png	13	animate	aquatic	shark	1	0	1	stars	4	correct	0.70360197185073
38487	1	stim112_inanimate_clothing_jeans_4.png	112	inanimate	clothing	jeans	4	0	1	stars	4	correct	0.70360197185073
38537	1	stim087_animate_mammal_giraffe_3.png	87	animate	mammal	giraffe	3	0	1	stars	4	correct	0.70360197185073
38587	1	stim010_animate_aquatic_seahorse_2.png	10	animate	aquatic	seahorse	2	0	1	stars	4	correct	0.70360197185073
38637	1	stim048_animate_human_child_4.png	48	animate	human	child	4	0	1	stars	4	correct	0.70360197185073
38687	1	stim160_inanimate_furniture_table_4.png	160	inanimate	furniture	table	4	0	1	stars	4	correct	0.70360197185073
38737	1	stim151_inanimate_furniture_closet_3.png	151	inanimate	furniture	closet	3	0	1	stars	4	correct	0.70360197185073
38787	1	stim174_inanimate_plants_tree_2.png	174	inanimate	plants	tree	2	0	1	stars	4	correct	0.70360197185073
38837	1	stim171_inanimate_plants_sunflower_3.png	171	inanimate	plants	sunflower	3	0	1	stars	4	correct	0.70360197185073
38887	1	stim054_animate_human_faces_2.png	54	animate	human	faces	2	0	1	stars	4	correct	0.70360197185073
38937	1	stim079_animate_insect_grasshopper_3.png	79	animate	insect	grasshopper	3	0	1	stars	4	correct	0.70360197185073
38987	1	stim088_animate_mammal_giraffe_4.png	88	animate	mammal	giraffe	4	0	1	stars	4	correct	0.70360197185073
39037	1	stim051_animate_human_clown_3.png	51	animate	human	clown	3	0	1	stars	4	correct	0.70360197185073
39087	1	stim146_inanimate_furniture_chair_2.png	146	inanimate	furniture	chair	2	0	1	stars	4	correct	0.70360197185073
39137	1	stim003_animate_aquatic_crab_3.png	3	animate	aquatic	crab	3	0	1	stars	4	correct	0.70360197185073
39187	1	stim084_animate_mammal_cow_4.png	84	animate	mammal	cow	4	0	1	stars	4	correct	0.70360197185073
39237	1	stim083_animate_mammal_cow_3.png	83	animate	mammal	cow	3	0	1	stars	4	correct	0.70360197185073
39287	1	stim142_inanimate_furniture_bed_2.png	142	inanimate	furniture	bed	2	0	1	stars	4	correct	0.70360197185073
39337	1	stim055_animate_human_faces_3.png	55	animate	human	faces	3	0	1	stars	4	correct	0.70360197185073
39387	1	stim002_animate_aquatic_crab_2.png	2	animate	aquatic	crab	2	0	1	stars	4	correct	0.70360197185073
39437	1	stim126_inanimate_fruits_banana_2.png	126	inanimate	fruits	banana	2	0	1	stars	4	correct	0.70360197185073
39487	1	stim196_inanimate_tools_scissors_4.png	196	inanimate	tools	scissors	4	0	1	stars	4	correct	0.70360197185073
39537	1	stim110_inanimate_clothing_jeans_2.png	110	inanimate	clothing	jeans	2	0	1	stars	4	correct	0.70360197185073
39587	1	stim129_inanimate_fruits_grape_1.png	129	inanimate	fruits	grape	1	0	1	stars	4	correct	0.70360197185073
39637	1	stim162_inanimate_plants_bush_2.png	162	inanimate	plants	bush	2	0	1	stars	4	correct	0.70360197185073
39687	1	stim076_animate_insect_dragonfly_4.png	76	animate	insect	dragonfly	4	0	1	stars	4	correct	0.70360197185073
39737	1	stim015_animate_aquatic_shark_3.png	15	animate	aquatic	shark	3	0	1	stars	4	correct	0.70360197185073
39787	1	stim177_inanimate_plants_tulip_1.png	177	inanimate	plants	tulip	1	0	1	stars	4	correct	0.70360197185073
39837	1	stim180_inanimate_plants_tulip_4.png	180	inanimate	plants	tulip	4	0	1	stars	4	correct	0.70360197185073
39887	1	stim134_inanimate_fruits_pineapple_2.png	134	inanimate	fruits	pineapple	2	0	1	stars	4	correct	0.70360197185073
39937	1	stim005_animate_aquatic_fish_1.png	5	animate	aquatic	fish	1	0	1	stars	4	correct	0.70360197185073
39987	1	stim194_inanimate_tools_scissors_2.png	194	inanimate	tools	scissors	2	0	1	stars	4	correct	0.70360197185073
40037	1	stim116_inanimate_clothing_shirt_4.png	116	inanimate	clothing	shirt	4	0	1	stars	4	correct	0.70360197185073
40087	1	stim122_inanimate_fruits_apple_2.png	122	inanimate	fruits	apple	2	0	1	stars	4	correct	0.70360197185073
40137	1	stim038_animate_bird_penguin_2.png	38	animate	bird	penguin	2	0	1	stars	4	correct	0.70360197185073
40187	1	stim189_inanimate_tools_pan_1.png	189	inanimate	tools	pan	1	0	1	stars	4	correct	0.70360197185073
40237	1	stim012_animate_aquatic_seahorse_4.png	12	animate	aquatic	seahorse	4	0	1	stars	4	correct	0.70360197185073
40287	1	stim186_inanimate_tools_hammer_2.png	186	inanimate	tools	hammer	2	0	1	stars	4	correct	0.70360197185073
40337	1	stim086_animate_mammal_giraffe_2.png	86	animate	mammal	giraffe	2	0	1	stars	4	correct	0.70360197185073
40387	1	stim065_animate_insect_bug_1.png	65	animate	insect	bug	1	0	1	stars	4	correct	0.70360197185073
40437	1	stim006_animate_aquatic_fish_2.png	6	animate	aquatic	fish	2	0	1	stars	4	correct	0.70360197185073
40487	1	stim111_inanimate_clothing_jeans_3.png	111	inanimate	clothing	jeans	3	0	1	stars	4	correct	0.70360197185073
44371	1	stim136_inanimate_fruits_pineapple_4.png	136	inanimate	fruits	pineapple	4	0	2	boats	1	incorrect	1.40568037668709
44421	1	stim122_inanimate_fruits_apple_2.png	122	inanimate	fruits	apple	2	0	2	boats	1	incorrect	1.40568037668709
44471	1	stim198_inanimate_tools_wrench_2.png	198	inanimate	tools	wrench	2	0	2	boats	1	incorrect	1.40568037668709
44521	1	stim148_inanimate_furniture_chair_4.png	148	inanimate	furniture	chair	4	0	2	boats	1	incorrect	1.40568037668709
44571	1	stim088_animate_mammal_giraffe_4.png	88	animate	mammal	giraffe	4	0	2	boats	1	incorrect	1.40568037668709
44621	1	stim084_animate_mammal_cow_4.png	84	animate	mammal	cow	4	0	2	boats	1	incorrect	1.40568037668709
44671	1	stim180_inanimate_plants_tulip_4.png	180	inanimate	plants	tulip	4	0	2	boats	1	incorrect	1.40568037668709
44721	1	stim137_inanimate_fruits_strawberry_1.png	137	inanimate	fruits	strawberry	1	0	2	boats	1	incorrect	1.40568037668709
44771	1	stim001_animate_aquatic_crab_1.png	1	animate	aquatic	crab	1	0	2	boats	1	incorrect	1.40568037668709
44821	1	stim046_animate_human_child_2.png	46	animate	human	child	2	0	2	boats	1	incorrect	1.40568037668709
44871	1	stim112_inanimate_clothing_jeans_4.png	112	inanimate	clothing	jeans	4	0	2	boats	1	incorrect	1.40568037668709
44921	1	stim094_animate_mammal_monkey_2.png	94	animate	mammal	monkey	2	0	2	boats	1	incorrect	1.40568037668709
44971	1	stim074_animate_insect_dragonfly_2.png	74	animate	insect	dragonfly	2	0	2	boats	1	incorrect	1.40568037668709
45021	1	stim157_inanimate_furniture_table_1.png	157	inanimate	furniture	table	1	0	2	boats	1	incorrect	1.40568037668709
45071	1	stim067_animate_insect_bug_3.png	67	animate	insect	bug	3	0	2	boats	1	incorrect	1.40568037668709
45121	1	stim002_animate_aquatic_crab_2.png	2	animate	aquatic	crab	2	0	2	boats	1	incorrect	1.40568037668709
45171	1	stim024_animate_bird_chicken_4.png	24	animate	bird	chicken	4	0	2	boats	1	incorrect	1.40568037668709
45221	1	stim033_animate_bird_peacock_1.png	33	animate	bird	peacock	1	0	2	boats	1	incorrect	1.40568037668709
45271	1	stim065_animate_insect_bug_1.png	65	animate	insect	bug	1	0	2	boats	1	incorrect	1.40568037668709
45321	1	stim062_animate_insect_ant_2.png	62	animate	insect	ant	2	0	2	boats	1	incorrect	1.40568037668709
45371	1	stim190_inanimate_tools_pan_2.png	190	inanimate	tools	pan	2	0	2	boats	1	incorrect	1.40568037668709
45421	1	stim132_inanimate_fruits_grape_4.png	132	inanimate	fruits	grape	4	0	2	boats	1	incorrect	1.40568037668709
45471	1	stim058_animate_human_sports_2.png	58	animate	human	sports	2	0	2	boats	1	incorrect	1.40568037668709
45521	1	stim133_inanimate_fruits_pineapple_1.png	133	inanimate	fruits	pineapple	1	0	2	boats	1	incorrect	1.40568037668709
45571	1	stim191_inanimate_tools_pan_3.png	191	inanimate	tools	pan	3	0	2	boats	1	incorrect	1.40568037668709
45621	1	stim146_inanimate_furniture_chair_2.png	146	inanimate	furniture	chair	2	0	2	boats	1	incorrect	1.40568037668709
45671	1	stim023_animate_bird_chicken_3.png	23	animate	bird	chicken	3	0	2	boats	1	incorrect	1.40568037668709
45721	1	stim102_inanimate_clothing_gloves_2.png	102	inanimate	clothing	gloves	2	0	2	boats	1	incorrect	1.40568037668709
45771	1	stim129_inanimate_fruits_grape_1.png	129	inanimate	fruits	grape	1	0	2	boats	1	incorrect	1.40568037668709
45821	1	stim008_animate_aquatic_fish_4.png	8	animate	aquatic	fish	4	0	2	boats	1	incorrect	1.40568037668709
45871	1	stim037_animate_bird_penguin_1.png	37	animate	bird	penguin	1	0	2	boats	1	incorrect	1.40568037668709
45921	1	stim131_inanimate_fruits_grape_3.png	131	inanimate	fruits	grape	3	0	2	boats	1	incorrect	1.40568037668709
45971	1	stim007_animate_aquatic_fish_3.png	7	animate	aquatic	fish	3	0	2	boats	1	incorrect	1.40568037668709
46021	1	stim160_inanimate_furniture_table_4.png	160	inanimate	furniture	table	4	0	2	boats	1	incorrect	1.40568037668709
46071	1	stim149_inanimate_furniture_closet_1.png	149	inanimate	furniture	closet	1	0	2	boats	1	incorrect	1.40568037668709
46121	1	stim022_animate_bird_chicken_2.png	22	animate	bird	chicken	2	0	2	boats	1	incorrect	1.40568037668709
46171	1	stim113_inanimate_clothing_shirt_1.png	113	inanimate	clothing	shirt	1	0	2	boats	1	incorrect	1.40568037668709
46221	1	stim143_inanimate_furniture_bed_3.png	143	inanimate	furniture	bed	3	0	2	boats	1	incorrect	1.40568037668709
46271	1	stim003_animate_aquatic_crab_3.png	3	animate	aquatic	crab	3	0	2	boats	1	incorrect	1.40568037668709
46321	1	stim184_inanimate_tools_broom_4.png	184	inanimate	tools	broom	4	0	2	boats	1	incorrect	1.40568037668709
46371	1	stim050_animate_human_clown_2.png	50	animate	human	clown	2	0	2	boats	1	incorrect	1.40568037668709
46421	1	stim034_animate_bird_peacock_2.png	34	animate	bird	peacock	2	0	2	boats	1	incorrect	1.40568037668709
46471	1	stim166_inanimate_plants_cactus_2.png	166	inanimate	plants	cactus	2	0	2	boats	1	incorrect	1.40568037668709
46521	1	stim095_animate_mammal_monkey_3.png	95	animate	mammal	monkey	3	0	2	boats	1	incorrect	1.40568037668709
46571	1	stim038_animate_bird_penguin_2.png	38	animate	bird	penguin	2	0	2	boats	1	incorrect	1.40568037668709
46621	1	stim172_inanimate_plants_sunflower_4.png	172	inanimate	plants	sunflower	4	0	2	boats	1	incorrect	1.40568037668709
46671	1	stim152_inanimate_furniture_closet_4.png	152	inanimate	furniture	closet	4	0	2	boats	1	incorrect	1.40568037668709
46721	1	stim140_inanimate_fruits_strawberry_4.png	140	inanimate	fruits	strawberry	4	0	2	boats	1	incorrect	1.40568037668709
46771	1	stim097_animate_mammal_rhino_1.png	97	animate	mammal	rhino	1	0	2	boats	1	incorrect	1.40568037668709
46821	1	stim165_inanimate_plants_cactus_1.png	165	inanimate	plants	cactus	1	0	2	boats	1	incorrect	1.40568037668709
46871	1	stim066_animate_insect_bug_2.png	66	animate	insect	bug	2	0	2	boats	1	incorrect	1.40568037668709
46921	1	stim155_inanimate_furniture_sofa_3.png	155	inanimate	furniture	sofa	3	0	2	boats	1	incorrect	1.40568037668709
46971	1	stim130_inanimate_fruits_grape_2.png	130	inanimate	fruits	grape	2	0	2	boats	1	incorrect	1.40568037668709
47021	1	stim200_inanimate_tools_wrench_4.png	200	inanimate	tools	wrench	4	0	2	boats	1	incorrect	1.40568037668709
47071	1	stim047_animate_human_child_3.png	47	animate	human	child	3	0	2	boats	1	incorrect	1.40568037668709
47121	1	stim083_animate_mammal_cow_3.png	83	animate	mammal	cow	3	0	2	boats	1	incorrect	1.40568037668709
47171	1	stim106_inanimate_clothing_hat_2.png	106	inanimate	clothing	hat	2	0	2	boats	1	incorrect	1.40568037668709
47221	1	stim194_inanimate_tools_scissors_2.png	194	inanimate	tools	scissors	2	0	2	boats	1	incorrect	1.40568037668709
47271	1	stim134_inanimate_fruits_pineapple_2.png	134	inanimate	fruits	pineapple	2	0	2	boats	1	incorrect	1.40568037668709
47321	1	stim081_animate_mammal_cow_1.png	81	animate	mammal	cow	1	0	2	boats	1	incorrect	1.40568037668709
47371	1	stim151_inanimate_furniture_closet_3.png	151	inanimate	furniture	closet	3	0	2	boats	1	incorrect	1.40568037668709
47421	1	stim044_animate_human_baby_4.png	44	animate	human	baby	4	0	2	boats	1	incorrect	1.40568037668709
47471	1	stim178_inanimate_plants_tulip_2.png	178	inanimate	plants	tulip	2	0	2	boats	1	incorrect	1.40568037668709
47521	1	stim121_inanimate_fruits_apple_1.png	121	inanimate	fruits	apple	1	0	2	boats	1	incorrect	1.40568037668709
47571	1	stim168_inanimate_plants_cactus_4.png	168	inanimate	plants	cactus	4	0	2	boats	1	incorrect	1.40568037668709
47621	1	stim073_animate_insect_dragonfly_1.png	73	animate	insect	dragonfly	1	0	2	boats	1	incorrect	1.40568037668709
47671	1	stim057_animate_human_sports_1.png	57	animate	human	sports	1	0	2	boats	1	incorrect	1.40568037668709
47721	1	stim036_animate_bird_peacock_4.png	36	animate	bird	peacock	4	0	2	boats	1	incorrect	1.40568037668709
47771	1	stim069_animate_insect_butterfly_1.png	69	animate	insect	butterfly	1	0	2	boats	1	incorrect	1.40568037668709
47821	1	stim182_inanimate_tools_broom_2.png	182	inanimate	tools	broom	2	0	2	boats	1	incorrect	1.40568037668709
47871	1	stim204_targets_object_boats_4.png	204	targets	object	boats	4	1	2	boats	1	incorrect	1.40568037668709
47921	1	stim120_inanimate_clothing_socks_4.png	120	inanimate	clothing	socks	4	0	2	boats	1	incorrect	1.40568037668709
47971	1	stim020_animate_aquatic_shrimp_4.png	20	animate	aquatic	shrimp	4	0	2	boats	1	incorrect	1.40568037668709
48021	1	stim141_inanimate_furniture_bed_1.png	141	inanimate	furniture	bed	1	0	2	boats	1	incorrect	1.40568037668709
48071	1	stim174_inanimate_plants_tree_2.png	174	inanimate	plants	tree	2	0	2	boats	1	incorrect	1.40568037668709
48121	1	stim013_animate_aquatic_shark_1.png	13	animate	aquatic	shark	1	0	2	boats	1	incorrect	1.40568037668709
48171	1	stim072_animate_insect_butterfly_4.png	72	animate	insect	butterfly	4	0	2	boats	1	incorrect	1.40568037668709
48221	1	stim077_animate_insect_grasshopper_1.png	77	animate	insect	grasshopper	1	0	2	boats	1	incorrect	1.40568037668709
48271	1	stim169_inanimate_plants_sunflower_1.png	169	inanimate	plants	sunflower	1	0	2	boats	1	incorrect	1.40568037668709
48321	1	stim181_inanimate_tools_broom_1.png	181	inanimate	tools	broom	1	0	2	boats	1	incorrect	1.40568037668709
48371	1	stim027_animate_bird_duck_3.png	27	animate	bird	duck	3	0	2	boats	1	incorrect	1.40568037668709
48421	1	stim114_inanimate_clothing_shirt_2.png	114	inanimate	clothing	shirt	2	0	2	boats	1	incorrect	1.40568037668709
48471	1	stim196_inanimate_tools_scissors_4.png	196	inanimate	tools	scissors	4	0	2	boats	1	incorrect	1.40568037668709
48521	1	stim128_inanimate_fruits_banana_4.png	128	inanimate	fruits	banana	4	0	2	boats	1	incorrect	1.40568037668709
48571	1	stim079_animate_insect_grasshopper_3.png	79	animate	insect	grasshopper	3	0	2	boats	1	incorrect	1.40568037668709
48621	1	stim098_animate_mammal_rhino_2.png	98	animate	mammal	rhino	2	0	2	boats	1	incorrect	1.40568037668709
48671	1	stim100_animate_mammal_rhino_4.png	100	animate	mammal	rhino	4	0	2	boats	1	incorrect	1.40568037668709
48721	1	stim159_inanimate_furniture_table_3.png	159	inanimate	furniture	table	3	0	2	boats	1	incorrect	1.40568037668709
48771	1	stim035_animate_bird_peacock_3.png	35	animate	bird	peacock	3	0	2	boats	1	incorrect	1.40568037668709
48821	1	stim006_animate_aquatic_fish_2.png	6	animate	aquatic	fish	2	0	2	boats	1	incorrect	1.40568037668709
48871	1	stim154_inanimate_furniture_sofa_2.png	154	inanimate	furniture	sofa	2	0	2	boats	1	incorrect	1.40568037668709
48921	1	stim167_inanimate_plants_cactus_3.png	167	inanimate	plants	cactus	3	0	2	boats	1	incorrect	1.40568037668709
48971	1	stim197_inanimate_tools_wrench_1.png	197	inanimate	tools	wrench	1	0	2	boats	1	incorrect	1.40568037668709
49021	1	stim005_animate_aquatic_fish_1.png	5	animate	aquatic	fish	1	0	2	boats	1	incorrect	1.40568037668709
49071	1	stim145_inanimate_furniture_chair_1.png	145	inanimate	furniture	chair	1	0	2	boats	1	incorrect	1.40568037668709
49121	1	stim199_inanimate_tools_wrench_3.png	199	inanimate	tools	wrench	3	0	2	boats	1	incorrect	1.40568037668709
49171	1	stim138_inanimate_fruits_strawberry_2.png	138	inanimate	fruits	strawberry	2	0	2	boats	1	incorrect	1.40568037668709
49221	1	stim076_animate_insect_dragonfly_4.png	76	animate	insect	dragonfly	4	0	2	boats	1	incorrect	1.40568037668709
49271	1	stim124_inanimate_fruits_apple_4.png	124	inanimate	fruits	apple	4	0	2	boats	1	incorrect	1.40568037668709
49321	1	stim048_animate_human_child_4.png	48	animate	human	child	4	0	2	boats	1	incorrect	1.40568037668709
49371	1	stim135_inanimate_fruits_pineapple_3.png	135	inanimate	fruits	pineapple	3	0	2	boats	1	incorrect	1.40568037668709
49421	1	stim025_animate_bird_duck_1.png	25	animate	bird	duck	1	0	2	boats	1	incorrect	1.40568037668709
49471	1	stim041_animate_human_baby_1.png	41	animate	human	baby	1	0	2	boats	1	incorrect	1.40568037668709
49521	1	stim162_inanimate_plants_bush_2.png	162	inanimate	plants	bush	2	0	2	boats	1	incorrect	1.40568037668709
49571	1	stim009_animate_aquatic_seahorse_1.png	9	animate	aquatic	seahorse	1	0	2	boats	1	incorrect	1.40568037668709
49621	1	stim161_inanimate_plants_bush_1.png	161	inanimate	plants	bush	1	0	2	boats	1	incorrect	1.40568037668709
49671	1	stim090_animate_mammal_kangaroo_2.png	90	animate	mammal	kangaroo	2	0	2	boats	1	incorrect	1.40568037668709
49721	1	stim139_inanimate_fruits_strawberry_3.png	139	inanimate	fruits	strawberry	3	0	2	boats	1	incorrect	1.40568037668709
49771	1	stim017_animate_aquatic_shrimp_1.png	17	animate	aquatic	shrimp	1	0	2	boats	1	incorrect	1.40568037668709
49821	1	stim026_animate_bird_duck_2.png	26	animate	bird	duck	2	0	2	boats	1	incorrect	1.40568037668709
49871	1	stim031_animate_bird_parrot_3.png	31	animate	bird	parrot	3	0	2	boats	1	incorrect	1.40568037668709
49921	1	stim101_inanimate_clothing_gloves_1.png	101	inanimate	clothing	gloves	1	0	2	boats	1	incorrect	1.40568037668709
49971	1	stim192_inanimate_tools_pan_4.png	192	inanimate	tools	pan	4	0	2	boats	1	incorrect	1.40568037668709
50021	1	stim052_animate_human_clown_4.png	52	animate	human	clown	4	0	2	boats	1	incorrect	1.40568037668709
50071	1	stim004_animate_aquatic_crab_4.png	4	animate	aquatic	crab	4	0	2	boats	1	incorrect	1.40568037668709
50121	1	stim147_inanimate_furniture_chair_3.png	147	inanimate	furniture	chair	3	0	2	boats	1	incorrect	1.40568037668709
50171	1	stim082_animate_mammal_cow_2.png	82	animate	mammal	cow	2	0	2	boats	1	incorrect	1.40568037668709
50221	1	stim117_inanimate_clothing_socks_1.png	117	inanimate	clothing	socks	1	0	2	boats	1	incorrect	1.40568037668709
50271	1	stim056_animate_human_faces_4.png	56	animate	human	faces	4	0	2	boats	1	incorrect	1.40568037668709
50321	1	stim111_inanimate_clothing_jeans_3.png	111	inanimate	clothing	jeans	3	0	2	boats	1	incorrect	1.40568037668709
50371	1	stim063_animate_insect_ant_3.png	63	animate	insect	ant	3	0	2	boats	1	incorrect	1.40568037668709
50421	1	stim125_inanimate_fruits_banana_1.png	125	inanimate	fruits	banana	1	0	2	boats	1	incorrect	1.40568037668709
50471	1	stim127_inanimate_fruits_banana_3.png	127	inanimate	fruits	banana	3	0	2	boats	1	incorrect	1.40568037668709
50521	1	stim118_inanimate_clothing_socks_2.png	118	inanimate	clothing	socks	2	0	2	boats	1	incorrect	1.40568037668709
50571	1	stim205_targets_object_boats_1.png	205	targets	object	boats	1	1	2	boats	1	incorrect	1.40568037668709
50621	1	stim021_animate_bird_chicken_1.png	21	animate	bird	chicken	1	0	2	boats	1	incorrect	1.40568037668709
50671	1	stim039_animate_bird_penguin_3.png	39	animate	bird	penguin	3	0	2	boats	1	incorrect	1.40568037668709
50721	1	stim042_animate_human_baby_2.png	42	animate	human	baby	2	0	2	boats	1	incorrect	1.40568037668709
50771	1	stim171_inanimate_plants_sunflower_3.png	171	inanimate	plants	sunflower	3	0	2	boats	1	incorrect	1.40568037668709
50821	1	stim123_inanimate_fruits_apple_3.png	123	inanimate	fruits	apple	3	0	2	boats	1	incorrect	1.40568037668709
50871	1	stim103_inanimate_clothing_gloves_3.png	103	inanimate	clothing	gloves	3	0	2	boats	1	incorrect	1.40568037668709
50921	1	stim126_inanimate_fruits_banana_2.png	126	inanimate	fruits	banana	2	0	2	boats	1	incorrect	1.40568037668709
50971	1	stim142_inanimate_furniture_bed_2.png	142	inanimate	furniture	bed	2	0	2	boats	1	incorrect	1.40568037668709
51021	1	stim099_animate_mammal_rhino_3.png	99	animate	mammal	rhino	3	0	2	boats	1	incorrect	1.40568037668709
51071	1	stim104_inanimate_clothing_gloves_4.png	104	inanimate	clothing	gloves	4	0	2	boats	1	incorrect	1.40568037668709
51121	1	stim163_inanimate_plants_bush_3.png	163	inanimate	plants	bush	3	0	2	boats	1	incorrect	1.40568037668709
51171	1	stim019_animate_aquatic_shrimp_3.png	19	animate	aquatic	shrimp	3	0	2	boats	1	incorrect	1.40568037668709
51221	1	stim150_inanimate_furniture_closet_2.png	150	inanimate	furniture	closet	2	0	2	boats	1	incorrect	1.40568037668709
51271	1	stim060_animate_human_sports_4.png	60	animate	human	sports	4	0	2	boats	1	incorrect	1.40568037668709
51321	1	stim108_inanimate_clothing_hat_4.png	108	inanimate	clothing	hat	4	0	2	boats	1	incorrect	1.40568037668709
51371	1	stim092_animate_mammal_kangaroo_4.png	92	animate	mammal	kangaroo	4	0	2	boats	1	incorrect	1.40568037668709
51421	1	stim091_animate_mammal_kangaroo_3.png	91	animate	mammal	kangaroo	3	0	2	boats	1	incorrect	1.40568037668709
51471	1	stim086_animate_mammal_giraffe_2.png	86	animate	mammal	giraffe	2	0	2	boats	1	incorrect	1.40568037668709
51521	1	stim195_inanimate_tools_scissors_3.png	195	inanimate	tools	scissors	3	0	2	boats	1	incorrect	1.40568037668709
51571	1	stim164_inanimate_plants_bush_4.png	164	inanimate	plants	bush	4	0	2	boats	1	incorrect	1.40568037668709
51621	1	stim183_inanimate_tools_broom_3.png	183	inanimate	tools	broom	3	0	2	boats	1	incorrect	1.40568037668709
51671	1	stim045_animate_human_child_1.png	45	animate	human	child	1	0	2	boats	1	incorrect	1.40568037668709
51721	1	stim040_animate_bird_penguin_4.png	40	animate	bird	penguin	4	0	2	boats	1	incorrect	1.40568037668709
51771	1	stim185_inanimate_tools_hammer_1.png	185	inanimate	tools	hammer	1	0	2	boats	1	incorrect	1.40568037668709
51821	1	stim144_inanimate_furniture_bed_4.png	144	inanimate	furniture	bed	4	0	2	boats	1	incorrect	1.40568037668709
51871	1	stim119_inanimate_clothing_socks_3.png	119	inanimate	clothing	socks	3	0	2	boats	1	incorrect	1.40568037668709
51921	1	stim156_inanimate_furniture_sofa_4.png	156	inanimate	furniture	sofa	4	0	2	boats	1	incorrect	1.40568037668709
51971	1	stim070_animate_insect_butterfly_2.png	70	animate	insect	butterfly	2	0	2	boats	1	incorrect	1.40568037668709
52021	1	stim064_animate_insect_ant_4.png	64	animate	insect	ant	4	0	2	boats	1	incorrect	1.40568037668709
52071	1	stim089_animate_mammal_kangaroo_1.png	89	animate	mammal	kangaroo	1	0	2	boats	1	incorrect	1.40568037668709
52121	1	stim049_animate_human_clown_1.png	49	animate	human	clown	1	0	2	boats	1	incorrect	1.40568037668709
52171	1	stim110_inanimate_clothing_jeans_2.png	110	inanimate	clothing	jeans	2	0	2	boats	1	incorrect	1.40568037668709
52221	1	stim043_animate_human_baby_3.png	43	animate	human	baby	3	0	2	boats	1	incorrect	1.40568037668709
52271	1	stim075_animate_insect_dragonfly_3.png	75	animate	insect	dragonfly	3	0	2	boats	1	incorrect	1.40568037668709
52321	1	stim158_inanimate_furniture_table_2.png	158	inanimate	furniture	table	2	0	2	boats	1	incorrect	1.40568037668709
52371	1	stim059_animate_human_sports_3.png	59	animate	human	sports	3	0	2	boats	1	incorrect	1.40568037668709
52421	1	stim107_inanimate_clothing_hat_3.png	107	inanimate	clothing	hat	3	0	2	boats	1	incorrect	1.40568037668709
52471	1	stim189_inanimate_tools_pan_1.png	189	inanimate	tools	pan	1	0	2	boats	1	incorrect	1.40568037668709
52521	1	stim109_inanimate_clothing_jeans_1.png	109	inanimate	clothing	jeans	1	0	2	boats	1	incorrect	1.40568037668709
52571	1	stim010_animate_aquatic_seahorse_2.png	10	animate	aquatic	seahorse	2	0	2	boats	1	incorrect	1.40568037668709
52621	1	stim173_inanimate_plants_tree_1.png	173	inanimate	plants	tree	1	0	2	boats	1	incorrect	1.40568037668709
52671	1	stim170_inanimate_plants_sunflower_2.png	170	inanimate	plants	sunflower	2	0	2	boats	1	incorrect	1.40568037668709
52721	1	stim176_inanimate_plants_tree_4.png	176	inanimate	plants	tree	4	0	2	boats	1	incorrect	1.40568037668709
52771	1	stim012_animate_aquatic_seahorse_4.png	12	animate	aquatic	seahorse	4	0	2	boats	1	incorrect	1.40568037668709
52821	1	stim053_animate_human_faces_1.png	53	animate	human	faces	1	0	2	boats	1	incorrect	1.40568037668709
52871	1	stim011_animate_aquatic_seahorse_3.png	11	animate	aquatic	seahorse	3	0	2	boats	1	incorrect	1.40568037668709
52921	1	stim096_animate_mammal_monkey_4.png	96	animate	mammal	monkey	4	0	2	boats	1	incorrect	1.40568037668709
52971	1	stim029_animate_bird_parrot_1.png	29	animate	bird	parrot	1	0	2	boats	1	incorrect	1.40568037668709
53021	1	stim093_animate_mammal_monkey_1.png	93	animate	mammal	monkey	1	0	2	boats	1	incorrect	1.40568037668709
53071	1	stim085_animate_mammal_giraffe_1.png	85	animate	mammal	giraffe	1	0	2	boats	1	incorrect	1.40568037668709
53121	1	stim028_animate_bird_duck_4.png	28	animate	bird	duck	4	0	2	boats	1	incorrect	1.40568037668709
53171	1	stim115_inanimate_clothing_shirt_3.png	115	inanimate	clothing	shirt	3	0	2	boats	1	incorrect	1.40568037668709
53221	1	stim071_animate_insect_butterfly_3.png	71	animate	insect	butterfly	3	0	2	boats	1	incorrect	1.40568037668709
53271	1	stim018_animate_aquatic_shrimp_2.png	18	animate	aquatic	shrimp	2	0	2	boats	1	incorrect	1.40568037668709
53321	1	stim153_inanimate_furniture_sofa_1.png	153	inanimate	furniture	sofa	1	0	2	boats	1	incorrect	1.40568037668709
53371	1	stim030_animate_bird_parrot_2.png	30	animate	bird	parrot	2	0	2	boats	1	incorrect	1.40568037668709
53421	1	stim188_inanimate_tools_hammer_4.png	188	inanimate	tools	hammer	4	0	2	boats	1	incorrect	1.40568037668709
53471	1	stim051_animate_human_clown_3.png	51	animate	human	clown	3	0	2	boats	1	incorrect	1.40568037668709
53521	1	stim175_inanimate_plants_tree_3.png	175	inanimate	plants	tree	3	0	2	boats	1	incorrect	1.40568037668709
53571	1	stim193_inanimate_tools_scissors_1.png	193	inanimate	tools	scissors	1	0	2	boats	1	incorrect	1.40568037668709
53621	1	stim016_animate_aquatic_shark_4.png	16	animate	aquatic	shark	4	0	2	boats	1	incorrect	1.40568037668709
53671	1	stim087_animate_mammal_giraffe_3.png	87	animate	mammal	giraffe	3	0	2	boats	1	incorrect	1.40568037668709
53721	1	stim014_animate_aquatic_shark_2.png	14	animate	aquatic	shark	2	0	2	boats	1	incorrect	1.40568037668709
53771	1	stim061_animate_insect_ant_1.png	61	animate	insect	ant	1	0	2	boats	1	incorrect	1.40568037668709
53821	1	stim116_inanimate_clothing_shirt_4.png	116	inanimate	clothing	shirt	4	0	2	boats	1	incorrect	1.40568037668709
53871	1	stim179_inanimate_plants_tulip_3.png	179	inanimate	plants	tulip	3	0	2	boats	1	incorrect	1.40568037668709
53921	1	stim187_inanimate_tools_hammer_3.png	187	inanimate	tools	hammer	3	0	2	boats	1	incorrect	1.40568037668709
53971	1	stim080_animate_insect_grasshopper_4.png	80	animate	insect	grasshopper	4	0	2	boats	1	incorrect	1.40568037668709
54021	1	stim032_animate_bird_parrot_4.png	32	animate	bird	parrot	4	0	2	boats	1	incorrect	1.40568037668709
54071	1	stim105_inanimate_clothing_hat_1.png	105	inanimate	clothing	hat	1	0	2	boats	1	incorrect	1.40568037668709
54121	1	stim078_animate_insect_grasshopper_2.png	78	animate	insect	grasshopper	2	0	2	boats	1	incorrect	1.40568037668709
54171	1	stim055_animate_human_faces_3.png	55	animate	human	faces	3	0	2	boats	1	incorrect	1.40568037668709
54221	1	stim054_animate_human_faces_2.png	54	animate	human	faces	2	0	2	boats	1	incorrect	1.40568037668709
54271	1	stim068_animate_insect_bug_4.png	68	animate	insect	bug	4	0	2	boats	1	incorrect	1.40568037668709
54321	1	stim015_animate_aquatic_shark_3.png	15	animate	aquatic	shark	3	0	2	boats	1	incorrect	1.40568037668709
54371	1	stim186_inanimate_tools_hammer_2.png	186	inanimate	tools	hammer	2	0	2	boats	1	incorrect	1.40568037668709
54421	1	stim177_inanimate_plants_tulip_1.png	177	inanimate	plants	tulip	1	0	2	boats	1	incorrect	1.40568037668709
59071	1	stim055_animate_human_faces_3.png	55	animate	human	faces	3	0	3	stars	1	correct	0.969588393112645
59121	1	stim053_animate_human_faces_1.png	53	animate	human	faces	1	0	3	stars	1	correct	0.969588393112645
59171	1	stim148_inanimate_furniture_chair_4.png	148	inanimate	furniture	chair	4	0	3	stars	1	correct	0.969588393112645
59221	1	stim142_inanimate_furniture_bed_2.png	142	inanimate	furniture	bed	2	0	3	stars	1	correct	0.969588393112645
59271	1	stim127_inanimate_fruits_banana_3.png	127	inanimate	fruits	banana	3	0	3	stars	1	correct	0.969588393112645
59321	1	stim031_animate_bird_parrot_3.png	31	animate	bird	parrot	3	0	3	stars	1	correct	0.969588393112645
59371	1	stim166_inanimate_plants_cactus_2.png	166	inanimate	plants	cactus	2	0	3	stars	1	correct	0.969588393112645
59421	1	stim108_inanimate_clothing_hat_4.png	108	inanimate	clothing	hat	4	0	3	stars	1	correct	0.969588393112645
59471	1	stim003_animate_aquatic_crab_3.png	3	animate	aquatic	crab	3	0	3	stars	1	correct	0.969588393112645
59521	1	stim086_animate_mammal_giraffe_2.png	86	animate	mammal	giraffe	2	0	3	stars	1	correct	0.969588393112645
59571	1	stim118_inanimate_clothing_socks_2.png	118	inanimate	clothing	socks	2	0	3	stars	1	correct	0.969588393112645
59621	1	stim098_animate_mammal_rhino_2.png	98	animate	mammal	rhino	2	0	3	stars	1	correct	0.969588393112645
59671	1	stim161_inanimate_plants_bush_1.png	161	inanimate	plants	bush	1	0	3	stars	1	correct	0.969588393112645
59721	1	stim019_animate_aquatic_shrimp_3.png	19	animate	aquatic	shrimp	3	0	3	stars	1	correct	0.969588393112645
59771	1	stim049_animate_human_clown_1.png	49	animate	human	clown	1	0	3	stars	1	correct	0.969588393112645
59821	1	stim005_animate_aquatic_fish_1.png	5	animate	aquatic	fish	1	0	3	stars	1	correct	0.969588393112645
59871	1	stim050_animate_human_clown_2.png	50	animate	human	clown	2	0	3	stars	1	correct	0.969588393112645
59921	1	stim070_animate_insect_butterfly_2.png	70	animate	insect	butterfly	2	0	3	stars	1	correct	0.969588393112645
59971	1	stim065_animate_insect_bug_1.png	65	animate	insect	bug	1	0	3	stars	1	correct	0.969588393112645
60021	1	stim094_animate_mammal_monkey_2.png	94	animate	mammal	monkey	2	0	3	stars	1	correct	0.969588393112645
60071	1	stim106_inanimate_clothing_hat_2.png	106	inanimate	clothing	hat	2	0	3	stars	1	correct	0.969588393112645
60121	1	stim107_inanimate_clothing_hat_3.png	107	inanimate	clothing	hat	3	0	3	stars	1	correct	0.969588393112645
60171	1	stim101_inanimate_clothing_gloves_1.png	101	inanimate	clothing	gloves	1	0	3	stars	1	correct	0.969588393112645
60221	1	stim153_inanimate_furniture_sofa_1.png	153	inanimate	furniture	sofa	1	0	3	stars	1	correct	0.969588393112645
60271	1	stim056_animate_human_faces_4.png	56	animate	human	faces	4	0	3	stars	1	correct	0.969588393112645
60321	1	stim038_animate_bird_penguin_2.png	38	animate	bird	penguin	2	0	3	stars	1	correct	0.969588393112645
60371	1	stim136_inanimate_fruits_pineapple_4.png	136	inanimate	fruits	pineapple	4	0	3	stars	1	correct	0.969588393112645
60421	1	stim132_inanimate_fruits_grape_4.png	132	inanimate	fruits	grape	4	0	3	stars	1	correct	0.969588393112645
60471	1	stim039_animate_bird_penguin_3.png	39	animate	bird	penguin	3	0	3	stars	1	correct	0.969588393112645
60521	1	stim020_animate_aquatic_shrimp_4.png	20	animate	aquatic	shrimp	4	0	3	stars	1	correct	0.969588393112645
60571	1	stim022_animate_bird_chicken_2.png	22	animate	bird	chicken	2	0	3	stars	1	correct	0.969588393112645
60621	1	stim041_animate_human_baby_1.png	41	animate	human	baby	1	0	3	stars	1	correct	0.969588393112645
60671	1	stim152_inanimate_furniture_closet_4.png	152	inanimate	furniture	closet	4	0	3	stars	1	correct	0.969588393112645
60721	1	stim191_inanimate_tools_pan_3.png	191	inanimate	tools	pan	3	0	3	stars	1	correct	0.969588393112645
60771	1	stim015_animate_aquatic_shark_3.png	15	animate	aquatic	shark	3	0	3	stars	1	correct	0.969588393112645
60821	1	stim182_inanimate_tools_broom_2.png	182	inanimate	tools	broom	2	0	3	stars	1	correct	0.969588393112645
60871	1	stim183_inanimate_tools_broom_3.png	183	inanimate	tools	broom	3	0	3	stars	1	correct	0.969588393112645
60921	1	stim040_animate_bird_penguin_4.png	40	animate	bird	penguin	4	0	3	stars	1	correct	0.969588393112645
60971	1	stim024_animate_bird_chicken_4.png	24	animate	bird	chicken	4	0	3	stars	1	correct	0.969588393112645
61021	1	stim010_animate_aquatic_seahorse_2.png	10	animate	aquatic	seahorse	2	0	3	stars	1	correct	0.969588393112645
61071	1	stim192_inanimate_tools_pan_4.png	192	inanimate	tools	pan	4	0	3	stars	1	correct	0.969588393112645
61121	1	stim044_animate_human_baby_4.png	44	animate	human	baby	4	0	3	stars	1	correct	0.969588393112645
61171	1	stim061_animate_insect_ant_1.png	61	animate	insect	ant	1	0	3	stars	1	correct	0.969588393112645
61221	1	stim188_inanimate_tools_hammer_4.png	188	inanimate	tools	hammer	4	0	3	stars	1	correct	0.969588393112645
61271	1	stim067_animate_insect_bug_3.png	67	animate	insect	bug	3	0	3	stars	1	correct	0.969588393112645
61321	1	stim174_inanimate_plants_tree_2.png	174	inanimate	plants	tree	2	0	3	stars	1	correct	0.969588393112645
61371	1	stim021_animate_bird_chicken_1.png	21	animate	bird	chicken	1	0	3	stars	1	correct	0.969588393112645
61421	1	stim155_inanimate_furniture_sofa_3.png	155	inanimate	furniture	sofa	3	0	3	stars	1	correct	0.969588393112645
61471	1	stim052_animate_human_clown_4.png	52	animate	human	clown	4	0	3	stars	1	correct	0.969588393112645
61521	1	stim103_inanimate_clothing_gloves_3.png	103	inanimate	clothing	gloves	3	0	3	stars	1	correct	0.969588393112645
61571	1	stim068_animate_insect_bug_4.png	68	animate	insect	bug	4	0	3	stars	1	correct	0.969588393112645
61621	1	stim178_inanimate_plants_tulip_2.png	178	inanimate	plants	tulip	2	0	3	stars	1	correct	0.969588393112645
61671	1	stim119_inanimate_clothing_socks_3.png	119	inanimate	clothing	socks	3	0	3	stars	1	correct	0.969588393112645
61721	1	stim071_animate_insect_butterfly_3.png	71	animate	insect	butterfly	3	0	3	stars	1	correct	0.969588393112645
61771	1	stim014_animate_aquatic_shark_2.png	14	animate	aquatic	shark	2	0	3	stars	1	correct	0.969588393112645
61821	1	stim131_inanimate_fruits_grape_3.png	131	inanimate	fruits	grape	3	0	3	stars	1	correct	0.969588393112645
61871	1	stim078_animate_insect_grasshopper_2.png	78	animate	insect	grasshopper	2	0	3	stars	1	correct	0.969588393112645
61921	1	stim181_inanimate_tools_broom_1.png	181	inanimate	tools	broom	1	0	3	stars	1	correct	0.969588393112645
61971	1	stim150_inanimate_furniture_closet_2.png	150	inanimate	furniture	closet	2	0	3	stars	1	correct	0.969588393112645
62021	1	stim163_inanimate_plants_bush_3.png	163	inanimate	plants	bush	3	0	3	stars	1	correct	0.969588393112645
62071	1	stim180_inanimate_plants_tulip_4.png	180	inanimate	plants	tulip	4	0	3	stars	1	correct	0.969588393112645
62121	1	stim196_inanimate_tools_scissors_4.png	196	inanimate	tools	scissors	4	0	3	stars	1	correct	0.969588393112645
62171	1	stim149_inanimate_furniture_closet_1.png	149	inanimate	furniture	closet	1	0	3	stars	1	correct	0.969588393112645
62221	1	stim110_inanimate_clothing_jeans_2.png	110	inanimate	clothing	jeans	2	0	3	stars	1	correct	0.969588393112645
62271	1	stim063_animate_insect_ant_3.png	63	animate	insect	ant	3	0	3	stars	1	correct	0.969588393112645
62321	1	stim145_inanimate_furniture_chair_1.png	145	inanimate	furniture	chair	1	0	3	stars	1	correct	0.969588393112645
62371	1	stim064_animate_insect_ant_4.png	64	animate	insect	ant	4	0	3	stars	1	correct	0.969588393112645
62421	1	stim190_inanimate_tools_pan_2.png	190	inanimate	tools	pan	2	0	3	stars	1	correct	0.969588393112645
62471	1	stim121_inanimate_fruits_apple_1.png	121	inanimate	fruits	apple	1	0	3	stars	1	correct	0.969588393112645
62521	1	stim135_inanimate_fruits_pineapple_3.png	135	inanimate	fruits	pineapple	3	0	3	stars	1	correct	0.969588393112645
62571	1	stim186_inanimate_tools_hammer_2.png	186	inanimate	tools	hammer	2	0	3	stars	1	correct	0.969588393112645
62621	1	stim134_inanimate_fruits_pineapple_2.png	134	inanimate	fruits	pineapple	2	0	3	stars	1	correct	0.969588393112645
62671	1	stim009_animate_aquatic_seahorse_1.png	9	animate	aquatic	seahorse	1	0	3	stars	1	correct	0.969588393112645
62721	1	stim130_inanimate_fruits_grape_2.png	130	inanimate	fruits	grape	2	0	3	stars	1	correct	0.969588393112645
62771	1	stim176_inanimate_plants_tree_4.png	176	inanimate	plants	tree	4	0	3	stars	1	correct	0.969588393112645
62821	1	stim083_animate_mammal_cow_3.png	83	animate	mammal	cow	3	0	3	stars	1	correct	0.969588393112645
62871	1	stim082_animate_mammal_cow_2.png	82	animate	mammal	cow	2	0	3	stars	1	correct	0.969588393112645
62921	1	stim199_inanimate_tools_wrench_3.png	199	inanimate	tools	wrench	3	0	3	stars	1	correct	0.969588393112645
62971	1	stim034_animate_bird_peacock_2.png	34	animate	bird	peacock	2	0	3	stars	1	correct	0.969588393112645
63021	1	stim007_animate_aquatic_fish_3.png	7	animate	aquatic	fish	3	0	3	stars	1	correct	0.969588393112645
63071	1	stim066_animate_insect_bug_2.png	66	animate	insect	bug	2	0	3	stars	1	correct	0.969588393112645
63121	1	stim092_animate_mammal_kangaroo_4.png	92	animate	mammal	kangaroo	4	0	3	stars	1	correct	0.969588393112645
63171	1	stim043_animate_human_baby_3.png	43	animate	human	baby	3	0	3	stars	1	correct	0.969588393112645
63221	1	stim084_animate_mammal_cow_4.png	84	animate	mammal	cow	4	0	3	stars	1	correct	0.969588393112645
63271	1	stim087_animate_mammal_giraffe_3.png	87	animate	mammal	giraffe	3	0	3	stars	1	correct	0.969588393112645
63321	1	stim151_inanimate_furniture_closet_3.png	151	inanimate	furniture	closet	3	0	3	stars	1	correct	0.969588393112645
63371	1	stim154_inanimate_furniture_sofa_2.png	154	inanimate	furniture	sofa	2	0	3	stars	1	correct	0.969588393112645
63421	1	stim029_animate_bird_parrot_1.png	29	animate	bird	parrot	1	0	3	stars	1	correct	0.969588393112645
63471	1	stim080_animate_insect_grasshopper_4.png	80	animate	insect	grasshopper	4	0	3	stars	1	correct	0.969588393112645
63521	1	stim085_animate_mammal_giraffe_1.png	85	animate	mammal	giraffe	1	0	3	stars	1	correct	0.969588393112645
63571	1	stim126_inanimate_fruits_banana_2.png	126	inanimate	fruits	banana	2	0	3	stars	1	correct	0.969588393112645
63621	1	stim104_inanimate_clothing_gloves_4.png	104	inanimate	clothing	gloves	4	0	3	stars	1	correct	0.969588393112645
63671	1	stim194_inanimate_tools_scissors_2.png	194	inanimate	tools	scissors	2	0	3	stars	1	correct	0.969588393112645
63721	1	stim012_animate_aquatic_seahorse_4.png	12	animate	aquatic	seahorse	4	0	3	stars	1	correct	0.969588393112645
63771	1	stim060_animate_human_sports_4.png	60	animate	human	sports	4	0	3	stars	1	correct	0.969588393112645
63821	1	stim123_inanimate_fruits_apple_3.png	123	inanimate	fruits	apple	3	0	3	stars	1	correct	0.969588393112645
63871	1	stim033_animate_bird_peacock_1.png	33	animate	bird	peacock	1	0	3	stars	1	correct	0.969588393112645
63921	1	stim023_animate_bird_chicken_3.png	23	animate	bird	chicken	3	0	3	stars	1	correct	0.969588393112645
63971	1	stim114_inanimate_clothing_shirt_2.png	114	inanimate	clothing	shirt	2	0	3	stars	1	correct	0.969588393112645
64021	1	stim165_inanimate_plants_cactus_1.png	165	inanimate	plants	cactus	1	0	3	stars	1	correct	0.969588393112645
64071	1	stim026_animate_bird_duck_2.png	26	animate	bird	duck	2	0	3	stars	1	correct	0.969588393112645
64121	1	stim093_animate_mammal_monkey_1.png	93	animate	mammal	monkey	1	0	3	stars	1	correct	0.969588393112645
64171	1	stim008_animate_aquatic_fish_4.png	8	animate	aquatic	fish	4	0	3	stars	1	correct	0.969588393112645
64221	1	stim062_animate_insect_ant_2.png	62	animate	insect	ant	2	0	3	stars	1	correct	0.969588393112645
64271	1	stim095_animate_mammal_monkey_3.png	95	animate	mammal	monkey	3	0	3	stars	1	correct	0.969588393112645
64321	1	stim215_targets_shapes_star_3.png	215	targets	shapes	star	3	1	3	stars	1	correct	0.969588393112645
64371	1	stim090_animate_mammal_kangaroo_2.png	90	animate	mammal	kangaroo	2	0	3	stars	1	correct	0.969588393112645
64421	1	stim025_animate_bird_duck_1.png	25	animate	bird	duck	1	0	3	stars	1	correct	0.969588393112645
64471	1	stim141_inanimate_furniture_bed_1.png	141	inanimate	furniture	bed	1	0	3	stars	1	correct	0.969588393112645
64521	1	stim143_inanimate_furniture_bed_3.png	143	inanimate	furniture	bed	3	0	3	stars	1	correct	0.969588393112645
64571	1	stim189_inanimate_tools_pan_1.png	189	inanimate	tools	pan	1	0	3	stars	1	correct	0.969588393112645
64621	1	stim129_inanimate_fruits_grape_1.png	129	inanimate	fruits	grape	1	0	3	stars	1	correct	0.969588393112645
64671	1	stim102_inanimate_clothing_gloves_2.png	102	inanimate	clothing	gloves	2	0	3	stars	1	correct	0.969588393112645
64721	1	stim032_animate_bird_parrot_4.png	32	animate	bird	parrot	4	0	3	stars	1	correct	0.969588393112645
64771	1	stim058_animate_human_sports_2.png	58	animate	human	sports	2	0	3	stars	1	correct	0.969588393112645
64821	1	stim069_animate_insect_butterfly_1.png	69	animate	insect	butterfly	1	0	3	stars	1	correct	0.969588393112645
64871	1	stim099_animate_mammal_rhino_3.png	99	animate	mammal	rhino	3	0	3	stars	1	correct	0.969588393112645
64921	1	stim175_inanimate_plants_tree_3.png	175	inanimate	plants	tree	3	0	3	stars	1	correct	0.969588393112645
64971	1	stim047_animate_human_child_3.png	47	animate	human	child	3	0	3	stars	1	correct	0.969588393112645
65021	1	stim096_animate_mammal_monkey_4.png	96	animate	mammal	monkey	4	0	3	stars	1	correct	0.969588393112645
65071	1	stim076_animate_insect_dragonfly_4.png	76	animate	insect	dragonfly	4	0	3	stars	1	correct	0.969588393112645
65121	1	stim013_animate_aquatic_shark_1.png	13	animate	aquatic	shark	1	0	3	stars	1	correct	0.969588393112645
65171	1	stim146_inanimate_furniture_chair_2.png	146	inanimate	furniture	chair	2	0	3	stars	1	correct	0.969588393112645
65221	1	stim054_animate_human_faces_2.png	54	animate	human	faces	2	0	3	stars	1	correct	0.969588393112645
65271	1	stim072_animate_insect_butterfly_4.png	72	animate	insect	butterfly	4	0	3	stars	1	correct	0.969588393112645
65321	1	stim011_animate_aquatic_seahorse_3.png	11	animate	aquatic	seahorse	3	0	3	stars	1	correct	0.969588393112645
65371	1	stim144_inanimate_furniture_bed_4.png	144	inanimate	furniture	bed	4	0	3	stars	1	correct	0.969588393112645
65421	1	stim177_inanimate_plants_tulip_1.png	177	inanimate	plants	tulip	1	0	3	stars	1	correct	0.969588393112645
65471	1	stim116_inanimate_clothing_shirt_4.png	116	inanimate	clothing	shirt	4	0	3	stars	1	correct	0.969588393112645
65521	1	stim059_animate_human_sports_3.png	59	animate	human	sports	3	0	3	stars	1	correct	0.969588393112645
65571	1	stim030_animate_bird_parrot_2.png	30	animate	bird	parrot	2	0	3	stars	1	correct	0.969588393112645
65621	1	stim184_inanimate_tools_broom_4.png	184	inanimate	tools	broom	4	0	3	stars	1	correct	0.969588393112645
65671	1	stim147_inanimate_furniture_chair_3.png	147	inanimate	furniture	chair	3	0	3	stars	1	correct	0.969588393112645
65721	1	stim198_inanimate_tools_wrench_2.png	198	inanimate	tools	wrench	2	0	3	stars	1	correct	0.969588393112645
65771	1	stim112_inanimate_clothing_jeans_4.png	112	inanimate	clothing	jeans	4	0	3	stars	1	correct	0.969588393112645
65821	1	stim111_inanimate_clothing_jeans_3.png	111	inanimate	clothing	jeans	3	0	3	stars	1	correct	0.969588393112645
65871	1	stim122_inanimate_fruits_apple_2.png	122	inanimate	fruits	apple	2	0	3	stars	1	correct	0.969588393112645
65921	1	stim051_animate_human_clown_3.png	51	animate	human	clown	3	0	3	stars	1	correct	0.969588393112645
65971	1	stim016_animate_aquatic_shark_4.png	16	animate	aquatic	shark	4	0	3	stars	1	correct	0.969588393112645
66021	1	stim046_animate_human_child_2.png	46	animate	human	child	2	0	3	stars	1	correct	0.969588393112645
66071	1	stim200_inanimate_tools_wrench_4.png	200	inanimate	tools	wrench	4	0	3	stars	1	correct	0.969588393112645
66121	1	stim125_inanimate_fruits_banana_1.png	125	inanimate	fruits	banana	1	0	3	stars	1	correct	0.969588393112645
66171	1	stim160_inanimate_furniture_table_4.png	160	inanimate	furniture	table	4	0	3	stars	1	correct	0.969588393112645
66221	1	stim120_inanimate_clothing_socks_4.png	120	inanimate	clothing	socks	4	0	3	stars	1	correct	0.969588393112645
66271	1	stim035_animate_bird_peacock_3.png	35	animate	bird	peacock	3	0	3	stars	1	correct	0.969588393112645
66321	1	stim004_animate_aquatic_crab_4.png	4	animate	aquatic	crab	4	0	3	stars	1	correct	0.969588393112645
66371	1	stim159_inanimate_furniture_table_3.png	159	inanimate	furniture	table	3	0	3	stars	1	correct	0.969588393112645
66421	1	stim124_inanimate_fruits_apple_4.png	124	inanimate	fruits	apple	4	0	3	stars	1	correct	0.969588393112645
66471	1	stim036_animate_bird_peacock_4.png	36	animate	bird	peacock	4	0	3	stars	1	correct	0.969588393112645
66521	1	stim164_inanimate_plants_bush_4.png	164	inanimate	plants	bush	4	0	3	stars	1	correct	0.969588393112645
66571	1	stim077_animate_insect_grasshopper_1.png	77	animate	insect	grasshopper	1	0	3	stars	1	correct	0.969588393112645
66621	1	stim173_inanimate_plants_tree_1.png	173	inanimate	plants	tree	1	0	3	stars	1	correct	0.969588393112645
66671	1	stim172_inanimate_plants_sunflower_4.png	172	inanimate	plants	sunflower	4	0	3	stars	1	correct	0.969588393112645
66721	1	stim170_inanimate_plants_sunflower_2.png	170	inanimate	plants	sunflower	2	0	3	stars	1	correct	0.969588393112645
66771	1	stim088_animate_mammal_giraffe_4.png	88	animate	mammal	giraffe	4	0	3	stars	1	correct	0.969588393112645
66821	1	stim027_animate_bird_duck_3.png	27	animate	bird	duck	3	0	3	stars	1	correct	0.969588393112645
66871	1	stim057_animate_human_sports_1.png	57	animate	human	sports	1	0	3	stars	1	correct	0.969588393112645
66921	1	stim195_inanimate_tools_scissors_3.png	195	inanimate	tools	scissors	3	0	3	stars	1	correct	0.969588393112645
66971	1	stim158_inanimate_furniture_table_2.png	158	inanimate	furniture	table	2	0	3	stars	1	correct	0.969588393112645
67021	1	stim185_inanimate_tools_hammer_1.png	185	inanimate	tools	hammer	1	0	3	stars	1	correct	0.969588393112645
67071	1	stim079_animate_insect_grasshopper_3.png	79	animate	insect	grasshopper	3	0	3	stars	1	correct	0.969588393112645
67121	1	stim091_animate_mammal_kangaroo_3.png	91	animate	mammal	kangaroo	3	0	3	stars	1	correct	0.969588393112645
67171	1	stim167_inanimate_plants_cactus_3.png	167	inanimate	plants	cactus	3	0	3	stars	1	correct	0.969588393112645
67221	1	stim089_animate_mammal_kangaroo_1.png	89	animate	mammal	kangaroo	1	0	3	stars	1	correct	0.969588393112645
67271	1	stim157_inanimate_furniture_table_1.png	157	inanimate	furniture	table	1	0	3	stars	1	correct	0.969588393112645
67321	1	stim113_inanimate_clothing_shirt_1.png	113	inanimate	clothing	shirt	1	0	3	stars	1	correct	0.969588393112645
67371	1	stim073_animate_insect_dragonfly_1.png	73	animate	insect	dragonfly	1	0	3	stars	1	correct	0.969588393112645
67421	1	stim018_animate_aquatic_shrimp_2.png	18	animate	aquatic	shrimp	2	0	3	stars	1	correct	0.969588393112645
67471	1	stim117_inanimate_clothing_socks_1.png	117	inanimate	clothing	socks	1	0	3	stars	1	correct	0.969588393112645
67521	1	stim001_animate_aquatic_crab_1.png	1	animate	aquatic	crab	1	0	3	stars	1	correct	0.969588393112645
67571	1	stim037_animate_bird_penguin_1.png	37	animate	bird	penguin	1	0	3	stars	1	correct	0.969588393112645
67621	1	stim156_inanimate_furniture_sofa_4.png	156	inanimate	furniture	sofa	4	0	3	stars	1	correct	0.969588393112645
67671	1	stim045_animate_human_child_1.png	45	animate	human	child	1	0	3	stars	1	correct	0.969588393112645
67721	1	stim137_inanimate_fruits_strawberry_1.png	137	inanimate	fruits	strawberry	1	0	3	stars	1	correct	0.969588393112645
67771	1	stim138_inanimate_fruits_strawberry_2.png	138	inanimate	fruits	strawberry	2	0	3	stars	1	correct	0.969588393112645
67821	1	stim105_inanimate_clothing_hat_1.png	105	inanimate	clothing	hat	1	0	3	stars	1	correct	0.969588393112645
67871	1	stim042_animate_human_baby_2.png	42	animate	human	baby	2	0	3	stars	1	correct	0.969588393112645
67921	1	stim169_inanimate_plants_sunflower_1.png	169	inanimate	plants	sunflower	1	0	3	stars	1	correct	0.969588393112645
67971	1	stim133_inanimate_fruits_pineapple_1.png	133	inanimate	fruits	pineapple	1	0	3	stars	1	correct	0.969588393112645
68021	1	stim081_animate_mammal_cow_1.png	81	animate	mammal	cow	1	0	3	stars	1	correct	0.969588393112645
68071	1	stim115_inanimate_clothing_shirt_3.png	115	inanimate	clothing	shirt	3	0	3	stars	1	correct	0.969588393112645
68121	1	stim017_animate_aquatic_shrimp_1.png	17	animate	aquatic	shrimp	1	0	3	stars	1	correct	0.969588393112645
68171	1	stim048_animate_human_child_4.png	48	animate	human	child	4	0	3	stars	1	correct	0.969588393112645
68221	1	stim006_animate_aquatic_fish_2.png	6	animate	aquatic	fish	2	0	3	stars	1	correct	0.969588393112645
68271	1	stim171_inanimate_plants_sunflower_3.png	171	inanimate	plants	sunflower	3	0	3	stars	1	correct	0.969588393112645
68321	1	stim139_inanimate_fruits_strawberry_3.png	139	inanimate	fruits	strawberry	3	0	3	stars	1	correct	0.969588393112645
68371	1	stim168_inanimate_plants_cactus_4.png	168	inanimate	plants	cactus	4	0	3	stars	1	correct	0.969588393112645
68421	1	stim075_animate_insect_dragonfly_3.png	75	animate	insect	dragonfly	3	0	3	stars	1	correct	0.969588393112645
68471	1	stim128_inanimate_fruits_banana_4.png	128	inanimate	fruits	banana	4	0	3	stars	1	correct	0.969588393112645
68521	1	stim197_inanimate_tools_wrench_1.png	197	inanimate	tools	wrench	1	0	3	stars	1	correct	0.969588393112645
68571	1	stim097_animate_mammal_rhino_1.png	97	animate	mammal	rhino	1	0	3	stars	1	correct	0.969588393112645
68621	1	stim002_animate_aquatic_crab_2.png	2	animate	aquatic	crab	2	0	3	stars	1	correct	0.969588393112645
68671	1	stim187_inanimate_tools_hammer_3.png	187	inanimate	tools	hammer	3	0	3	stars	1	correct	0.969588393112645
68721	1	stim109_inanimate_clothing_jeans_1.png	109	inanimate	clothing	jeans	1	0	3	stars	1	correct	0.969588393112645
68771	1	stim162_inanimate_plants_bush_2.png	162	inanimate	plants	bush	2	0	3	stars	1	correct	0.969588393112645
68821	1	stim100_animate_mammal_rhino_4.png	100	animate	mammal	rhino	4	0	3	stars	1	correct	0.969588393112645
68871	1	stim179_inanimate_plants_tulip_3.png	179	inanimate	plants	tulip	3	0	3	stars	1	correct	0.969588393112645
68921	1	stim140_inanimate_fruits_strawberry_4.png	140	inanimate	fruits	strawberry	4	0	3	stars	1	correct	0.969588393112645
68971	1	stim028_animate_bird_duck_4.png	28	animate	bird	duck	4	0	3	stars	1	correct	0.969588393112645
69021	1	stim193_inanimate_tools_scissors_1.png	193	inanimate	tools	scissors	1	0	3	stars	1	correct	0.969588393112645
69071	1	stim074_animate_insect_dragonfly_2.png	74	animate	insect	dragonfly	2	0	3	stars	1	correct	0.969588393112645
72655	1	stim191_inanimate_tools_pan_3.png	191	inanimate	tools	pan	3	0	4	boats	2	incorrect	1.17180906096473
72705	1	stim168_inanimate_plants_cactus_4.png	168	inanimate	plants	cactus	4	0	4	boats	2	incorrect	1.17180906096473
72755	1	stim071_animate_insect_butterfly_3.png	71	animate	insect	butterfly	3	0	4	boats	2	incorrect	1.17180906096473
72805	1	stim098_animate_mammal_rhino_2.png	98	animate	mammal	rhino	2	0	4	boats	2	incorrect	1.17180906096473
72855	1	stim155_inanimate_furniture_sofa_3.png	155	inanimate	furniture	sofa	3	0	4	boats	2	incorrect	1.17180906096473
72905	1	stim138_inanimate_fruits_strawberry_2.png	138	inanimate	fruits	strawberry	2	0	4	boats	2	incorrect	1.17180906096473
72955	1	stim083_animate_mammal_cow_3.png	83	animate	mammal	cow	3	0	4	boats	2	incorrect	1.17180906096473
73005	1	stim015_animate_aquatic_shark_3.png	15	animate	aquatic	shark	3	0	4	boats	2	incorrect	1.17180906096473
73055	1	stim178_inanimate_plants_tulip_2.png	178	inanimate	plants	tulip	2	0	4	boats	2	incorrect	1.17180906096473
73105	1	stim061_animate_insect_ant_1.png	61	animate	insect	ant	1	0	4	boats	2	incorrect	1.17180906096473
73155	1	stim005_animate_aquatic_fish_1.png	5	animate	aquatic	fish	1	0	4	boats	2	incorrect	1.17180906096473
73205	1	stim025_animate_bird_duck_1.png	25	animate	bird	duck	1	0	4	boats	2	incorrect	1.17180906096473
73255	1	stim174_inanimate_plants_tree_2.png	174	inanimate	plants	tree	2	0	4	boats	2	incorrect	1.17180906096473
73305	1	stim139_inanimate_fruits_strawberry_3.png	139	inanimate	fruits	strawberry	3	0	4	boats	2	incorrect	1.17180906096473
73355	1	stim173_inanimate_plants_tree_1.png	173	inanimate	plants	tree	1	0	4	boats	2	incorrect	1.17180906096473
73405	1	stim109_inanimate_clothing_jeans_1.png	109	inanimate	clothing	jeans	1	0	4	boats	2	incorrect	1.17180906096473
73455	1	stim129_inanimate_fruits_grape_1.png	129	inanimate	fruits	grape	1	0	4	boats	2	incorrect	1.17180906096473
73505	1	stim149_inanimate_furniture_closet_1.png	149	inanimate	furniture	closet	1	0	4	boats	2	incorrect	1.17180906096473
73555	1	stim126_inanimate_fruits_banana_2.png	126	inanimate	fruits	banana	2	0	4	boats	2	incorrect	1.17180906096473
73605	1	stim156_inanimate_furniture_sofa_4.png	156	inanimate	furniture	sofa	4	0	4	boats	2	incorrect	1.17180906096473
73655	1	stim004_animate_aquatic_crab_4.png	4	animate	aquatic	crab	4	0	4	boats	2	incorrect	1.17180906096473
73705	1	stim151_inanimate_furniture_closet_3.png	151	inanimate	furniture	closet	3	0	4	boats	2	incorrect	1.17180906096473
73755	1	stim135_inanimate_fruits_pineapple_3.png	135	inanimate	fruits	pineapple	3	0	4	boats	2	incorrect	1.17180906096473
73805	1	stim166_inanimate_plants_cactus_2.png	166	inanimate	plants	cactus	2	0	4	boats	2	incorrect	1.17180906096473
73855	1	stim042_animate_human_baby_2.png	42	animate	human	baby	2	0	4	boats	2	incorrect	1.17180906096473
73905	1	stim130_inanimate_fruits_grape_2.png	130	inanimate	fruits	grape	2	0	4	boats	2	incorrect	1.17180906096473
73955	1	stim119_inanimate_clothing_socks_3.png	119	inanimate	clothing	socks	3	0	4	boats	2	incorrect	1.17180906096473
74005	1	stim051_animate_human_clown_3.png	51	animate	human	clown	3	0	4	boats	2	incorrect	1.17180906096473
74055	1	stim092_animate_mammal_kangaroo_4.png	92	animate	mammal	kangaroo	4	0	4	boats	2	incorrect	1.17180906096473
74105	1	stim175_inanimate_plants_tree_3.png	175	inanimate	plants	tree	3	0	4	boats	2	incorrect	1.17180906096473
74155	1	stim194_inanimate_tools_scissors_2.png	194	inanimate	tools	scissors	2	0	4	boats	2	incorrect	1.17180906096473
74205	1	stim013_animate_aquatic_shark_1.png	13	animate	aquatic	shark	1	0	4	boats	2	incorrect	1.17180906096473
74255	1	stim080_animate_insect_grasshopper_4.png	80	animate	insect	grasshopper	4	0	4	boats	2	incorrect	1.17180906096473
74305	1	stim008_animate_aquatic_fish_4.png	8	animate	aquatic	fish	4	0	4	boats	2	incorrect	1.17180906096473
74355	1	stim185_inanimate_tools_hammer_1.png	185	inanimate	tools	hammer	1	0	4	boats	2	incorrect	1.17180906096473
74405	1	stim023_animate_bird_chicken_3.png	23	animate	bird	chicken	3	0	4	boats	2	incorrect	1.17180906096473
74455	1	stim177_inanimate_plants_tulip_1.png	177	inanimate	plants	tulip	1	0	4	boats	2	incorrect	1.17180906096473
74505	1	stim037_animate_bird_penguin_1.png	37	animate	bird	penguin	1	0	4	boats	2	incorrect	1.17180906096473
74555	1	stim064_animate_insect_ant_4.png	64	animate	insect	ant	4	0	4	boats	2	incorrect	1.17180906096473
74605	1	stim093_animate_mammal_monkey_1.png	93	animate	mammal	monkey	1	0	4	boats	2	incorrect	1.17180906096473
74655	1	stim127_inanimate_fruits_banana_3.png	127	inanimate	fruits	banana	3	0	4	boats	2	incorrect	1.17180906096473
74705	1	stim057_animate_human_sports_1.png	57	animate	human	sports	1	0	4	boats	2	incorrect	1.17180906096473
74755	1	stim110_inanimate_clothing_jeans_2.png	110	inanimate	clothing	jeans	2	0	4	boats	2	incorrect	1.17180906096473
74805	1	stim182_inanimate_tools_broom_2.png	182	inanimate	tools	broom	2	0	4	boats	2	incorrect	1.17180906096473
74855	1	stim082_animate_mammal_cow_2.png	82	animate	mammal	cow	2	0	4	boats	2	incorrect	1.17180906096473
74905	1	stim205_targets_object_boats_1.png	205	targets	object	boats	1	1	4	boats	2	incorrect	1.17180906096473
74955	1	stim169_inanimate_plants_sunflower_1.png	169	inanimate	plants	sunflower	1	0	4	boats	2	incorrect	1.17180906096473
75005	1	stim049_animate_human_clown_1.png	49	animate	human	clown	1	0	4	boats	2	incorrect	1.17180906096473
75055	1	stim029_animate_bird_parrot_1.png	29	animate	bird	parrot	1	0	4	boats	2	incorrect	1.17180906096473
75105	1	stim142_inanimate_furniture_bed_2.png	142	inanimate	furniture	bed	2	0	4	boats	2	incorrect	1.17180906096473
75155	1	stim027_animate_bird_duck_3.png	27	animate	bird	duck	3	0	4	boats	2	incorrect	1.17180906096473
75205	1	stim128_inanimate_fruits_banana_4.png	128	inanimate	fruits	banana	4	0	4	boats	2	incorrect	1.17180906096473
75255	1	stim035_animate_bird_peacock_3.png	35	animate	bird	peacock	3	0	4	boats	2	incorrect	1.17180906096473
75305	1	stim012_animate_aquatic_seahorse_4.png	12	animate	aquatic	seahorse	4	0	4	boats	2	incorrect	1.17180906096473
75355	1	stim028_animate_bird_duck_4.png	28	animate	bird	duck	4	0	4	boats	2	incorrect	1.17180906096473
75405	1	stim188_inanimate_tools_hammer_4.png	188	inanimate	tools	hammer	4	0	4	boats	2	incorrect	1.17180906096473
75455	1	stim164_inanimate_plants_bush_4.png	164	inanimate	plants	bush	4	0	4	boats	2	incorrect	1.17180906096473
75505	1	stim123_inanimate_fruits_apple_3.png	123	inanimate	fruits	apple	3	0	4	boats	2	incorrect	1.17180906096473
75555	1	stim047_animate_human_child_3.png	47	animate	human	child	3	0	4	boats	2	incorrect	1.17180906096473
75605	1	stim121_inanimate_fruits_apple_1.png	121	inanimate	fruits	apple	1	0	4	boats	2	incorrect	1.17180906096473
75655	1	stim117_inanimate_clothing_socks_1.png	117	inanimate	clothing	socks	1	0	4	boats	2	incorrect	1.17180906096473
75705	1	stim099_animate_mammal_rhino_3.png	99	animate	mammal	rhino	3	0	4	boats	2	incorrect	1.17180906096473
75755	1	stim059_animate_human_sports_3.png	59	animate	human	sports	3	0	4	boats	2	incorrect	1.17180906096473
75805	1	stim112_inanimate_clothing_jeans_4.png	112	inanimate	clothing	jeans	4	0	4	boats	2	incorrect	1.17180906096473
75855	1	stim058_animate_human_sports_2.png	58	animate	human	sports	2	0	4	boats	2	incorrect	1.17180906096473
75905	1	stim040_animate_bird_penguin_4.png	40	animate	bird	penguin	4	0	4	boats	2	incorrect	1.17180906096473
75955	1	stim171_inanimate_plants_sunflower_3.png	171	inanimate	plants	sunflower	3	0	4	boats	2	incorrect	1.17180906096473
76005	1	stim131_inanimate_fruits_grape_3.png	131	inanimate	fruits	grape	3	0	4	boats	2	incorrect	1.17180906096473
76055	1	stim063_animate_insect_ant_3.png	63	animate	insect	ant	3	0	4	boats	2	incorrect	1.17180906096473
76105	1	stim170_inanimate_plants_sunflower_2.png	170	inanimate	plants	sunflower	2	0	4	boats	2	incorrect	1.17180906096473
76155	1	stim065_animate_insect_bug_1.png	65	animate	insect	bug	1	0	4	boats	2	incorrect	1.17180906096473
76205	1	stim046_animate_human_child_2.png	46	animate	human	child	2	0	4	boats	2	incorrect	1.17180906096473
76255	1	stim006_animate_aquatic_fish_2.png	6	animate	aquatic	fish	2	0	4	boats	2	incorrect	1.17180906096473
76305	1	stim176_inanimate_plants_tree_4.png	176	inanimate	plants	tree	4	0	4	boats	2	incorrect	1.17180906096473
76355	1	stim199_inanimate_tools_wrench_3.png	199	inanimate	tools	wrench	3	0	4	boats	2	incorrect	1.17180906096473
76405	1	stim162_inanimate_plants_bush_2.png	162	inanimate	plants	bush	2	0	4	boats	2	incorrect	1.17180906096473
76455	1	stim085_animate_mammal_giraffe_1.png	85	animate	mammal	giraffe	1	0	4	boats	2	incorrect	1.17180906096473
76505	1	stim034_animate_bird_peacock_2.png	34	animate	bird	peacock	2	0	4	boats	2	incorrect	1.17180906096473
76555	1	stim048_animate_human_child_4.png	48	animate	human	child	4	0	4	boats	2	incorrect	1.17180906096473
76605	1	stim052_animate_human_clown_4.png	52	animate	human	clown	4	0	4	boats	2	incorrect	1.17180906096473
76655	1	stim111_inanimate_clothing_jeans_3.png	111	inanimate	clothing	jeans	3	0	4	boats	2	incorrect	1.17180906096473
76705	1	stim114_inanimate_clothing_shirt_2.png	114	inanimate	clothing	shirt	2	0	4	boats	2	incorrect	1.17180906096473
76755	1	stim024_animate_bird_chicken_4.png	24	animate	bird	chicken	4	0	4	boats	2	incorrect	1.17180906096473
76805	1	stim066_animate_insect_bug_2.png	66	animate	insect	bug	2	0	4	boats	2	incorrect	1.17180906096473
76855	1	stim079_animate_insect_grasshopper_3.png	79	animate	insect	grasshopper	3	0	4	boats	2	incorrect	1.17180906096473
76905	1	stim067_animate_insect_bug_3.png	67	animate	insect	bug	3	0	4	boats	2	incorrect	1.17180906096473
76955	1	stim154_inanimate_furniture_sofa_2.png	154	inanimate	furniture	sofa	2	0	4	boats	2	incorrect	1.17180906096473
77005	1	stim124_inanimate_fruits_apple_4.png	124	inanimate	fruits	apple	4	0	4	boats	2	incorrect	1.17180906096473
77055	1	stim002_animate_aquatic_crab_2.png	2	animate	aquatic	crab	2	0	4	boats	2	incorrect	1.17180906096473
77105	1	stim007_animate_aquatic_fish_3.png	7	animate	aquatic	fish	3	0	4	boats	2	incorrect	1.17180906096473
77155	1	stim207_targets_object_boats_3.png	207	targets	object	boats	3	1	4	boats	2	incorrect	1.17180906096473
77205	1	stim021_animate_bird_chicken_1.png	21	animate	bird	chicken	1	0	4	boats	2	incorrect	1.17180906096473
77255	1	stim140_inanimate_fruits_strawberry_4.png	140	inanimate	fruits	strawberry	4	0	4	boats	2	incorrect	1.17180906096473
77305	1	stim152_inanimate_furniture_closet_4.png	152	inanimate	furniture	closet	4	0	4	boats	2	incorrect	1.17180906096473
77355	1	stim009_animate_aquatic_seahorse_1.png	9	animate	aquatic	seahorse	1	0	4	boats	2	incorrect	1.17180906096473
77405	1	stim158_inanimate_furniture_table_2.png	158	inanimate	furniture	table	2	0	4	boats	2	incorrect	1.17180906096473
77455	1	stim010_animate_aquatic_seahorse_2.png	10	animate	aquatic	seahorse	2	0	4	boats	2	incorrect	1.17180906096473
77505	1	stim187_inanimate_tools_hammer_3.png	187	inanimate	tools	hammer	3	0	4	boats	2	incorrect	1.17180906096473
77555	1	stim069_animate_insect_butterfly_1.png	69	animate	insect	butterfly	1	0	4	boats	2	incorrect	1.17180906096473
77605	1	stim193_inanimate_tools_scissors_1.png	193	inanimate	tools	scissors	1	0	4	boats	2	incorrect	1.17180906096473
77655	1	stim147_inanimate_furniture_chair_3.png	147	inanimate	furniture	chair	3	0	4	boats	2	incorrect	1.17180906096473
77705	1	stim157_inanimate_furniture_table_1.png	157	inanimate	furniture	table	1	0	4	boats	2	incorrect	1.17180906096473
77755	1	stim118_inanimate_clothing_socks_2.png	118	inanimate	clothing	socks	2	0	4	boats	2	incorrect	1.17180906096473
77805	1	stim200_inanimate_tools_wrench_4.png	200	inanimate	tools	wrench	4	0	4	boats	2	incorrect	1.17180906096473
77855	1	stim165_inanimate_plants_cactus_1.png	165	inanimate	plants	cactus	1	0	4	boats	2	incorrect	1.17180906096473
77905	1	stim011_animate_aquatic_seahorse_3.png	11	animate	aquatic	seahorse	3	0	4	boats	2	incorrect	1.17180906096473
77955	1	stim090_animate_mammal_kangaroo_2.png	90	animate	mammal	kangaroo	2	0	4	boats	2	incorrect	1.17180906096473
78005	1	stim081_animate_mammal_cow_1.png	81	animate	mammal	cow	1	0	4	boats	2	incorrect	1.17180906096473
78055	1	stim078_animate_insect_grasshopper_2.png	78	animate	insect	grasshopper	2	0	4	boats	2	incorrect	1.17180906096473
78105	1	stim196_inanimate_tools_scissors_4.png	196	inanimate	tools	scissors	4	0	4	boats	2	incorrect	1.17180906096473
78155	1	stim202_targets_object_boats_2.png	202	targets	object	boats	2	1	4	boats	2	incorrect	1.17180906096473
78205	1	stim088_animate_mammal_giraffe_4.png	88	animate	mammal	giraffe	4	0	4	boats	2	incorrect	1.17180906096473
78255	1	stim036_animate_bird_peacock_4.png	36	animate	bird	peacock	4	0	4	boats	2	incorrect	1.17180906096473
78305	1	stim160_inanimate_furniture_table_4.png	160	inanimate	furniture	table	4	0	4	boats	2	incorrect	1.17180906096473
78355	1	stim143_inanimate_furniture_bed_3.png	143	inanimate	furniture	bed	3	0	4	boats	2	incorrect	1.17180906096473
78405	1	stim136_inanimate_fruits_pineapple_4.png	136	inanimate	fruits	pineapple	4	0	4	boats	2	incorrect	1.17180906096473
78455	1	stim120_inanimate_clothing_socks_4.png	120	inanimate	clothing	socks	4	0	4	boats	2	incorrect	1.17180906096473
78505	1	stim179_inanimate_plants_tulip_3.png	179	inanimate	plants	tulip	3	0	4	boats	2	incorrect	1.17180906096473
78555	1	stim146_inanimate_furniture_chair_2.png	146	inanimate	furniture	chair	2	0	4	boats	2	incorrect	1.17180906096473
78605	1	stim122_inanimate_fruits_apple_2.png	122	inanimate	fruits	apple	2	0	4	boats	2	incorrect	1.17180906096473
78655	1	stim104_inanimate_clothing_gloves_4.png	104	inanimate	clothing	gloves	4	0	4	boats	2	incorrect	1.17180906096473
78705	1	stim076_animate_insect_dragonfly_4.png	76	animate	insect	dragonfly	4	0	4	boats	2	incorrect	1.17180906096473
78755	1	stim148_inanimate_furniture_chair_4.png	148	inanimate	furniture	chair	4	0	4	boats	2	incorrect	1.17180906096473
78805	1	stim101_inanimate_clothing_gloves_1.png	101	inanimate	clothing	gloves	1	0	4	boats	2	incorrect	1.17180906096473
78855	1	stim161_inanimate_plants_bush_1.png	161	inanimate	plants	bush	1	0	4	boats	2	incorrect	1.17180906096473
78905	1	stim105_inanimate_clothing_hat_1.png	105	inanimate	clothing	hat	1	0	4	boats	2	incorrect	1.17180906096473
78955	1	stim102_inanimate_clothing_gloves_2.png	102	inanimate	clothing	gloves	2	0	4	boats	2	incorrect	1.17180906096473
79005	1	stim032_animate_bird_parrot_4.png	32	animate	bird	parrot	4	0	4	boats	2	incorrect	1.17180906096473
79055	1	stim172_inanimate_plants_sunflower_4.png	172	inanimate	plants	sunflower	4	0	4	boats	2	incorrect	1.17180906096473
79105	1	stim096_animate_mammal_monkey_4.png	96	animate	mammal	monkey	4	0	4	boats	2	incorrect	1.17180906096473
79155	1	stim014_animate_aquatic_shark_2.png	14	animate	aquatic	shark	2	0	4	boats	2	incorrect	1.17180906096473
79205	1	stim134_inanimate_fruits_pineapple_2.png	134	inanimate	fruits	pineapple	2	0	4	boats	2	incorrect	1.17180906096473
79255	1	stim108_inanimate_clothing_hat_4.png	108	inanimate	clothing	hat	4	0	4	boats	2	incorrect	1.17180906096473
79305	1	stim180_inanimate_plants_tulip_4.png	180	inanimate	plants	tulip	4	0	4	boats	2	incorrect	1.17180906096473
79355	1	stim091_animate_mammal_kangaroo_3.png	91	animate	mammal	kangaroo	3	0	4	boats	2	incorrect	1.17180906096473
79405	1	stim094_animate_mammal_monkey_2.png	94	animate	mammal	monkey	2	0	4	boats	2	incorrect	1.17180906096473
79455	1	stim033_animate_bird_peacock_1.png	33	animate	bird	peacock	1	0	4	boats	2	incorrect	1.17180906096473
79505	1	stim150_inanimate_furniture_closet_2.png	150	inanimate	furniture	closet	2	0	4	boats	2	incorrect	1.17180906096473
79555	1	stim115_inanimate_clothing_shirt_3.png	115	inanimate	clothing	shirt	3	0	4	boats	2	incorrect	1.17180906096473
79605	1	stim153_inanimate_furniture_sofa_1.png	153	inanimate	furniture	sofa	1	0	4	boats	2	incorrect	1.17180906096473
79655	1	stim195_inanimate_tools_scissors_3.png	195	inanimate	tools	scissors	3	0	4	boats	2	incorrect	1.17180906096473
79705	1	stim003_animate_aquatic_crab_3.png	3	animate	aquatic	crab	3	0	4	boats	2	incorrect	1.17180906096473
79755	1	stim019_animate_aquatic_shrimp_3.png	19	animate	aquatic	shrimp	3	0	4	boats	2	incorrect	1.17180906096473
79805	1	stim107_inanimate_clothing_hat_3.png	107	inanimate	clothing	hat	3	0	4	boats	2	incorrect	1.17180906096473
79855	1	stim041_animate_human_baby_1.png	41	animate	human	baby	1	0	4	boats	2	incorrect	1.17180906096473
79905	1	stim022_animate_bird_chicken_2.png	22	animate	bird	chicken	2	0	4	boats	2	incorrect	1.17180906096473
79955	1	stim054_animate_human_faces_2.png	54	animate	human	faces	2	0	4	boats	2	incorrect	1.17180906096473
80005	1	stim186_inanimate_tools_hammer_2.png	186	inanimate	tools	hammer	2	0	4	boats	2	incorrect	1.17180906096473
80055	1	stim068_animate_insect_bug_4.png	68	animate	insect	bug	4	0	4	boats	2	incorrect	1.17180906096473
80105	1	stim141_inanimate_furniture_bed_1.png	141	inanimate	furniture	bed	1	0	4	boats	2	incorrect	1.17180906096473
80155	1	stim106_inanimate_clothing_hat_2.png	106	inanimate	clothing	hat	2	0	4	boats	2	incorrect	1.17180906096473
80205	1	stim050_animate_human_clown_2.png	50	animate	human	clown	2	0	4	boats	2	incorrect	1.17180906096473
80255	1	stim192_inanimate_tools_pan_4.png	192	inanimate	tools	pan	4	0	4	boats	2	incorrect	1.17180906096473
80305	1	stim163_inanimate_plants_bush_3.png	163	inanimate	plants	bush	3	0	4	boats	2	incorrect	1.17180906096473
80355	1	stim132_inanimate_fruits_grape_4.png	132	inanimate	fruits	grape	4	0	4	boats	2	incorrect	1.17180906096473
80405	1	stim084_animate_mammal_cow_4.png	84	animate	mammal	cow	4	0	4	boats	2	incorrect	1.17180906096473
80455	1	stim201_targets_object_boats_1.png	201	targets	object	boats	1	1	4	boats	2	incorrect	1.17180906096473
80505	1	stim137_inanimate_fruits_strawberry_1.png	137	inanimate	fruits	strawberry	1	0	4	boats	2	incorrect	1.17180906096473
80555	1	stim087_animate_mammal_giraffe_3.png	87	animate	mammal	giraffe	3	0	4	boats	2	incorrect	1.17180906096473
80605	1	stim043_animate_human_baby_3.png	43	animate	human	baby	3	0	4	boats	2	incorrect	1.17180906096473
80655	1	stim072_animate_insect_butterfly_4.png	72	animate	insect	butterfly	4	0	4	boats	2	incorrect	1.17180906096473
80705	1	stim133_inanimate_fruits_pineapple_1.png	133	inanimate	fruits	pineapple	1	0	4	boats	2	incorrect	1.17180906096473
80755	1	stim018_animate_aquatic_shrimp_2.png	18	animate	aquatic	shrimp	2	0	4	boats	2	incorrect	1.17180906096473
80805	1	stim184_inanimate_tools_broom_4.png	184	inanimate	tools	broom	4	0	4	boats	2	incorrect	1.17180906096473
80855	1	stim044_animate_human_baby_4.png	44	animate	human	baby	4	0	4	boats	2	incorrect	1.17180906096473
80905	1	stim197_inanimate_tools_wrench_1.png	197	inanimate	tools	wrench	1	0	4	boats	2	incorrect	1.17180906096473
80955	1	stim198_inanimate_tools_wrench_2.png	198	inanimate	tools	wrench	2	0	4	boats	2	incorrect	1.17180906096473
81005	1	stim167_inanimate_plants_cactus_3.png	167	inanimate	plants	cactus	3	0	4	boats	2	incorrect	1.17180906096473
81055	1	stim017_animate_aquatic_shrimp_1.png	17	animate	aquatic	shrimp	1	0	4	boats	2	incorrect	1.17180906096473
81105	1	stim095_animate_mammal_monkey_3.png	95	animate	mammal	monkey	3	0	4	boats	2	incorrect	1.17180906096473
81155	1	stim181_inanimate_tools_broom_1.png	181	inanimate	tools	broom	1	0	4	boats	2	incorrect	1.17180906096473
81205	1	stim125_inanimate_fruits_banana_1.png	125	inanimate	fruits	banana	1	0	4	boats	2	incorrect	1.17180906096473
81255	1	stim097_animate_mammal_rhino_1.png	97	animate	mammal	rhino	1	0	4	boats	2	incorrect	1.17180906096473
81305	1	stim031_animate_bird_parrot_3.png	31	animate	bird	parrot	3	0	4	boats	2	incorrect	1.17180906096473
81355	1	stim190_inanimate_tools_pan_2.png	190	inanimate	tools	pan	2	0	4	boats	2	incorrect	1.17180906096473
81405	1	stim113_inanimate_clothing_shirt_1.png	113	inanimate	clothing	shirt	1	0	4	boats	2	incorrect	1.17180906096473
81455	1	stim144_inanimate_furniture_bed_4.png	144	inanimate	furniture	bed	4	0	4	boats	2	incorrect	1.17180906096473
81505	1	stim026_animate_bird_duck_2.png	26	animate	bird	duck	2	0	4	boats	2	incorrect	1.17180906096473
81555	1	stim073_animate_insect_dragonfly_1.png	73	animate	insect	dragonfly	1	0	4	boats	2	incorrect	1.17180906096473
81605	1	stim074_animate_insect_dragonfly_2.png	74	animate	insect	dragonfly	2	0	4	boats	2	incorrect	1.17180906096473
81655	1	stim062_animate_insect_ant_2.png	62	animate	insect	ant	2	0	4	boats	2	incorrect	1.17180906096473
81705	1	stim189_inanimate_tools_pan_1.png	189	inanimate	tools	pan	1	0	4	boats	2	incorrect	1.17180906096473
81755	1	stim016_animate_aquatic_shark_4.png	16	animate	aquatic	shark	4	0	4	boats	2	incorrect	1.17180906096473
81805	1	stim001_animate_aquatic_crab_1.png	1	animate	aquatic	crab	1	0	4	boats	2	incorrect	1.17180906096473
81855	1	stim116_inanimate_clothing_shirt_4.png	116	inanimate	clothing	shirt	4	0	4	boats	2	incorrect	1.17180906096473
81905	1	stim038_animate_bird_penguin_2.png	38	animate	bird	penguin	2	0	4	boats	2	incorrect	1.17180906096473
81955	1	stim070_animate_insect_butterfly_2.png	70	animate	insect	butterfly	2	0	4	boats	2	incorrect	1.17180906096473
82005	1	stim103_inanimate_clothing_gloves_3.png	103	inanimate	clothing	gloves	3	0	4	boats	2	incorrect	1.17180906096473
82055	1	stim053_animate_human_faces_1.png	53	animate	human	faces	1	0	4	boats	2	incorrect	1.17180906096473
82105	1	stim030_animate_bird_parrot_2.png	30	animate	bird	parrot	2	0	4	boats	2	incorrect	1.17180906096473
82155	1	stim060_animate_human_sports_4.png	60	animate	human	sports	4	0	4	boats	2	incorrect	1.17180906096473
82205	1	stim086_animate_mammal_giraffe_2.png	86	animate	mammal	giraffe	2	0	4	boats	2	incorrect	1.17180906096473
82255	1	stim145_inanimate_furniture_chair_1.png	145	inanimate	furniture	chair	1	0	4	boats	2	incorrect	1.17180906096473
82305	1	stim055_animate_human_faces_3.png	55	animate	human	faces	3	0	4	boats	2	incorrect	1.17180906096473
82355	1	stim183_inanimate_tools_broom_3.png	183	inanimate	tools	broom	3	0	4	boats	2	incorrect	1.17180906096473
82405	1	stim045_animate_human_child_1.png	45	animate	human	child	1	0	4	boats	2	incorrect	1.17180906096473
82455	1	stim075_animate_insect_dragonfly_3.png	75	animate	insect	dragonfly	3	0	4	boats	2	incorrect	1.17180906096473
82505	1	stim020_animate_aquatic_shrimp_4.png	20	animate	aquatic	shrimp	4	0	4	boats	2	incorrect	1.17180906096473
82555	1	stim089_animate_mammal_kangaroo_1.png	89	animate	mammal	kangaroo	1	0	4	boats	2	incorrect	1.17180906096473
82605	1	stim159_inanimate_furniture_table_3.png	159	inanimate	furniture	table	3	0	4	boats	2	incorrect	1.17180906096473
82655	1	stim077_animate_insect_grasshopper_1.png	77	animate	insect	grasshopper	1	0	4	boats	2	incorrect	1.17180906096473
82705	1	stim056_animate_human_faces_4.png	56	animate	human	faces	4	0	4	boats	2	incorrect	1.17180906096473
82755	1	stim100_animate_mammal_rhino_4.png	100	animate	mammal	rhino	4	0	4	boats	2	incorrect	1.17180906096473
82805	1	stim039_animate_bird_penguin_3.png	39	animate	bird	penguin	3	0	4	boats	2	incorrect	1.17180906096473
88638	1	stim123_inanimate_fruits_apple_3.png	123	inanimate	fruits	apple	3	0	5	stars	2	correct	0.670514796976931
88688	1	stim017_animate_aquatic_shrimp_1.png	17	animate	aquatic	shrimp	1	0	5	stars	2	correct	0.670514796976931
88738	1	stim198_inanimate_tools_wrench_2.png	198	inanimate	tools	wrench	2	0	5	stars	2	correct	0.670514796976931
88788	1	stim069_animate_insect_butterfly_1.png	69	animate	insect	butterfly	1	0	5	stars	2	correct	0.670514796976931
88838	1	stim191_inanimate_tools_pan_3.png	191	inanimate	tools	pan	3	0	5	stars	2	correct	0.670514796976931
88888	1	stim159_inanimate_furniture_table_3.png	159	inanimate	furniture	table	3	0	5	stars	2	correct	0.670514796976931
88938	1	stim098_animate_mammal_rhino_2.png	98	animate	mammal	rhino	2	0	5	stars	2	correct	0.670514796976931
88988	1	stim103_inanimate_clothing_gloves_3.png	103	inanimate	clothing	gloves	3	0	5	stars	2	correct	0.670514796976931
89038	1	stim089_animate_mammal_kangaroo_1.png	89	animate	mammal	kangaroo	1	0	5	stars	2	correct	0.670514796976931
89088	1	stim132_inanimate_fruits_grape_4.png	132	inanimate	fruits	grape	4	0	5	stars	2	correct	0.670514796976931
89138	1	stim167_inanimate_plants_cactus_3.png	167	inanimate	plants	cactus	3	0	5	stars	2	correct	0.670514796976931
89188	1	stim041_animate_human_baby_1.png	41	animate	human	baby	1	0	5	stars	2	correct	0.670514796976931
89238	1	stim030_animate_bird_parrot_2.png	30	animate	bird	parrot	2	0	5	stars	2	correct	0.670514796976931
89288	1	stim119_inanimate_clothing_socks_3.png	119	inanimate	clothing	socks	3	0	5	stars	2	correct	0.670514796976931
89338	1	stim172_inanimate_plants_sunflower_4.png	172	inanimate	plants	sunflower	4	0	5	stars	2	correct	0.670514796976931
89388	1	stim193_inanimate_tools_scissors_1.png	193	inanimate	tools	scissors	1	0	5	stars	2	correct	0.670514796976931
89438	1	stim182_inanimate_tools_broom_2.png	182	inanimate	tools	broom	2	0	5	stars	2	correct	0.670514796976931
89488	1	stim082_animate_mammal_cow_2.png	82	animate	mammal	cow	2	0	5	stars	2	correct	0.670514796976931
89538	1	stim040_animate_bird_penguin_4.png	40	animate	bird	penguin	4	0	5	stars	2	correct	0.670514796976931
89588	1	stim063_animate_insect_ant_3.png	63	animate	insect	ant	3	0	5	stars	2	correct	0.670514796976931
89638	1	stim184_inanimate_tools_broom_4.png	184	inanimate	tools	broom	4	0	5	stars	2	correct	0.670514796976931
89688	1	stim142_inanimate_furniture_bed_2.png	142	inanimate	furniture	bed	2	0	5	stars	2	correct	0.670514796976931
89738	1	stim018_animate_aquatic_shrimp_2.png	18	animate	aquatic	shrimp	2	0	5	stars	2	correct	0.670514796976931
89788	1	stim081_animate_mammal_cow_1.png	81	animate	mammal	cow	1	0	5	stars	2	correct	0.670514796976931
89838	1	stim036_animate_bird_peacock_4.png	36	animate	bird	peacock	4	0	5	stars	2	correct	0.670514796976931
89889	1	stim161_inanimate_plants_bush_1.png	161	inanimate	plants	bush	1	0	5	stars	2	correct	0.670514796976931
89938	1	stim144_inanimate_furniture_bed_4.png	144	inanimate	furniture	bed	4	0	5	stars	2	correct	0.670514796976931
89988	1	stim164_inanimate_plants_bush_4.png	164	inanimate	plants	bush	4	0	5	stars	2	correct	0.670514796976931
90039	1	stim108_inanimate_clothing_hat_4.png	108	inanimate	clothing	hat	4	0	5	stars	2	correct	0.670514796976931
90088	1	stim023_animate_bird_chicken_3.png	23	animate	bird	chicken	3	0	5	stars	2	correct	0.670514796976931
90138	1	stim170_inanimate_plants_sunflower_2.png	170	inanimate	plants	sunflower	2	0	5	stars	2	correct	0.670514796976931
90188	1	stim051_animate_human_clown_3.png	51	animate	human	clown	3	0	5	stars	2	correct	0.670514796976931
90238	1	stim129_inanimate_fruits_grape_1.png	129	inanimate	fruits	grape	1	0	5	stars	2	correct	0.670514796976931
90288	1	stim147_inanimate_furniture_chair_3.png	147	inanimate	furniture	chair	3	0	5	stars	2	correct	0.670514796976931
90338	1	stim084_animate_mammal_cow_4.png	84	animate	mammal	cow	4	0	5	stars	2	correct	0.670514796976931
90388	1	stim150_inanimate_furniture_closet_2.png	150	inanimate	furniture	closet	2	0	5	stars	2	correct	0.670514796976931
90438	1	stim151_inanimate_furniture_closet_3.png	151	inanimate	furniture	closet	3	0	5	stars	2	correct	0.670514796976931
90488	1	stim002_animate_aquatic_crab_2.png	2	animate	aquatic	crab	2	0	5	stars	2	correct	0.670514796976931
90538	1	stim001_animate_aquatic_crab_1.png	1	animate	aquatic	crab	1	0	5	stars	2	correct	0.670514796976931
90588	1	stim173_inanimate_plants_tree_1.png	173	inanimate	plants	tree	1	0	5	stars	2	correct	0.670514796976931
90638	1	stim178_inanimate_plants_tulip_2.png	178	inanimate	plants	tulip	2	0	5	stars	2	correct	0.670514796976931
90689	1	stim106_inanimate_clothing_hat_2.png	106	inanimate	clothing	hat	2	0	5	stars	2	correct	0.670514796976931
90738	1	stim096_animate_mammal_monkey_4.png	96	animate	mammal	monkey	4	0	5	stars	2	correct	0.670514796976931
90788	1	stim088_animate_mammal_giraffe_4.png	88	animate	mammal	giraffe	4	0	5	stars	2	correct	0.670514796976931
90838	1	stim024_animate_bird_chicken_4.png	24	animate	bird	chicken	4	0	5	stars	2	correct	0.670514796976931
90888	1	stim009_animate_aquatic_seahorse_1.png	9	animate	aquatic	seahorse	1	0	5	stars	2	correct	0.670514796976931
90938	1	stim011_animate_aquatic_seahorse_3.png	11	animate	aquatic	seahorse	3	0	5	stars	2	correct	0.670514796976931
90988	1	stim006_animate_aquatic_fish_2.png	6	animate	aquatic	fish	2	0	5	stars	2	correct	0.670514796976931
91038	1	stim047_animate_human_child_3.png	47	animate	human	child	3	0	5	stars	2	correct	0.670514796976931
91089	1	stim058_animate_human_sports_2.png	58	animate	human	sports	2	0	5	stars	2	correct	0.670514796976931
91139	1	stim056_animate_human_faces_4.png	56	animate	human	faces	4	0	5	stars	2	correct	0.670514796976931
91188	1	stim121_inanimate_fruits_apple_1.png	121	inanimate	fruits	apple	1	0	5	stars	2	correct	0.670514796976931
91239	1	stim165_inanimate_plants_cactus_1.png	165	inanimate	plants	cactus	1	0	5	stars	2	correct	0.670514796976931
91289	1	stim175_inanimate_plants_tree_3.png	175	inanimate	plants	tree	3	0	5	stars	2	correct	0.670514796976931
91339	1	stim128_inanimate_fruits_banana_4.png	128	inanimate	fruits	banana	4	0	5	stars	2	correct	0.670514796976931
91389	1	stim077_animate_insect_grasshopper_1.png	77	animate	insect	grasshopper	1	0	5	stars	2	correct	0.670514796976931
91439	1	stim200_inanimate_tools_wrench_4.png	200	inanimate	tools	wrench	4	0	5	stars	2	correct	0.670514796976931
91489	1	stim113_inanimate_clothing_shirt_1.png	113	inanimate	clothing	shirt	1	0	5	stars	2	correct	0.670514796976931
91539	1	stim003_animate_aquatic_crab_3.png	3	animate	aquatic	crab	3	0	5	stars	2	correct	0.670514796976931
91589	1	stim066_animate_insect_bug_2.png	66	animate	insect	bug	2	0	5	stars	2	correct	0.670514796976931
91639	1	stim025_animate_bird_duck_1.png	25	animate	bird	duck	1	0	5	stars	2	correct	0.670514796976931
91689	1	stim046_animate_human_child_2.png	46	animate	human	child	2	0	5	stars	2	correct	0.670514796976931
91739	1	stim102_inanimate_clothing_gloves_2.png	102	inanimate	clothing	gloves	2	0	5	stars	2	correct	0.670514796976931
91789	1	stim158_inanimate_furniture_table_2.png	158	inanimate	furniture	table	2	0	5	stars	2	correct	0.670514796976931
91839	1	stim022_animate_bird_chicken_2.png	22	animate	bird	chicken	2	0	5	stars	2	correct	0.670514796976931
91889	1	stim072_animate_insect_butterfly_4.png	72	animate	insect	butterfly	4	0	5	stars	2	correct	0.670514796976931
91939	1	stim131_inanimate_fruits_grape_3.png	131	inanimate	fruits	grape	3	0	5	stars	2	correct	0.670514796976931
91989	1	stim117_inanimate_clothing_socks_1.png	117	inanimate	clothing	socks	1	0	5	stars	2	correct	0.670514796976931
92039	1	stim062_animate_insect_ant_2.png	62	animate	insect	ant	2	0	5	stars	2	correct	0.670514796976931
92089	1	stim195_inanimate_tools_scissors_3.png	195	inanimate	tools	scissors	3	0	5	stars	2	correct	0.670514796976931
92139	1	stim118_inanimate_clothing_socks_2.png	118	inanimate	clothing	socks	2	0	5	stars	2	correct	0.670514796976931
92189	1	stim141_inanimate_furniture_bed_1.png	141	inanimate	furniture	bed	1	0	5	stars	2	correct	0.670514796976931
92239	1	stim034_animate_bird_peacock_2.png	34	animate	bird	peacock	2	0	5	stars	2	correct	0.670514796976931
92289	1	stim146_inanimate_furniture_chair_2.png	146	inanimate	furniture	chair	2	0	5	stars	2	correct	0.670514796976931
92339	1	stim197_inanimate_tools_wrench_1.png	197	inanimate	tools	wrench	1	0	5	stars	2	correct	0.670514796976931
92389	1	stim213_targets_shapes_star_1.png	213	targets	shapes	star	1	1	5	stars	2	correct	0.670514796976931
92439	1	stim143_inanimate_furniture_bed_3.png	143	inanimate	furniture	bed	3	0	5	stars	2	correct	0.670514796976931
92489	1	stim008_animate_aquatic_fish_4.png	8	animate	aquatic	fish	4	0	5	stars	2	correct	0.670514796976931
92539	1	stim140_inanimate_fruits_strawberry_4.png	140	inanimate	fruits	strawberry	4	0	5	stars	2	correct	0.670514796976931
92589	1	stim037_animate_bird_penguin_1.png	37	animate	bird	penguin	1	0	5	stars	2	correct	0.670514796976931
92639	1	stim045_animate_human_child_1.png	45	animate	human	child	1	0	5	stars	2	correct	0.670514796976931
92689	1	stim083_animate_mammal_cow_3.png	83	animate	mammal	cow	3	0	5	stars	2	correct	0.670514796976931
92739	1	stim152_inanimate_furniture_closet_4.png	152	inanimate	furniture	closet	4	0	5	stars	2	correct	0.670514796976931
92789	1	stim086_animate_mammal_giraffe_2.png	86	animate	mammal	giraffe	2	0	5	stars	2	correct	0.670514796976931
92839	1	stim039_animate_bird_penguin_3.png	39	animate	bird	penguin	3	0	5	stars	2	correct	0.670514796976931
