onset	duration	stimulusname	stimulusnumber	levelA	levelB	levelC	withinexemplarnumber	istarget	trialnumber	condition	response	correct	rt
41203	1	stim071_animate_insect_butterfly_3.png	71	animate	insect	butterfly	3	0	1	boats	3	correct	0.954252029536292
41403	1	stim163_inanimate_plants_bush_3.png	163	inanimate	plants	bush	3	0	1	boats	3	correct	0.954252029536292
41603	1	stim009_animate_aquatic_seahorse_1.png	9	animate	aquatic	seahorse	1	0	1	boats	3	correct	0.954252029536292
41803	1	stim076_animate_insect_dragonfly_4.png	76	animate	insect	dragonfly	4	0	1	boats	3	correct	0.954252029536292
42004	1	stim140_inanimate_fruits_strawberry_4.png	140	inanimate	fruits	strawberry	4	0	1	boats	3	correct	0.954252029536292
42203	1	stim113_inanimate_clothing_shirt_1.png	113	inanimate	clothing	shirt	1	0	1	boats	3	correct	0.954252029536292
42403	1	stim083_animate_mammal_cow_3.png	83	animate	mammal	cow	3	0	1	boats	3	correct	0.954252029536292
42603	1	stim012_animate_aquatic_seahorse_4.png	12	animate	aquatic	seahorse	4	0	1	boats	3	correct	0.954252029536292
42803	1	stim104_inanimate_clothing_gloves_4.png	104	inanimate	clothing	gloves	4	0	1	boats	3	correct	0.954252029536292
43003	1	stim188_inanimate_tools_hammer_4.png	188	inanimate	tools	hammer	4	0	1	boats	3	correct	0.954252029536292
43203	1	stim126_inanimate_fruits_banana_2.png	126	inanimate	fruits	banana	2	0	1	boats	3	correct	0.954252029536292
43403	1	stim130_inanimate_fruits_grape_2.png	130	inanimate	fruits	grape	2	0	1	boats	3	correct	0.954252029536292
43603	1	stim168_inanimate_plants_cactus_4.png	168	inanimate	plants	cactus	4	0	1	boats	3	correct	0.954252029536292
43803	1	stim146_inanimate_furniture_chair_2.png	146	inanimate	furniture	chair	2	0	1	boats	3	correct	0.954252029536292
44003	1	stim169_inanimate_plants_sunflower_1.png	169	inanimate	plants	sunflower	1	0	1	boats	3	correct	0.954252029536292
44203	1	stim074_animate_insect_dragonfly_2.png	74	animate	insect	dragonfly	2	0	1	boats	3	correct	0.954252029536292
44403	1	stim037_animate_bird_penguin_1.png	37	animate	bird	penguin	1	0	1	boats	3	correct	0.954252029536292
44603	1	stim023_animate_bird_chicken_3.png	23	animate	bird	chicken	3	0	1	boats	3	correct	0.954252029536292
44803	1	stim197_inanimate_tools_wrench_1.png	197	inanimate	tools	wrench	1	0	1	boats	3	correct	0.954252029536292
45003	1	stim192_inanimate_tools_pan_4.png	192	inanimate	tools	pan	4	0	1	boats	3	correct	0.954252029536292
45203	1	stim107_inanimate_clothing_hat_3.png	107	inanimate	clothing	hat	3	0	1	boats	3	correct	0.954252029536292
45403	1	stim014_animate_aquatic_shark_2.png	14	animate	aquatic	shark	2	0	1	boats	3	correct	0.954252029536292
45603	1	stim042_animate_human_baby_2.png	42	animate	human	baby	2	0	1	boats	3	correct	0.954252029536292
45803	1	stim170_inanimate_plants_sunflower_2.png	170	inanimate	plants	sunflower	2	0	1	boats	3	correct	0.954252029536292
46003	1	stim110_inanimate_clothing_jeans_2.png	110	inanimate	clothing	jeans	2	0	1	boats	3	correct	0.954252029536292
46203	1	stim152_inanimate_furniture_closet_4.png	152	inanimate	furniture	closet	4	0	1	boats	3	correct	0.954252029536292
46403	1	stim058_animate_human_sports_2.png	58	animate	human	sports	2	0	1	boats	3	correct	0.954252029536292
46603	1	stim090_animate_mammal_kangaroo_2.png	90	animate	mammal	kangaroo	2	0	1	boats	3	correct	0.954252029536292
46803	1	stim026_animate_bird_duck_2.png	26	animate	bird	duck	2	0	1	boats	3	correct	0.954252029536292
47003	1	stim148_inanimate_furniture_chair_4.png	148	inanimate	furniture	chair	4	0	1	boats	3	correct	0.954252029536292
47203	1	stim045_animate_human_child_1.png	45	animate	human	child	1	0	1	boats	3	correct	0.954252029536292
47403	1	stim115_inanimate_clothing_shirt_3.png	115	inanimate	clothing	shirt	3	0	1	boats	3	correct	0.954252029536292
47603	1	stim165_inanimate_plants_cactus_1.png	165	inanimate	plants	cactus	1	0	1	boats	3	correct	0.954252029536292
47803	1	stim052_animate_human_clown_4.png	52	animate	human	clown	4	0	1	boats	3	correct	0.954252029536292
48003	1	stim088_animate_mammal_giraffe_4.png	88	animate	mammal	giraffe	4	0	1	boats	3	correct	0.954252029536292
48203	1	stim156_inanimate_furniture_sofa_4.png	156	inanimate	furniture	sofa	4	0	1	boats	3	correct	0.954252029536292
48403	1	stim109_inanimate_clothing_jeans_1.png	109	inanimate	clothing	jeans	1	0	1	boats	3	correct	0.954252029536292
48603	1	stim072_animate_insect_butterfly_4.png	72	animate	insect	butterfly	4	0	1	boats	3	correct	0.954252029536292
48803	1	stim049_animate_human_clown_1.png	49	animate	human	clown	1	0	1	boats	3	correct	0.954252029536292
49003	1	stim184_inanimate_tools_broom_4.png	184	inanimate	tools	broom	4	0	1	boats	3	correct	0.954252029536292
49203	1	stim056_animate_human_faces_4.png	56	animate	human	faces	4	0	1	boats	3	correct	0.954252029536292
49403	1	stim101_inanimate_clothing_gloves_1.png	101	inanimate	clothing	gloves	1	0	1	boats	3	correct	0.954252029536292
49603	1	stim017_animate_aquatic_shrimp_1.png	17	animate	aquatic	shrimp	1	0	1	boats	3	correct	0.954252029536292
49803	1	stim099_animate_mammal_rhino_3.png	99	animate	mammal	rhino	3	0	1	boats	3	correct	0.954252029536292
50003	1	stim145_inanimate_furniture_chair_1.png	145	inanimate	furniture	chair	1	0	1	boats	3	correct	0.954252029536292
50203	1	stim073_animate_insect_dragonfly_1.png	73	animate	insect	dragonfly	1	0	1	boats	3	correct	0.954252029536292
50403	1	stim054_animate_human_faces_2.png	54	animate	human	faces	2	0	1	boats	3	correct	0.954252029536292
50603	1	stim095_animate_mammal_monkey_3.png	95	animate	mammal	monkey	3	0	1	boats	3	correct	0.954252029536292
50803	1	stim003_animate_aquatic_crab_3.png	3	animate	aquatic	crab	3	0	1	boats	3	correct	0.954252029536292
51003	1	stim167_inanimate_plants_cactus_3.png	167	inanimate	plants	cactus	3	0	1	boats	3	correct	0.954252029536292
51203	1	stim180_inanimate_plants_tulip_4.png	180	inanimate	plants	tulip	4	0	1	boats	3	correct	0.954252029536292
51403	1	stim016_animate_aquatic_shark_4.png	16	animate	aquatic	shark	4	0	1	boats	3	correct	0.954252029536292
51603	1	stim063_animate_insect_ant_3.png	63	animate	insect	ant	3	0	1	boats	3	correct	0.954252029536292
51803	1	stim193_inanimate_tools_scissors_1.png	193	inanimate	tools	scissors	1	0	1	boats	3	correct	0.954252029536292
52003	1	stim200_inanimate_tools_wrench_4.png	200	inanimate	tools	wrench	4	0	1	boats	3	correct	0.954252029536292
52203	1	stim154_inanimate_furniture_sofa_2.png	154	inanimate	furniture	sofa	2	0	1	boats	3	correct	0.954252029536292
52403	1	stim010_animate_aquatic_seahorse_2.png	10	animate	aquatic	seahorse	2	0	1	boats	3	correct	0.954252029536292
52603	1	stim030_animate_bird_parrot_2.png	30	animate	bird	parrot	2	0	1	boats	3	correct	0.954252029536292
52803	1	stim136_inanimate_fruits_pineapple_4.png	136	inanimate	fruits	pineapple	4	0	1	boats	3	correct	0.954252029536292
53003	1	stim202_targets_object_boats_2.png	202	targets	object	boats	2	1	1	boats	3	correct	0.954252029536292
53203	1	stim141_inanimate_furniture_bed_1.png	141	inanimate	furniture	bed	1	0	1	boats	3	correct	0.954252029536292
53403	1	stim070_animate_insect_butterfly_2.png	70	animate	insect	butterfly	2	0	1	boats	3	correct	0.954252029536292
53603	1	stim114_inanimate_clothing_shirt_2.png	114	inanimate	clothing	shirt	2	0	1	boats	3	correct	0.954252029536292
53803	1	stim132_inanimate_fruits_grape_4.png	132	inanimate	fruits	grape	4	0	1	boats	3	correct	0.954252029536292
54004	1	stim077_animate_insect_grasshopper_1.png	77	animate	insect	grasshopper	1	0	1	boats	3	correct	0.954252029536292
54204	1	stim173_inanimate_plants_tree_1.png	173	inanimate	plants	tree	1	0	1	boats	3	correct	0.954252029536292
54404	1	stim078_animate_insect_grasshopper_2.png	78	animate	insect	grasshopper	2	0	1	boats	3	correct	0.954252029536292
54603	1	stim105_inanimate_clothing_hat_1.png	105	inanimate	clothing	hat	1	0	1	boats	3	correct	0.954252029536292
54804	1	stim164_inanimate_plants_bush_4.png	164	inanimate	plants	bush	4	0	1	boats	3	correct	0.954252029536292
55004	1	stim062_animate_insect_ant_2.png	62	animate	insect	ant	2	0	1	boats	3	correct	0.954252029536292
55204	1	stim068_animate_insect_bug_4.png	68	animate	insect	bug	4	0	1	boats	3	correct	0.954252029536292
55404	1	stim175_inanimate_plants_tree_3.png	175	inanimate	plants	tree	3	0	1	boats	3	correct	0.954252029536292
55604	1	stim149_inanimate_furniture_closet_1.png	149	inanimate	furniture	closet	1	0	1	boats	3	correct	0.954252029536292
55804	1	stim116_inanimate_clothing_shirt_4.png	116	inanimate	clothing	shirt	4	0	1	boats	3	correct	0.954252029536292
56004	1	stim133_inanimate_fruits_pineapple_1.png	133	inanimate	fruits	pineapple	1	0	1	boats	3	correct	0.954252029536292
56204	1	stim153_inanimate_furniture_sofa_1.png	153	inanimate	furniture	sofa	1	0	1	boats	3	correct	0.954252029536292
56404	1	stim159_inanimate_furniture_table_3.png	159	inanimate	furniture	table	3	0	1	boats	3	correct	0.954252029536292
56604	1	stim055_animate_human_faces_3.png	55	animate	human	faces	3	0	1	boats	3	correct	0.954252029536292
56804	1	stim034_animate_bird_peacock_2.png	34	animate	bird	peacock	2	0	1	boats	3	correct	0.954252029536292
57004	1	stim118_inanimate_clothing_socks_2.png	118	inanimate	clothing	socks	2	0	1	boats	3	correct	0.954252029536292
57204	1	stim097_animate_mammal_rhino_1.png	97	animate	mammal	rhino	1	0	1	boats	3	correct	0.954252029536292
57404	1	stim195_inanimate_tools_scissors_3.png	195	inanimate	tools	scissors	3	0	1	boats	3	correct	0.954252029536292
57604	1	stim123_inanimate_fruits_apple_3.png	123	inanimate	fruits	apple	3	0	1	boats	3	correct	0.954252029536292
57804	1	stim032_animate_bird_parrot_4.png	32	animate	bird	parrot	4	0	1	boats	3	correct	0.954252029536292
58004	1	stim060_animate_human_sports_4.png	60	animate	human	sports	4	0	1	boats	3	correct	0.954252029536292
58204	1	stim171_inanimate_plants_sunflower_3.png	171	inanimate	plants	sunflower	3	0	1	boats	3	correct	0.954252029536292
58404	1	stim161_inanimate_plants_bush_1.png	161	inanimate	plants	bush	1	0	1	boats	3	correct	0.954252029536292
58604	1	stim002_animate_aquatic_crab_2.png	2	animate	aquatic	crab	2	0	1	boats	3	correct	0.954252029536292
58804	1	stim021_animate_bird_chicken_1.png	21	animate	bird	chicken	1	0	1	boats	3	correct	0.954252029536292
59004	1	stim061_animate_insect_ant_1.png	61	animate	insect	ant	1	0	1	boats	3	correct	0.954252029536292
59204	1	stim100_animate_mammal_rhino_4.png	100	animate	mammal	rhino	4	0	1	boats	3	correct	0.954252029536292
59404	1	stim142_inanimate_furniture_bed_2.png	142	inanimate	furniture	bed	2	0	1	boats	3	correct	0.954252029536292
59604	1	stim046_animate_human_child_2.png	46	animate	human	child	2	0	1	boats	3	correct	0.954252029536292
59804	1	stim187_inanimate_tools_hammer_3.png	187	inanimate	tools	hammer	3	0	1	boats	3	correct	0.954252029536292
60004	1	stim155_inanimate_furniture_sofa_3.png	155	inanimate	furniture	sofa	3	0	1	boats	3	correct	0.954252029536292
60204	1	stim011_animate_aquatic_seahorse_3.png	11	animate	aquatic	seahorse	3	0	1	boats	3	correct	0.954252029536292
60404	1	stim093_animate_mammal_monkey_1.png	93	animate	mammal	monkey	1	0	1	boats	3	correct	0.954252029536292
60604	1	stim207_targets_object_boats_3.png	207	targets	object	boats	3	1	1	boats	3	correct	0.954252029536292
60804	1	stim008_animate_aquatic_fish_4.png	8	animate	aquatic	fish	4	0	1	boats	3	correct	0.954252029536292
61004	1	stim086_animate_mammal_giraffe_2.png	86	animate	mammal	giraffe	2	0	1	boats	3	correct	0.954252029536292
61204	1	stim143_inanimate_furniture_bed_3.png	143	inanimate	furniture	bed	3	0	1	boats	3	correct	0.954252029536292
61404	1	stim013_animate_aquatic_shark_1.png	13	animate	aquatic	shark	1	0	1	boats	3	correct	0.954252029536292
61604	1	stim038_animate_bird_penguin_2.png	38	animate	bird	penguin	2	0	1	boats	3	correct	0.954252029536292
61804	1	stim098_animate_mammal_rhino_2.png	98	animate	mammal	rhino	2	0	1	boats	3	correct	0.954252029536292
62004	1	stim122_inanimate_fruits_apple_2.png	122	inanimate	fruits	apple	2	0	1	boats	3	correct	0.954252029536292
62204	1	stim179_inanimate_plants_tulip_3.png	179	inanimate	plants	tulip	3	0	1	boats	3	correct	0.954252029536292
62404	1	stim059_animate_human_sports_3.png	59	animate	human	sports	3	0	1	boats	3	correct	0.954252029536292
62604	1	stim111_inanimate_clothing_jeans_3.png	111	inanimate	clothing	jeans	3	0	1	boats	3	correct	0.954252029536292
62804	1	stim189_inanimate_tools_pan_1.png	189	inanimate	tools	pan	1	0	1	boats	3	correct	0.954252029536292
63004	1	stim174_inanimate_plants_tree_2.png	174	inanimate	plants	tree	2	0	1	boats	3	correct	0.954252029536292
63204	1	stim024_animate_bird_chicken_4.png	24	animate	bird	chicken	4	0	1	boats	3	correct	0.954252029536292
63404	1	stim125_inanimate_fruits_banana_1.png	125	inanimate	fruits	banana	1	0	1	boats	3	correct	0.954252029536292
63604	1	stim158_inanimate_furniture_table_2.png	158	inanimate	furniture	table	2	0	1	boats	3	correct	0.954252029536292
63804	1	stim019_animate_aquatic_shrimp_3.png	19	animate	aquatic	shrimp	3	0	1	boats	3	correct	0.954252029536292
64004	1	stim198_inanimate_tools_wrench_2.png	198	inanimate	tools	wrench	2	0	1	boats	3	correct	0.954252029536292
64204	1	stim028_animate_bird_duck_4.png	28	animate	bird	duck	4	0	1	boats	3	correct	0.954252029536292
64404	1	stim138_inanimate_fruits_strawberry_2.png	138	inanimate	fruits	strawberry	2	0	1	boats	3	correct	0.954252029536292
64604	1	stim080_animate_insect_grasshopper_4.png	80	animate	insect	grasshopper	4	0	1	boats	3	correct	0.954252029536292
64804	1	stim106_inanimate_clothing_hat_2.png	106	inanimate	clothing	hat	2	0	1	boats	3	correct	0.954252029536292
65004	1	stim050_animate_human_clown_2.png	50	animate	human	clown	2	0	1	boats	3	correct	0.954252029536292
65204	1	stim048_animate_human_child_4.png	48	animate	human	child	4	0	1	boats	3	correct	0.954252029536292
65404	1	stim051_animate_human_clown_3.png	51	animate	human	clown	3	0	1	boats	3	correct	0.954252029536292
65604	1	stim025_animate_bird_duck_1.png	25	animate	bird	duck	1	0	1	boats	3	correct	0.954252029536292
65804	1	stim001_animate_aquatic_crab_1.png	1	animate	aquatic	crab	1	0	1	boats	3	correct	0.954252029536292
66004	1	stim150_inanimate_furniture_closet_2.png	150	inanimate	furniture	closet	2	0	1	boats	3	correct	0.954252029536292
66204	1	stim190_inanimate_tools_pan_2.png	190	inanimate	tools	pan	2	0	1	boats	3	correct	0.954252029536292
66404	1	stim181_inanimate_tools_broom_1.png	181	inanimate	tools	broom	1	0	1	boats	3	correct	0.954252029536292
66604	1	stim029_animate_bird_parrot_1.png	29	animate	bird	parrot	1	0	1	boats	3	correct	0.954252029536292
66804	1	stim103_inanimate_clothing_gloves_3.png	103	inanimate	clothing	gloves	3	0	1	boats	3	correct	0.954252029536292
67004	1	stim022_animate_bird_chicken_2.png	22	animate	bird	chicken	2	0	1	boats	3	correct	0.954252029536292
67204	1	stim203_targets_object_boats_3.png	203	targets	object	boats	3	1	1	boats	3	correct	0.954252029536292
67404	1	stim064_animate_insect_ant_4.png	64	animate	insect	ant	4	0	1	boats	3	correct	0.954252029536292
67604	1	stim151_inanimate_furniture_closet_3.png	151	inanimate	furniture	closet	3	0	1	boats	3	correct	0.954252029536292
67804	1	stim108_inanimate_clothing_hat_4.png	108	inanimate	clothing	hat	4	0	1	boats	3	correct	0.954252029536292
68004	1	stim027_animate_bird_duck_3.png	27	animate	bird	duck	3	0	1	boats	3	correct	0.954252029536292
68204	1	stim081_animate_mammal_cow_1.png	81	animate	mammal	cow	1	0	1	boats	3	correct	0.954252029536292
68404	1	stim057_animate_human_sports_1.png	57	animate	human	sports	1	0	1	boats	3	correct	0.954252029536292
68604	1	stim120_inanimate_clothing_socks_4.png	120	inanimate	clothing	socks	4	0	1	boats	3	correct	0.954252029536292
68804	1	stim194_inanimate_tools_scissors_2.png	194	inanimate	tools	scissors	2	0	1	boats	3	correct	0.954252029536292
69004	1	stim147_inanimate_furniture_chair_3.png	147	inanimate	furniture	chair	3	0	1	boats	3	correct	0.954252029536292
69204	1	stim199_inanimate_tools_wrench_3.png	199	inanimate	tools	wrench	3	0	1	boats	3	correct	0.954252029536292
69404	1	stim084_animate_mammal_cow_4.png	84	animate	mammal	cow	4	0	1	boats	3	correct	0.954252029536292
69604	1	stim041_animate_human_baby_1.png	41	animate	human	baby	1	0	1	boats	3	correct	0.954252029536292
69804	1	stim182_inanimate_tools_broom_2.png	182	inanimate	tools	broom	2	0	1	boats	3	correct	0.954252029536292
70004	1	stim092_animate_mammal_kangaroo_4.png	92	animate	mammal	kangaroo	4	0	1	boats	3	correct	0.954252029536292
70204	1	stim079_animate_insect_grasshopper_3.png	79	animate	insect	grasshopper	3	0	1	boats	3	correct	0.954252029536292
70404	1	stim117_inanimate_clothing_socks_1.png	117	inanimate	clothing	socks	1	0	1	boats	3	correct	0.954252029536292
70604	1	stim135_inanimate_fruits_pineapple_3.png	135	inanimate	fruits	pineapple	3	0	1	boats	3	correct	0.954252029536292
70804	1	stim160_inanimate_furniture_table_4.png	160	inanimate	furniture	table	4	0	1	boats	3	correct	0.954252029536292
71004	1	stim006_animate_aquatic_fish_2.png	6	animate	aquatic	fish	2	0	1	boats	3	correct	0.954252029536292
71204	1	stim043_animate_human_baby_3.png	43	animate	human	baby	3	0	1	boats	3	correct	0.954252029536292
71404	1	stim047_animate_human_child_3.png	47	animate	human	child	3	0	1	boats	3	correct	0.954252029536292
71604	1	stim020_animate_aquatic_shrimp_4.png	20	animate	aquatic	shrimp	4	0	1	boats	3	correct	0.954252029536292
71804	1	stim091_animate_mammal_kangaroo_3.png	91	animate	mammal	kangaroo	3	0	1	boats	3	correct	0.954252029536292
72004	1	stim144_inanimate_furniture_bed_4.png	144	inanimate	furniture	bed	4	0	1	boats	3	correct	0.954252029536292
72204	1	stim176_inanimate_plants_tree_4.png	176	inanimate	plants	tree	4	0	1	boats	3	correct	0.954252029536292
72404	1	stim085_animate_mammal_giraffe_1.png	85	animate	mammal	giraffe	1	0	1	boats	3	correct	0.954252029536292
72604	1	stim066_animate_insect_bug_2.png	66	animate	insect	bug	2	0	1	boats	3	correct	0.954252029536292
72804	1	stim040_animate_bird_penguin_4.png	40	animate	bird	penguin	4	0	1	boats	3	correct	0.954252029536292
73004	1	stim121_inanimate_fruits_apple_1.png	121	inanimate	fruits	apple	1	0	1	boats	3	correct	0.954252029536292
73204	1	stim172_inanimate_plants_sunflower_4.png	172	inanimate	plants	sunflower	4	0	1	boats	3	correct	0.954252029536292
73404	1	stim137_inanimate_fruits_strawberry_1.png	137	inanimate	fruits	strawberry	1	0	1	boats	3	correct	0.954252029536292
73604	1	stim096_animate_mammal_monkey_4.png	96	animate	mammal	monkey	4	0	1	boats	3	correct	0.954252029536292
73804	1	stim129_inanimate_fruits_grape_1.png	129	inanimate	fruits	grape	1	0	1	boats	3	correct	0.954252029536292
74004	1	stim036_animate_bird_peacock_4.png	36	animate	bird	peacock	4	0	1	boats	3	correct	0.954252029536292
74204	1	stim134_inanimate_fruits_pineapple_2.png	134	inanimate	fruits	pineapple	2	0	1	boats	3	correct	0.954252029536292
74404	1	stim044_animate_human_baby_4.png	44	animate	human	baby	4	0	1	boats	3	correct	0.954252029536292
74604	1	stim102_inanimate_clothing_gloves_2.png	102	inanimate	clothing	gloves	2	0	1	boats	3	correct	0.954252029536292
74804	1	stim082_animate_mammal_cow_2.png	82	animate	mammal	cow	2	0	1	boats	3	correct	0.954252029536292
75004	1	stim131_inanimate_fruits_grape_3.png	131	inanimate	fruits	grape	3	0	1	boats	3	correct	0.954252029536292
75204	1	stim139_inanimate_fruits_strawberry_3.png	139	inanimate	fruits	strawberry	3	0	1	boats	3	correct	0.954252029536292
75404	1	stim018_animate_aquatic_shrimp_2.png	18	animate	aquatic	shrimp	2	0	1	boats	3	correct	0.954252029536292
75604	1	stim157_inanimate_furniture_table_1.png	157	inanimate	furniture	table	1	0	1	boats	3	correct	0.954252029536292
75804	1	stim065_animate_insect_bug_1.png	65	animate	insect	bug	1	0	1	boats	3	correct	0.954252029536292
76004	1	stim067_animate_insect_bug_3.png	67	animate	insect	bug	3	0	1	boats	3	correct	0.954252029536292
76204	1	stim178_inanimate_plants_tulip_2.png	178	inanimate	plants	tulip	2	0	1	boats	3	correct	0.954252029536292
76404	1	stim087_animate_mammal_giraffe_3.png	87	animate	mammal	giraffe	3	0	1	boats	3	correct	0.954252029536292
76604	1	stim166_inanimate_plants_cactus_2.png	166	inanimate	plants	cactus	2	0	1	boats	3	correct	0.954252029536292
76804	1	stim069_animate_insect_butterfly_1.png	69	animate	insect	butterfly	1	0	1	boats	3	correct	0.954252029536292
77004	1	stim162_inanimate_plants_bush_2.png	162	inanimate	plants	bush	2	0	1	boats	3	correct	0.954252029536292
77204	1	stim035_animate_bird_peacock_3.png	35	animate	bird	peacock	3	0	1	boats	3	correct	0.954252029536292
77404	1	stim128_inanimate_fruits_banana_4.png	128	inanimate	fruits	banana	4	0	1	boats	3	correct	0.954252029536292
77604	1	stim094_animate_mammal_monkey_2.png	94	animate	mammal	monkey	2	0	1	boats	3	correct	0.954252029536292
77804	1	stim089_animate_mammal_kangaroo_1.png	89	animate	mammal	kangaroo	1	0	1	boats	3	correct	0.954252029536292
78004	1	stim196_inanimate_tools_scissors_4.png	196	inanimate	tools	scissors	4	0	1	boats	3	correct	0.954252029536292
78204	1	stim177_inanimate_plants_tulip_1.png	177	inanimate	plants	tulip	1	0	1	boats	3	correct	0.954252029536292
78404	1	stim124_inanimate_fruits_apple_4.png	124	inanimate	fruits	apple	4	0	1	boats	3	correct	0.954252029536292
78604	1	stim127_inanimate_fruits_banana_3.png	127	inanimate	fruits	banana	3	0	1	boats	3	correct	0.954252029536292
78804	1	stim191_inanimate_tools_pan_3.png	191	inanimate	tools	pan	3	0	1	boats	3	correct	0.954252029536292
79004	1	stim031_animate_bird_parrot_3.png	31	animate	bird	parrot	3	0	1	boats	3	correct	0.954252029536292
79204	1	stim004_animate_aquatic_crab_4.png	4	animate	aquatic	crab	4	0	1	boats	3	correct	0.954252029536292
79404	1	stim185_inanimate_tools_hammer_1.png	185	inanimate	tools	hammer	1	0	1	boats	3	correct	0.954252029536292
79604	1	stim075_animate_insect_dragonfly_3.png	75	animate	insect	dragonfly	3	0	1	boats	3	correct	0.954252029536292
79804	1	stim119_inanimate_clothing_socks_3.png	119	inanimate	clothing	socks	3	0	1	boats	3	correct	0.954252029536292
80004	1	stim053_animate_human_faces_1.png	53	animate	human	faces	1	0	1	boats	3	correct	0.954252029536292
80204	1	stim033_animate_bird_peacock_1.png	33	animate	bird	peacock	1	0	1	boats	3	correct	0.954252029536292
80404	1	stim005_animate_aquatic_fish_1.png	5	animate	aquatic	fish	1	0	1	boats	3	correct	0.954252029536292
80604	1	stim186_inanimate_tools_hammer_2.png	186	inanimate	tools	hammer	2	0	1	boats	3	correct	0.954252029536292
80804	1	stim183_inanimate_tools_broom_3.png	183	inanimate	tools	broom	3	0	1	boats	3	correct	0.954252029536292
81004	1	stim112_inanimate_clothing_jeans_4.png	112	inanimate	clothing	jeans	4	0	1	boats	3	correct	0.954252029536292
81204	1	stim039_animate_bird_penguin_3.png	39	animate	bird	penguin	3	0	1	boats	3	correct	0.954252029536292
81404	1	stim007_animate_aquatic_fish_3.png	7	animate	aquatic	fish	3	0	1	boats	3	correct	0.954252029536292
81604	1	stim015_animate_aquatic_shark_3.png	15	animate	aquatic	shark	3	0	1	boats	3	correct	0.954252029536292
98038	1	stim089_animate_mammal_kangaroo_1.png	89	animate	mammal	kangaroo	1	0	2	boats	4	incorrect	0.940700109349564
98238	1	stim022_animate_bird_chicken_2.png	22	animate	bird	chicken	2	0	2	boats	4	incorrect	0.940700109349564
98438	1	stim158_inanimate_furniture_table_2.png	158	inanimate	furniture	table	2	0	2	boats	4	incorrect	0.940700109349564
98638	1	stim190_inanimate_tools_pan_2.png	190	inanimate	tools	pan	2	0	2	boats	4	incorrect	0.940700109349564
98838	1	stim162_inanimate_plants_bush_2.png	162	inanimate	plants	bush	2	0	2	boats	4	incorrect	0.940700109349564
99038	1	stim116_inanimate_clothing_shirt_4.png	116	inanimate	clothing	shirt	4	0	2	boats	4	incorrect	0.940700109349564
99238	1	stim143_inanimate_furniture_bed_3.png	143	inanimate	furniture	bed	3	0	2	boats	4	incorrect	0.940700109349564
99438	1	stim039_animate_bird_penguin_3.png	39	animate	bird	penguin	3	0	2	boats	4	incorrect	0.940700109349564
99638	1	stim142_inanimate_furniture_bed_2.png	142	inanimate	furniture	bed	2	0	2	boats	4	incorrect	0.940700109349564
99838	1	stim023_animate_bird_chicken_3.png	23	animate	bird	chicken	3	0	2	boats	4	incorrect	0.940700109349564
100038	1	stim164_inanimate_plants_bush_4.png	164	inanimate	plants	bush	4	0	2	boats	4	incorrect	0.940700109349564
100238	1	stim155_inanimate_furniture_sofa_3.png	155	inanimate	furniture	sofa	3	0	2	boats	4	incorrect	0.940700109349564
100438	1	stim114_inanimate_clothing_shirt_2.png	114	inanimate	clothing	shirt	2	0	2	boats	4	incorrect	0.940700109349564
100638	1	stim104_inanimate_clothing_gloves_4.png	104	inanimate	clothing	gloves	4	0	2	boats	4	incorrect	0.940700109349564
100838	1	stim067_animate_insect_bug_3.png	67	animate	insect	bug	3	0	2	boats	4	incorrect	0.940700109349564
101038	1	stim010_animate_aquatic_seahorse_2.png	10	animate	aquatic	seahorse	2	0	2	boats	4	incorrect	0.940700109349564
101238	1	stim057_animate_human_sports_1.png	57	animate	human	sports	1	0	2	boats	4	incorrect	0.940700109349564
101438	1	stim016_animate_aquatic_shark_4.png	16	animate	aquatic	shark	4	0	2	boats	4	incorrect	0.940700109349564
101638	1	stim085_animate_mammal_giraffe_1.png	85	animate	mammal	giraffe	1	0	2	boats	4	incorrect	0.940700109349564
101838	1	stim004_animate_aquatic_crab_4.png	4	animate	aquatic	crab	4	0	2	boats	4	incorrect	0.940700109349564
102038	1	stim036_animate_bird_peacock_4.png	36	animate	bird	peacock	4	0	2	boats	4	incorrect	0.940700109349564
102238	1	stim110_inanimate_clothing_jeans_2.png	110	inanimate	clothing	jeans	2	0	2	boats	4	incorrect	0.940700109349564
102438	1	stim019_animate_aquatic_shrimp_3.png	19	animate	aquatic	shrimp	3	0	2	boats	4	incorrect	0.940700109349564
102638	1	stim070_animate_insect_butterfly_2.png	70	animate	insect	butterfly	2	0	2	boats	4	incorrect	0.940700109349564
102838	1	stim125_inanimate_fruits_banana_1.png	125	inanimate	fruits	banana	1	0	2	boats	4	incorrect	0.940700109349564
103038	1	stim189_inanimate_tools_pan_1.png	189	inanimate	tools	pan	1	0	2	boats	4	incorrect	0.940700109349564
103238	1	stim103_inanimate_clothing_gloves_3.png	103	inanimate	clothing	gloves	3	0	2	boats	4	incorrect	0.940700109349564
103438	1	stim113_inanimate_clothing_shirt_1.png	113	inanimate	clothing	shirt	1	0	2	boats	4	incorrect	0.940700109349564
103638	1	stim015_animate_aquatic_shark_3.png	15	animate	aquatic	shark	3	0	2	boats	4	incorrect	0.940700109349564
103838	1	stim124_inanimate_fruits_apple_4.png	124	inanimate	fruits	apple	4	0	2	boats	4	incorrect	0.940700109349564
104038	1	stim148_inanimate_furniture_chair_4.png	148	inanimate	furniture	chair	4	0	2	boats	4	incorrect	0.940700109349564
104238	1	stim163_inanimate_plants_bush_3.png	163	inanimate	plants	bush	3	0	2	boats	4	incorrect	0.940700109349564
104438	1	stim069_animate_insect_butterfly_1.png	69	animate	insect	butterfly	1	0	2	boats	4	incorrect	0.940700109349564
104638	1	stim174_inanimate_plants_tree_2.png	174	inanimate	plants	tree	2	0	2	boats	4	incorrect	0.940700109349564
104838	1	stim176_inanimate_plants_tree_4.png	176	inanimate	plants	tree	4	0	2	boats	4	incorrect	0.940700109349564
105038	1	stim186_inanimate_tools_hammer_2.png	186	inanimate	tools	hammer	2	0	2	boats	4	incorrect	0.940700109349564
105238	1	stim166_inanimate_plants_cactus_2.png	166	inanimate	plants	cactus	2	0	2	boats	4	incorrect	0.940700109349564
105438	1	stim191_inanimate_tools_pan_3.png	191	inanimate	tools	pan	3	0	2	boats	4	incorrect	0.940700109349564
105638	1	stim079_animate_insect_grasshopper_3.png	79	animate	insect	grasshopper	3	0	2	boats	4	incorrect	0.940700109349564
105838	1	stim093_animate_mammal_monkey_1.png	93	animate	mammal	monkey	1	0	2	boats	4	incorrect	0.940700109349564
106038	1	stim061_animate_insect_ant_1.png	61	animate	insect	ant	1	0	2	boats	4	incorrect	0.940700109349564
106238	1	stim038_animate_bird_penguin_2.png	38	animate	bird	penguin	2	0	2	boats	4	incorrect	0.940700109349564
106438	1	stim145_inanimate_furniture_chair_1.png	145	inanimate	furniture	chair	1	0	2	boats	4	incorrect	0.940700109349564
106638	1	stim027_animate_bird_duck_3.png	27	animate	bird	duck	3	0	2	boats	4	incorrect	0.940700109349564
106838	1	stim159_inanimate_furniture_table_3.png	159	inanimate	furniture	table	3	0	2	boats	4	incorrect	0.940700109349564
107038	1	stim167_inanimate_plants_cactus_3.png	167	inanimate	plants	cactus	3	0	2	boats	4	incorrect	0.940700109349564
107238	1	stim059_animate_human_sports_3.png	59	animate	human	sports	3	0	2	boats	4	incorrect	0.940700109349564
107438	1	stim165_inanimate_plants_cactus_1.png	165	inanimate	plants	cactus	1	0	2	boats	4	incorrect	0.940700109349564
107638	1	stim199_inanimate_tools_wrench_3.png	199	inanimate	tools	wrench	3	0	2	boats	4	incorrect	0.940700109349564
107838	1	stim184_inanimate_tools_broom_4.png	184	inanimate	tools	broom	4	0	2	boats	4	incorrect	0.940700109349564
108038	1	stim091_animate_mammal_kangaroo_3.png	91	animate	mammal	kangaroo	3	0	2	boats	4	incorrect	0.940700109349564
108238	1	stim149_inanimate_furniture_closet_1.png	149	inanimate	furniture	closet	1	0	2	boats	4	incorrect	0.940700109349564
108438	1	stim192_inanimate_tools_pan_4.png	192	inanimate	tools	pan	4	0	2	boats	4	incorrect	0.940700109349564
108638	1	stim035_animate_bird_peacock_3.png	35	animate	bird	peacock	3	0	2	boats	4	incorrect	0.940700109349564
108838	1	stim042_animate_human_baby_2.png	42	animate	human	baby	2	0	2	boats	4	incorrect	0.940700109349564
109038	1	stim026_animate_bird_duck_2.png	26	animate	bird	duck	2	0	2	boats	4	incorrect	0.940700109349564
109238	1	stim043_animate_human_baby_3.png	43	animate	human	baby	3	0	2	boats	4	incorrect	0.940700109349564
109438	1	stim161_inanimate_plants_bush_1.png	161	inanimate	plants	bush	1	0	2	boats	4	incorrect	0.940700109349564
109638	1	stim086_animate_mammal_giraffe_2.png	86	animate	mammal	giraffe	2	0	2	boats	4	incorrect	0.940700109349564
109838	1	stim074_animate_insect_dragonfly_2.png	74	animate	insect	dragonfly	2	0	2	boats	4	incorrect	0.940700109349564
110038	1	stim075_animate_insect_dragonfly_3.png	75	animate	insect	dragonfly	3	0	2	boats	4	incorrect	0.940700109349564
110238	1	stim033_animate_bird_peacock_1.png	33	animate	bird	peacock	1	0	2	boats	4	incorrect	0.940700109349564
110438	1	stim055_animate_human_faces_3.png	55	animate	human	faces	3	0	2	boats	4	incorrect	0.940700109349564
110638	1	stim179_inanimate_plants_tulip_3.png	179	inanimate	plants	tulip	3	0	2	boats	4	incorrect	0.940700109349564
110838	1	stim020_animate_aquatic_shrimp_4.png	20	animate	aquatic	shrimp	4	0	2	boats	4	incorrect	0.940700109349564
111038	1	stim013_animate_aquatic_shark_1.png	13	animate	aquatic	shark	1	0	2	boats	4	incorrect	0.940700109349564
111238	1	stim076_animate_insect_dragonfly_4.png	76	animate	insect	dragonfly	4	0	2	boats	4	incorrect	0.940700109349564
111438	1	stim117_inanimate_clothing_socks_1.png	117	inanimate	clothing	socks	1	0	2	boats	4	incorrect	0.940700109349564
111638	1	stim005_animate_aquatic_fish_1.png	5	animate	aquatic	fish	1	0	2	boats	4	incorrect	0.940700109349564
111838	1	stim207_targets_object_boats_3.png	207	targets	object	boats	3	1	2	boats	4	incorrect	0.940700109349564
112038	1	stim193_inanimate_tools_scissors_1.png	193	inanimate	tools	scissors	1	0	2	boats	4	incorrect	0.940700109349564
112238	1	stim119_inanimate_clothing_socks_3.png	119	inanimate	clothing	socks	3	0	2	boats	4	incorrect	0.940700109349564
112438	1	stim025_animate_bird_duck_1.png	25	animate	bird	duck	1	0	2	boats	4	incorrect	0.940700109349564
112638	1	stim007_animate_aquatic_fish_3.png	7	animate	aquatic	fish	3	0	2	boats	4	incorrect	0.940700109349564
112838	1	stim040_animate_bird_penguin_4.png	40	animate	bird	penguin	4	0	2	boats	4	incorrect	0.940700109349564
113038	1	stim054_animate_human_faces_2.png	54	animate	human	faces	2	0	2	boats	4	incorrect	0.940700109349564
113238	1	stim169_inanimate_plants_sunflower_1.png	169	inanimate	plants	sunflower	1	0	2	boats	4	incorrect	0.940700109349564
113438	1	stim081_animate_mammal_cow_1.png	81	animate	mammal	cow	1	0	2	boats	4	incorrect	0.940700109349564
113638	1	stim049_animate_human_clown_1.png	49	animate	human	clown	1	0	2	boats	4	incorrect	0.940700109349564
113838	1	stim051_animate_human_clown_3.png	51	animate	human	clown	3	0	2	boats	4	incorrect	0.940700109349564
114038	1	stim099_animate_mammal_rhino_3.png	99	animate	mammal	rhino	3	0	2	boats	4	incorrect	0.940700109349564
114238	1	stim198_inanimate_tools_wrench_2.png	198	inanimate	tools	wrench	2	0	2	boats	4	incorrect	0.940700109349564
114438	1	stim197_inanimate_tools_wrench_1.png	197	inanimate	tools	wrench	1	0	2	boats	4	incorrect	0.940700109349564
114638	1	stim133_inanimate_fruits_pineapple_1.png	133	inanimate	fruits	pineapple	1	0	2	boats	4	incorrect	0.940700109349564
114838	1	stim080_animate_insect_grasshopper_4.png	80	animate	insect	grasshopper	4	0	2	boats	4	incorrect	0.940700109349564
115038	1	stim122_inanimate_fruits_apple_2.png	122	inanimate	fruits	apple	2	0	2	boats	4	incorrect	0.940700109349564
115238	1	stim118_inanimate_clothing_socks_2.png	118	inanimate	clothing	socks	2	0	2	boats	4	incorrect	0.940700109349564
115438	1	stim045_animate_human_child_1.png	45	animate	human	child	1	0	2	boats	4	incorrect	0.940700109349564
115638	1	stim101_inanimate_clothing_gloves_1.png	101	inanimate	clothing	gloves	1	0	2	boats	4	incorrect	0.940700109349564
115838	1	stim134_inanimate_fruits_pineapple_2.png	134	inanimate	fruits	pineapple	2	0	2	boats	4	incorrect	0.940700109349564
116038	1	stim147_inanimate_furniture_chair_3.png	147	inanimate	furniture	chair	3	0	2	boats	4	incorrect	0.940700109349564
116238	1	stim160_inanimate_furniture_table_4.png	160	inanimate	furniture	table	4	0	2	boats	4	incorrect	0.940700109349564
116438	1	stim136_inanimate_fruits_pineapple_4.png	136	inanimate	fruits	pineapple	4	0	2	boats	4	incorrect	0.940700109349564
116638	1	stim014_animate_aquatic_shark_2.png	14	animate	aquatic	shark	2	0	2	boats	4	incorrect	0.940700109349564
116838	1	stim097_animate_mammal_rhino_1.png	97	animate	mammal	rhino	1	0	2	boats	4	incorrect	0.940700109349564
117038	1	stim098_animate_mammal_rhino_2.png	98	animate	mammal	rhino	2	0	2	boats	4	incorrect	0.940700109349564
117238	1	stim126_inanimate_fruits_banana_2.png	126	inanimate	fruits	banana	2	0	2	boats	4	incorrect	0.940700109349564
117438	1	stim096_animate_mammal_monkey_4.png	96	animate	mammal	monkey	4	0	2	boats	4	incorrect	0.940700109349564
117638	1	stim188_inanimate_tools_hammer_4.png	188	inanimate	tools	hammer	4	0	2	boats	4	incorrect	0.940700109349564
117838	1	stim062_animate_insect_ant_2.png	62	animate	insect	ant	2	0	2	boats	4	incorrect	0.940700109349564
118038	1	stim100_animate_mammal_rhino_4.png	100	animate	mammal	rhino	4	0	2	boats	4	incorrect	0.940700109349564
118238	1	stim046_animate_human_child_2.png	46	animate	human	child	2	0	2	boats	4	incorrect	0.940700109349564
118438	1	stim140_inanimate_fruits_strawberry_4.png	140	inanimate	fruits	strawberry	4	0	2	boats	4	incorrect	0.940700109349564
118638	1	stim180_inanimate_plants_tulip_4.png	180	inanimate	plants	tulip	4	0	2	boats	4	incorrect	0.940700109349564
118838	1	stim139_inanimate_fruits_strawberry_3.png	139	inanimate	fruits	strawberry	3	0	2	boats	4	incorrect	0.940700109349564
119038	1	stim047_animate_human_child_3.png	47	animate	human	child	3	0	2	boats	4	incorrect	0.940700109349564
119238	1	stim204_targets_object_boats_4.png	204	targets	object	boats	4	1	2	boats	4	incorrect	0.940700109349564
119438	1	stim011_animate_aquatic_seahorse_3.png	11	animate	aquatic	seahorse	3	0	2	boats	4	incorrect	0.940700109349564
119638	1	stim050_animate_human_clown_2.png	50	animate	human	clown	2	0	2	boats	4	incorrect	0.940700109349564
119838	1	stim034_animate_bird_peacock_2.png	34	animate	bird	peacock	2	0	2	boats	4	incorrect	0.940700109349564
120038	1	stim012_animate_aquatic_seahorse_4.png	12	animate	aquatic	seahorse	4	0	2	boats	4	incorrect	0.940700109349564
120238	1	stim130_inanimate_fruits_grape_2.png	130	inanimate	fruits	grape	2	0	2	boats	4	incorrect	0.940700109349564
120438	1	stim154_inanimate_furniture_sofa_2.png	154	inanimate	furniture	sofa	2	0	2	boats	4	incorrect	0.940700109349564
120638	1	stim065_animate_insect_bug_1.png	65	animate	insect	bug	1	0	2	boats	4	incorrect	0.940700109349564
120838	1	stim194_inanimate_tools_scissors_2.png	194	inanimate	tools	scissors	2	0	2	boats	4	incorrect	0.940700109349564
121038	1	stim178_inanimate_plants_tulip_2.png	178	inanimate	plants	tulip	2	0	2	boats	4	incorrect	0.940700109349564
121238	1	stim168_inanimate_plants_cactus_4.png	168	inanimate	plants	cactus	4	0	2	boats	4	incorrect	0.940700109349564
121438	1	stim072_animate_insect_butterfly_4.png	72	animate	insect	butterfly	4	0	2	boats	4	incorrect	0.940700109349564
121638	1	stim017_animate_aquatic_shrimp_1.png	17	animate	aquatic	shrimp	1	0	2	boats	4	incorrect	0.940700109349564
121838	1	stim129_inanimate_fruits_grape_1.png	129	inanimate	fruits	grape	1	0	2	boats	4	incorrect	0.940700109349564
122038	1	stim052_animate_human_clown_4.png	52	animate	human	clown	4	0	2	boats	4	incorrect	0.940700109349564
122238	1	stim029_animate_bird_parrot_1.png	29	animate	bird	parrot	1	0	2	boats	4	incorrect	0.940700109349564
122438	1	stim135_inanimate_fruits_pineapple_3.png	135	inanimate	fruits	pineapple	3	0	2	boats	4	incorrect	0.940700109349564
122638	1	stim106_inanimate_clothing_hat_2.png	106	inanimate	clothing	hat	2	0	2	boats	4	incorrect	0.940700109349564
122838	1	stim064_animate_insect_ant_4.png	64	animate	insect	ant	4	0	2	boats	4	incorrect	0.940700109349564
123038	1	stim153_inanimate_furniture_sofa_1.png	153	inanimate	furniture	sofa	1	0	2	boats	4	incorrect	0.940700109349564
123238	1	stim183_inanimate_tools_broom_3.png	183	inanimate	tools	broom	3	0	2	boats	4	incorrect	0.940700109349564
123438	1	stim105_inanimate_clothing_hat_1.png	105	inanimate	clothing	hat	1	0	2	boats	4	incorrect	0.940700109349564
123638	1	stim115_inanimate_clothing_shirt_3.png	115	inanimate	clothing	shirt	3	0	2	boats	4	incorrect	0.940700109349564
123838	1	stim021_animate_bird_chicken_1.png	21	animate	bird	chicken	1	0	2	boats	4	incorrect	0.940700109349564
124038	1	stim173_inanimate_plants_tree_1.png	173	inanimate	plants	tree	1	0	2	boats	4	incorrect	0.940700109349564
124238	1	stim208_targets_object_boats_4.png	208	targets	object	boats	4	1	2	boats	4	incorrect	0.940700109349564
124438	1	stim152_inanimate_furniture_closet_4.png	152	inanimate	furniture	closet	4	0	2	boats	4	incorrect	0.940700109349564
124638	1	stim008_animate_aquatic_fish_4.png	8	animate	aquatic	fish	4	0	2	boats	4	incorrect	0.940700109349564
124838	1	stim144_inanimate_furniture_bed_4.png	144	inanimate	furniture	bed	4	0	2	boats	4	incorrect	0.940700109349564
125038	1	stim200_inanimate_tools_wrench_4.png	200	inanimate	tools	wrench	4	0	2	boats	4	incorrect	0.940700109349564
125238	1	stim108_inanimate_clothing_hat_4.png	108	inanimate	clothing	hat	4	0	2	boats	4	incorrect	0.940700109349564
125438	1	stim024_animate_bird_chicken_4.png	24	animate	bird	chicken	4	0	2	boats	4	incorrect	0.940700109349564
125638	1	stim018_animate_aquatic_shrimp_2.png	18	animate	aquatic	shrimp	2	0	2	boats	4	incorrect	0.940700109349564
125838	1	stim037_animate_bird_penguin_1.png	37	animate	bird	penguin	1	0	2	boats	4	incorrect	0.940700109349564
126038	1	stim044_animate_human_baby_4.png	44	animate	human	baby	4	0	2	boats	4	incorrect	0.940700109349564
126238	1	stim146_inanimate_furniture_chair_2.png	146	inanimate	furniture	chair	2	0	2	boats	4	incorrect	0.940700109349564
126439	1	stim102_inanimate_clothing_gloves_2.png	102	inanimate	clothing	gloves	2	0	2	boats	4	incorrect	0.940700109349564
126638	1	stim196_inanimate_tools_scissors_4.png	196	inanimate	tools	scissors	4	0	2	boats	4	incorrect	0.940700109349564
126838	1	stim082_animate_mammal_cow_2.png	82	animate	mammal	cow	2	0	2	boats	4	incorrect	0.940700109349564
127038	1	stim053_animate_human_faces_1.png	53	animate	human	faces	1	0	2	boats	4	incorrect	0.940700109349564
127239	1	stim111_inanimate_clothing_jeans_3.png	111	inanimate	clothing	jeans	3	0	2	boats	4	incorrect	0.940700109349564
127439	1	stim151_inanimate_furniture_closet_3.png	151	inanimate	furniture	closet	3	0	2	boats	4	incorrect	0.940700109349564
127639	1	stim084_animate_mammal_cow_4.png	84	animate	mammal	cow	4	0	2	boats	4	incorrect	0.940700109349564
127839	1	stim090_animate_mammal_kangaroo_2.png	90	animate	mammal	kangaroo	2	0	2	boats	4	incorrect	0.940700109349564
128039	1	stim195_inanimate_tools_scissors_3.png	195	inanimate	tools	scissors	3	0	2	boats	4	incorrect	0.940700109349564
128239	1	stim141_inanimate_furniture_bed_1.png	141	inanimate	furniture	bed	1	0	2	boats	4	incorrect	0.940700109349564
128439	1	stim181_inanimate_tools_broom_1.png	181	inanimate	tools	broom	1	0	2	boats	4	incorrect	0.940700109349564
128639	1	stim107_inanimate_clothing_hat_3.png	107	inanimate	clothing	hat	3	0	2	boats	4	incorrect	0.940700109349564
128839	1	stim120_inanimate_clothing_socks_4.png	120	inanimate	clothing	socks	4	0	2	boats	4	incorrect	0.940700109349564
129039	1	stim001_animate_aquatic_crab_1.png	1	animate	aquatic	crab	1	0	2	boats	4	incorrect	0.940700109349564
129239	1	stim177_inanimate_plants_tulip_1.png	177	inanimate	plants	tulip	1	0	2	boats	4	incorrect	0.940700109349564
129439	1	stim171_inanimate_plants_sunflower_3.png	171	inanimate	plants	sunflower	3	0	2	boats	4	incorrect	0.940700109349564
129639	1	stim088_animate_mammal_giraffe_4.png	88	animate	mammal	giraffe	4	0	2	boats	4	incorrect	0.940700109349564
129839	1	stim078_animate_insect_grasshopper_2.png	78	animate	insect	grasshopper	2	0	2	boats	4	incorrect	0.940700109349564
130039	1	stim009_animate_aquatic_seahorse_1.png	9	animate	aquatic	seahorse	1	0	2	boats	4	incorrect	0.940700109349564
130239	1	stim109_inanimate_clothing_jeans_1.png	109	inanimate	clothing	jeans	1	0	2	boats	4	incorrect	0.940700109349564
130439	1	stim132_inanimate_fruits_grape_4.png	132	inanimate	fruits	grape	4	0	2	boats	4	incorrect	0.940700109349564
130639	1	stim028_animate_bird_duck_4.png	28	animate	bird	duck	4	0	2	boats	4	incorrect	0.940700109349564
130839	1	stim137_inanimate_fruits_strawberry_1.png	137	inanimate	fruits	strawberry	1	0	2	boats	4	incorrect	0.940700109349564
131039	1	stim056_animate_human_faces_4.png	56	animate	human	faces	4	0	2	boats	4	incorrect	0.940700109349564
131239	1	stim170_inanimate_plants_sunflower_2.png	170	inanimate	plants	sunflower	2	0	2	boats	4	incorrect	0.940700109349564
131439	1	stim058_animate_human_sports_2.png	58	animate	human	sports	2	0	2	boats	4	incorrect	0.940700109349564
131639	1	stim123_inanimate_fruits_apple_3.png	123	inanimate	fruits	apple	3	0	2	boats	4	incorrect	0.940700109349564
131839	1	stim157_inanimate_furniture_table_1.png	157	inanimate	furniture	table	1	0	2	boats	4	incorrect	0.940700109349564
132039	1	stim071_animate_insect_butterfly_3.png	71	animate	insect	butterfly	3	0	2	boats	4	incorrect	0.940700109349564
132239	1	stim094_animate_mammal_monkey_2.png	94	animate	mammal	monkey	2	0	2	boats	4	incorrect	0.940700109349564
132439	1	stim175_inanimate_plants_tree_3.png	175	inanimate	plants	tree	3	0	2	boats	4	incorrect	0.940700109349564
132639	1	stim095_animate_mammal_monkey_3.png	95	animate	mammal	monkey	3	0	2	boats	4	incorrect	0.940700109349564
132839	1	stim138_inanimate_fruits_strawberry_2.png	138	inanimate	fruits	strawberry	2	0	2	boats	4	incorrect	0.940700109349564
133039	1	stim127_inanimate_fruits_banana_3.png	127	inanimate	fruits	banana	3	0	2	boats	4	incorrect	0.940700109349564
133239	1	stim030_animate_bird_parrot_2.png	30	animate	bird	parrot	2	0	2	boats	4	incorrect	0.940700109349564
133439	1	stim073_animate_insect_dragonfly_1.png	73	animate	insect	dragonfly	1	0	2	boats	4	incorrect	0.940700109349564
133639	1	stim063_animate_insect_ant_3.png	63	animate	insect	ant	3	0	2	boats	4	incorrect	0.940700109349564
133839	1	stim112_inanimate_clothing_jeans_4.png	112	inanimate	clothing	jeans	4	0	2	boats	4	incorrect	0.940700109349564
134039	1	stim156_inanimate_furniture_sofa_4.png	156	inanimate	furniture	sofa	4	0	2	boats	4	incorrect	0.940700109349564
134239	1	stim032_animate_bird_parrot_4.png	32	animate	bird	parrot	4	0	2	boats	4	incorrect	0.940700109349564
134439	1	stim185_inanimate_tools_hammer_1.png	185	inanimate	tools	hammer	1	0	2	boats	4	incorrect	0.940700109349564
134639	1	stim041_animate_human_baby_1.png	41	animate	human	baby	1	0	2	boats	4	incorrect	0.940700109349564
134839	1	stim131_inanimate_fruits_grape_3.png	131	inanimate	fruits	grape	3	0	2	boats	4	incorrect	0.940700109349564
135039	1	stim182_inanimate_tools_broom_2.png	182	inanimate	tools	broom	2	0	2	boats	4	incorrect	0.940700109349564
135239	1	stim128_inanimate_fruits_banana_4.png	128	inanimate	fruits	banana	4	0	2	boats	4	incorrect	0.940700109349564
135439	1	stim060_animate_human_sports_4.png	60	animate	human	sports	4	0	2	boats	4	incorrect	0.940700109349564
135639	1	stim066_animate_insect_bug_2.png	66	animate	insect	bug	2	0	2	boats	4	incorrect	0.940700109349564
135839	1	stim092_animate_mammal_kangaroo_4.png	92	animate	mammal	kangaroo	4	0	2	boats	4	incorrect	0.940700109349564
136039	1	stim031_animate_bird_parrot_3.png	31	animate	bird	parrot	3	0	2	boats	4	incorrect	0.940700109349564
136239	1	stim172_inanimate_plants_sunflower_4.png	172	inanimate	plants	sunflower	4	0	2	boats	4	incorrect	0.940700109349564
136439	1	stim006_animate_aquatic_fish_2.png	6	animate	aquatic	fish	2	0	2	boats	4	incorrect	0.940700109349564
136639	1	stim003_animate_aquatic_crab_3.png	3	animate	aquatic	crab	3	0	2	boats	4	incorrect	0.940700109349564
136839	1	stim077_animate_insect_grasshopper_1.png	77	animate	insect	grasshopper	1	0	2	boats	4	incorrect	0.940700109349564
137039	1	stim048_animate_human_child_4.png	48	animate	human	child	4	0	2	boats	4	incorrect	0.940700109349564
137239	1	stim150_inanimate_furniture_closet_2.png	150	inanimate	furniture	closet	2	0	2	boats	4	incorrect	0.940700109349564
137439	1	stim187_inanimate_tools_hammer_3.png	187	inanimate	tools	hammer	3	0	2	boats	4	incorrect	0.940700109349564
137639	1	stim121_inanimate_fruits_apple_1.png	121	inanimate	fruits	apple	1	0	2	boats	4	incorrect	0.940700109349564
137839	1	stim068_animate_insect_bug_4.png	68	animate	insect	bug	4	0	2	boats	4	incorrect	0.940700109349564
138039	1	stim087_animate_mammal_giraffe_3.png	87	animate	mammal	giraffe	3	0	2	boats	4	incorrect	0.940700109349564
138239	1	stim002_animate_aquatic_crab_2.png	2	animate	aquatic	crab	2	0	2	boats	4	incorrect	0.940700109349564
138439	1	stim083_animate_mammal_cow_3.png	83	animate	mammal	cow	3	0	2	boats	4	incorrect	0.940700109349564
148322	1	stim051_animate_human_clown_3.png	51	animate	human	clown	3	0	3	boats	4	correct	0.688198073068634
148522	1	stim107_inanimate_clothing_hat_3.png	107	inanimate	clothing	hat	3	0	3	boats	4	correct	0.688198073068634
148722	1	stim047_animate_human_child_3.png	47	animate	human	child	3	0	3	boats	4	correct	0.688198073068634
148922	1	stim176_inanimate_plants_tree_4.png	176	inanimate	plants	tree	4	0	3	boats	4	correct	0.688198073068634
149122	1	stim149_inanimate_furniture_closet_1.png	149	inanimate	furniture	closet	1	0	3	boats	4	correct	0.688198073068634
149322	1	stim153_inanimate_furniture_sofa_1.png	153	inanimate	furniture	sofa	1	0	3	boats	4	correct	0.688198073068634
149522	1	stim194_inanimate_tools_scissors_2.png	194	inanimate	tools	scissors	2	0	3	boats	4	correct	0.688198073068634
149722	1	stim063_animate_insect_ant_3.png	63	animate	insect	ant	3	0	3	boats	4	correct	0.688198073068634
149922	1	stim053_animate_human_faces_1.png	53	animate	human	faces	1	0	3	boats	4	correct	0.688198073068634
150122	1	stim015_animate_aquatic_shark_3.png	15	animate	aquatic	shark	3	0	3	boats	4	correct	0.688198073068634
150322	1	stim116_inanimate_clothing_shirt_4.png	116	inanimate	clothing	shirt	4	0	3	boats	4	correct	0.688198073068634
150522	1	stim006_animate_aquatic_fish_2.png	6	animate	aquatic	fish	2	0	3	boats	4	correct	0.688198073068634
150722	1	stim120_inanimate_clothing_socks_4.png	120	inanimate	clothing	socks	4	0	3	boats	4	correct	0.688198073068634
150922	1	stim024_animate_bird_chicken_4.png	24	animate	bird	chicken	4	0	3	boats	4	correct	0.688198073068634
151122	1	stim080_animate_insect_grasshopper_4.png	80	animate	insect	grasshopper	4	0	3	boats	4	correct	0.688198073068634
151322	1	stim043_animate_human_baby_3.png	43	animate	human	baby	3	0	3	boats	4	correct	0.688198073068634
151522	1	stim104_inanimate_clothing_gloves_4.png	104	inanimate	clothing	gloves	4	0	3	boats	4	correct	0.688198073068634
151722	1	stim045_animate_human_child_1.png	45	animate	human	child	1	0	3	boats	4	correct	0.688198073068634
151922	1	stim085_animate_mammal_giraffe_1.png	85	animate	mammal	giraffe	1	0	3	boats	4	correct	0.688198073068634
152122	1	stim048_animate_human_child_4.png	48	animate	human	child	4	0	3	boats	4	correct	0.688198073068634
152322	1	stim191_inanimate_tools_pan_3.png	191	inanimate	tools	pan	3	0	3	boats	4	correct	0.688198073068634
152522	1	stim066_animate_insect_bug_2.png	66	animate	insect	bug	2	0	3	boats	4	correct	0.688198073068634
152722	1	stim164_inanimate_plants_bush_4.png	164	inanimate	plants	bush	4	0	3	boats	4	correct	0.688198073068634
152922	1	stim177_inanimate_plants_tulip_1.png	177	inanimate	plants	tulip	1	0	3	boats	4	correct	0.688198073068634
153122	1	stim144_inanimate_furniture_bed_4.png	144	inanimate	furniture	bed	4	0	3	boats	4	correct	0.688198073068634
153322	1	stim075_animate_insect_dragonfly_3.png	75	animate	insect	dragonfly	3	0	3	boats	4	correct	0.688198073068634
153522	1	stim026_animate_bird_duck_2.png	26	animate	bird	duck	2	0	3	boats	4	correct	0.688198073068634
153722	1	stim168_inanimate_plants_cactus_4.png	168	inanimate	plants	cactus	4	0	3	boats	4	correct	0.688198073068634
153922	1	stim182_inanimate_tools_broom_2.png	182	inanimate	tools	broom	2	0	3	boats	4	correct	0.688198073068634
154122	1	stim190_inanimate_tools_pan_2.png	190	inanimate	tools	pan	2	0	3	boats	4	correct	0.688198073068634
154322	1	stim138_inanimate_fruits_strawberry_2.png	138	inanimate	fruits	strawberry	2	0	3	boats	4	correct	0.688198073068634
154522	1	stim133_inanimate_fruits_pineapple_1.png	133	inanimate	fruits	pineapple	1	0	3	boats	4	correct	0.688198073068634
154722	1	stim157_inanimate_furniture_table_1.png	157	inanimate	furniture	table	1	0	3	boats	4	correct	0.688198073068634
154922	1	stim094_animate_mammal_monkey_2.png	94	animate	mammal	monkey	2	0	3	boats	4	correct	0.688198073068634
155122	1	stim111_inanimate_clothing_jeans_3.png	111	inanimate	clothing	jeans	3	0	3	boats	4	correct	0.688198073068634
155322	1	stim083_animate_mammal_cow_3.png	83	animate	mammal	cow	3	0	3	boats	4	correct	0.688198073068634
155522	1	stim118_inanimate_clothing_socks_2.png	118	inanimate	clothing	socks	2	0	3	boats	4	correct	0.688198073068634
155722	1	stim173_inanimate_plants_tree_1.png	173	inanimate	plants	tree	1	0	3	boats	4	correct	0.688198073068634
155923	1	stim174_inanimate_plants_tree_2.png	174	inanimate	plants	tree	2	0	3	boats	4	correct	0.688198073068634
156122	1	stim198_inanimate_tools_wrench_2.png	198	inanimate	tools	wrench	2	0	3	boats	4	correct	0.688198073068634
156323	1	stim110_inanimate_clothing_jeans_2.png	110	inanimate	clothing	jeans	2	0	3	boats	4	correct	0.688198073068634
156523	1	stim091_animate_mammal_kangaroo_3.png	91	animate	mammal	kangaroo	3	0	3	boats	4	correct	0.688198073068634
156723	1	stim163_inanimate_plants_bush_3.png	163	inanimate	plants	bush	3	0	3	boats	4	correct	0.688198073068634
156923	1	stim008_animate_aquatic_fish_4.png	8	animate	aquatic	fish	4	0	3	boats	4	correct	0.688198073068634
157122	1	stim002_animate_aquatic_crab_2.png	2	animate	aquatic	crab	2	0	3	boats	4	correct	0.688198073068634
157323	1	stim201_targets_object_boats_1.png	201	targets	object	boats	1	1	3	boats	4	correct	0.688198073068634
157523	1	stim188_inanimate_tools_hammer_4.png	188	inanimate	tools	hammer	4	0	3	boats	4	correct	0.688198073068634
157723	1	stim105_inanimate_clothing_hat_1.png	105	inanimate	clothing	hat	1	0	3	boats	4	correct	0.688198073068634
157923	1	stim155_inanimate_furniture_sofa_3.png	155	inanimate	furniture	sofa	3	0	3	boats	4	correct	0.688198073068634
158123	1	stim156_inanimate_furniture_sofa_4.png	156	inanimate	furniture	sofa	4	0	3	boats	4	correct	0.688198073068634
158323	1	stim054_animate_human_faces_2.png	54	animate	human	faces	2	0	3	boats	4	correct	0.688198073068634
158523	1	stim181_inanimate_tools_broom_1.png	181	inanimate	tools	broom	1	0	3	boats	4	correct	0.688198073068634
158723	1	stim040_animate_bird_penguin_4.png	40	animate	bird	penguin	4	0	3	boats	4	correct	0.688198073068634
158923	1	stim186_inanimate_tools_hammer_2.png	186	inanimate	tools	hammer	2	0	3	boats	4	correct	0.688198073068634
159123	1	stim099_animate_mammal_rhino_3.png	99	animate	mammal	rhino	3	0	3	boats	4	correct	0.688198073068634
159323	1	stim003_animate_aquatic_crab_3.png	3	animate	aquatic	crab	3	0	3	boats	4	correct	0.688198073068634
159523	1	stim167_inanimate_plants_cactus_3.png	167	inanimate	plants	cactus	3	0	3	boats	4	correct	0.688198073068634
159723	1	stim004_animate_aquatic_crab_4.png	4	animate	aquatic	crab	4	0	3	boats	4	correct	0.688198073068634
159923	1	stim032_animate_bird_parrot_4.png	32	animate	bird	parrot	4	0	3	boats	4	correct	0.688198073068634
160123	1	stim067_animate_insect_bug_3.png	67	animate	insect	bug	3	0	3	boats	4	correct	0.688198073068634
160323	1	stim078_animate_insect_grasshopper_2.png	78	animate	insect	grasshopper	2	0	3	boats	4	correct	0.688198073068634
160523	1	stim140_inanimate_fruits_strawberry_4.png	140	inanimate	fruits	strawberry	4	0	3	boats	4	correct	0.688198073068634
160723	1	stim159_inanimate_furniture_table_3.png	159	inanimate	furniture	table	3	0	3	boats	4	correct	0.688198073068634
160923	1	stim199_inanimate_tools_wrench_3.png	199	inanimate	tools	wrench	3	0	3	boats	4	correct	0.688198073068634
161123	1	stim016_animate_aquatic_shark_4.png	16	animate	aquatic	shark	4	0	3	boats	4	correct	0.688198073068634
161323	1	stim125_inanimate_fruits_banana_1.png	125	inanimate	fruits	banana	1	0	3	boats	4	correct	0.688198073068634
161523	1	stim185_inanimate_tools_hammer_1.png	185	inanimate	tools	hammer	1	0	3	boats	4	correct	0.688198073068634
161723	1	stim180_inanimate_plants_tulip_4.png	180	inanimate	plants	tulip	4	0	3	boats	4	correct	0.688198073068634
161923	1	stim072_animate_insect_butterfly_4.png	72	animate	insect	butterfly	4	0	3	boats	4	correct	0.688198073068634
162123	1	stim100_animate_mammal_rhino_4.png	100	animate	mammal	rhino	4	0	3	boats	4	correct	0.688198073068634
162323	1	stim057_animate_human_sports_1.png	57	animate	human	sports	1	0	3	boats	4	correct	0.688198073068634
162523	1	stim106_inanimate_clothing_hat_2.png	106	inanimate	clothing	hat	2	0	3	boats	4	correct	0.688198073068634
162723	1	stim135_inanimate_fruits_pineapple_3.png	135	inanimate	fruits	pineapple	3	0	3	boats	4	correct	0.688198073068634
162923	1	stim147_inanimate_furniture_chair_3.png	147	inanimate	furniture	chair	3	0	3	boats	4	correct	0.688198073068634
163123	1	stim141_inanimate_furniture_bed_1.png	141	inanimate	furniture	bed	1	0	3	boats	4	correct	0.688198073068634
163323	1	stim205_targets_object_boats_1.png	205	targets	object	boats	1	1	3	boats	4	correct	0.688198073068634
163523	1	stim136_inanimate_fruits_pineapple_4.png	136	inanimate	fruits	pineapple	4	0	3	boats	4	correct	0.688198073068634
163723	1	stim030_animate_bird_parrot_2.png	30	animate	bird	parrot	2	0	3	boats	4	correct	0.688198073068634
163923	1	stim035_animate_bird_peacock_3.png	35	animate	bird	peacock	3	0	3	boats	4	correct	0.688198073068634
164123	1	stim122_inanimate_fruits_apple_2.png	122	inanimate	fruits	apple	2	0	3	boats	4	correct	0.688198073068634
164323	1	stim192_inanimate_tools_pan_4.png	192	inanimate	tools	pan	4	0	3	boats	4	correct	0.688198073068634
164523	1	stim055_animate_human_faces_3.png	55	animate	human	faces	3	0	3	boats	4	correct	0.688198073068634
164723	1	stim148_inanimate_furniture_chair_4.png	148	inanimate	furniture	chair	4	0	3	boats	4	correct	0.688198073068634
164923	1	stim029_animate_bird_parrot_1.png	29	animate	bird	parrot	1	0	3	boats	4	correct	0.688198073068634
165123	1	stim096_animate_mammal_monkey_4.png	96	animate	mammal	monkey	4	0	3	boats	4	correct	0.688198073068634
165323	1	stim162_inanimate_plants_bush_2.png	162	inanimate	plants	bush	2	0	3	boats	4	correct	0.688198073068634
165523	1	stim178_inanimate_plants_tulip_2.png	178	inanimate	plants	tulip	2	0	3	boats	4	correct	0.688198073068634
165723	1	stim077_animate_insect_grasshopper_1.png	77	animate	insect	grasshopper	1	0	3	boats	4	correct	0.688198073068634
165923	1	stim082_animate_mammal_cow_2.png	82	animate	mammal	cow	2	0	3	boats	4	correct	0.688198073068634
166123	1	stim044_animate_human_baby_4.png	44	animate	human	baby	4	0	3	boats	4	correct	0.688198073068634
166323	1	stim112_inanimate_clothing_jeans_4.png	112	inanimate	clothing	jeans	4	0	3	boats	4	correct	0.688198073068634
166523	1	stim123_inanimate_fruits_apple_3.png	123	inanimate	fruits	apple	3	0	3	boats	4	correct	0.688198073068634
166723	1	stim183_inanimate_tools_broom_3.png	183	inanimate	tools	broom	3	0	3	boats	4	correct	0.688198073068634
166923	1	stim061_animate_insect_ant_1.png	61	animate	insect	ant	1	0	3	boats	4	correct	0.688198073068634
167123	1	stim145_inanimate_furniture_chair_1.png	145	inanimate	furniture	chair	1	0	3	boats	4	correct	0.688198073068634
167323	1	stim130_inanimate_fruits_grape_2.png	130	inanimate	fruits	grape	2	0	3	boats	4	correct	0.688198073068634
167523	1	stim139_inanimate_fruits_strawberry_3.png	139	inanimate	fruits	strawberry	3	0	3	boats	4	correct	0.688198073068634
167723	1	stim073_animate_insect_dragonfly_1.png	73	animate	insect	dragonfly	1	0	3	boats	4	correct	0.688198073068634
167923	1	stim011_animate_aquatic_seahorse_3.png	11	animate	aquatic	seahorse	3	0	3	boats	4	correct	0.688198073068634
168123	1	stim115_inanimate_clothing_shirt_3.png	115	inanimate	clothing	shirt	3	0	3	boats	4	correct	0.688198073068634
168323	1	stim007_animate_aquatic_fish_3.png	7	animate	aquatic	fish	3	0	3	boats	4	correct	0.688198073068634
168523	1	stim103_inanimate_clothing_gloves_3.png	103	inanimate	clothing	gloves	3	0	3	boats	4	correct	0.688198073068634
168723	1	stim161_inanimate_plants_bush_1.png	161	inanimate	plants	bush	1	0	3	boats	4	correct	0.688198073068634
168923	1	stim086_animate_mammal_giraffe_2.png	86	animate	mammal	giraffe	2	0	3	boats	4	correct	0.688198073068634
169123	1	stim038_animate_bird_penguin_2.png	38	animate	bird	penguin	2	0	3	boats	4	correct	0.688198073068634
169323	1	stim046_animate_human_child_2.png	46	animate	human	child	2	0	3	boats	4	correct	0.688198073068634
169523	1	stim050_animate_human_clown_2.png	50	animate	human	clown	2	0	3	boats	4	correct	0.688198073068634
169723	1	stim208_targets_object_boats_4.png	208	targets	object	boats	4	1	3	boats	4	correct	0.688198073068634
169923	1	stim071_animate_insect_butterfly_3.png	71	animate	insect	butterfly	3	0	3	boats	4	correct	0.688198073068634
170123	1	stim195_inanimate_tools_scissors_3.png	195	inanimate	tools	scissors	3	0	3	boats	4	correct	0.688198073068634
170323	1	stim012_animate_aquatic_seahorse_4.png	12	animate	aquatic	seahorse	4	0	3	boats	4	correct	0.688198073068634
170523	1	stim134_inanimate_fruits_pineapple_2.png	134	inanimate	fruits	pineapple	2	0	3	boats	4	correct	0.688198073068634
170723	1	stim039_animate_bird_penguin_3.png	39	animate	bird	penguin	3	0	3	boats	4	correct	0.688198073068634
170923	1	stim049_animate_human_clown_1.png	49	animate	human	clown	1	0	3	boats	4	correct	0.688198073068634
171123	1	stim088_animate_mammal_giraffe_4.png	88	animate	mammal	giraffe	4	0	3	boats	4	correct	0.688198073068634
171323	1	stim098_animate_mammal_rhino_2.png	98	animate	mammal	rhino	2	0	3	boats	4	correct	0.688198073068634
171523	1	stim092_animate_mammal_kangaroo_4.png	92	animate	mammal	kangaroo	4	0	3	boats	4	correct	0.688198073068634
171723	1	stim056_animate_human_faces_4.png	56	animate	human	faces	4	0	3	boats	4	correct	0.688198073068634
171923	1	stim179_inanimate_plants_tulip_3.png	179	inanimate	plants	tulip	3	0	3	boats	4	correct	0.688198073068634
172123	1	stim113_inanimate_clothing_shirt_1.png	113	inanimate	clothing	shirt	1	0	3	boats	4	correct	0.688198073068634
172323	1	stim034_animate_bird_peacock_2.png	34	animate	bird	peacock	2	0	3	boats	4	correct	0.688198073068634
172523	1	stim023_animate_bird_chicken_3.png	23	animate	bird	chicken	3	0	3	boats	4	correct	0.688198073068634
172723	1	stim059_animate_human_sports_3.png	59	animate	human	sports	3	0	3	boats	4	correct	0.688198073068634
172923	1	stim169_inanimate_plants_sunflower_1.png	169	inanimate	plants	sunflower	1	0	3	boats	4	correct	0.688198073068634
173123	1	stim058_animate_human_sports_2.png	58	animate	human	sports	2	0	3	boats	4	correct	0.688198073068634
173323	1	stim166_inanimate_plants_cactus_2.png	166	inanimate	plants	cactus	2	0	3	boats	4	correct	0.688198073068634
173523	1	stim037_animate_bird_penguin_1.png	37	animate	bird	penguin	1	0	3	boats	4	correct	0.688198073068634
173723	1	stim028_animate_bird_duck_4.png	28	animate	bird	duck	4	0	3	boats	4	correct	0.688198073068634
173923	1	stim196_inanimate_tools_scissors_4.png	196	inanimate	tools	scissors	4	0	3	boats	4	correct	0.688198073068634
174123	1	stim041_animate_human_baby_1.png	41	animate	human	baby	1	0	3	boats	4	correct	0.688198073068634
174323	1	stim017_animate_aquatic_shrimp_1.png	17	animate	aquatic	shrimp	1	0	3	boats	4	correct	0.688198073068634
174523	1	stim175_inanimate_plants_tree_3.png	175	inanimate	plants	tree	3	0	3	boats	4	correct	0.688198073068634
174723	1	stim010_animate_aquatic_seahorse_2.png	10	animate	aquatic	seahorse	2	0	3	boats	4	correct	0.688198073068634
174923	1	stim170_inanimate_plants_sunflower_2.png	170	inanimate	plants	sunflower	2	0	3	boats	4	correct	0.688198073068634
175123	1	stim121_inanimate_fruits_apple_1.png	121	inanimate	fruits	apple	1	0	3	boats	4	correct	0.688198073068634
175323	1	stim108_inanimate_clothing_hat_4.png	108	inanimate	clothing	hat	4	0	3	boats	4	correct	0.688198073068634
175523	1	stim158_inanimate_furniture_table_2.png	158	inanimate	furniture	table	2	0	3	boats	4	correct	0.688198073068634
175723	1	stim042_animate_human_baby_2.png	42	animate	human	baby	2	0	3	boats	4	correct	0.688198073068634
175923	1	stim019_animate_aquatic_shrimp_3.png	19	animate	aquatic	shrimp	3	0	3	boats	4	correct	0.688198073068634
176123	1	stim126_inanimate_fruits_banana_2.png	126	inanimate	fruits	banana	2	0	3	boats	4	correct	0.688198073068634
176323	1	stim027_animate_bird_duck_3.png	27	animate	bird	duck	3	0	3	boats	4	correct	0.688198073068634
176523	1	stim165_inanimate_plants_cactus_1.png	165	inanimate	plants	cactus	1	0	3	boats	4	correct	0.688198073068634
176723	1	stim090_animate_mammal_kangaroo_2.png	90	animate	mammal	kangaroo	2	0	3	boats	4	correct	0.688198073068634
176923	1	stim036_animate_bird_peacock_4.png	36	animate	bird	peacock	4	0	3	boats	4	correct	0.688198073068634
177123	1	stim171_inanimate_plants_sunflower_3.png	171	inanimate	plants	sunflower	3	0	3	boats	4	correct	0.688198073068634
177323	1	stim160_inanimate_furniture_table_4.png	160	inanimate	furniture	table	4	0	3	boats	4	correct	0.688198073068634
177523	1	stim200_inanimate_tools_wrench_4.png	200	inanimate	tools	wrench	4	0	3	boats	4	correct	0.688198073068634
177723	1	stim189_inanimate_tools_pan_1.png	189	inanimate	tools	pan	1	0	3	boats	4	correct	0.688198073068634
177923	1	stim151_inanimate_furniture_closet_3.png	151	inanimate	furniture	closet	3	0	3	boats	4	correct	0.688198073068634
178123	1	stim062_animate_insect_ant_2.png	62	animate	insect	ant	2	0	3	boats	4	correct	0.688198073068634
178323	1	stim206_targets_object_boats_2.png	206	targets	object	boats	2	1	3	boats	4	correct	0.688198073068634
178523	1	stim005_animate_aquatic_fish_1.png	5	animate	aquatic	fish	1	0	3	boats	4	correct	0.688198073068634
178723	1	stim001_animate_aquatic_crab_1.png	1	animate	aquatic	crab	1	0	3	boats	4	correct	0.688198073068634
178923	1	stim074_animate_insect_dragonfly_2.png	74	animate	insect	dragonfly	2	0	3	boats	4	correct	0.688198073068634
179123	1	stim069_animate_insect_butterfly_1.png	69	animate	insect	butterfly	1	0	3	boats	4	correct	0.688198073068634
179323	1	stim087_animate_mammal_giraffe_3.png	87	animate	mammal	giraffe	3	0	3	boats	4	correct	0.688198073068634
179523	1	stim184_inanimate_tools_broom_4.png	184	inanimate	tools	broom	4	0	3	boats	4	correct	0.688198073068634
179723	1	stim020_animate_aquatic_shrimp_4.png	20	animate	aquatic	shrimp	4	0	3	boats	4	correct	0.688198073068634
179923	1	stim109_inanimate_clothing_jeans_1.png	109	inanimate	clothing	jeans	1	0	3	boats	4	correct	0.688198073068634
180123	1	stim097_animate_mammal_rhino_1.png	97	animate	mammal	rhino	1	0	3	boats	4	correct	0.688198073068634
180323	1	stim009_animate_aquatic_seahorse_1.png	9	animate	aquatic	seahorse	1	0	3	boats	4	correct	0.688198073068634
180523	1	stim022_animate_bird_chicken_2.png	22	animate	bird	chicken	2	0	3	boats	4	correct	0.688198073068634
180723	1	stim089_animate_mammal_kangaroo_1.png	89	animate	mammal	kangaroo	1	0	3	boats	4	correct	0.688198073068634
180923	1	stim070_animate_insect_butterfly_2.png	70	animate	insect	butterfly	2	0	3	boats	4	correct	0.688198073068634
181123	1	stim068_animate_insect_bug_4.png	68	animate	insect	bug	4	0	3	boats	4	correct	0.688198073068634
181323	1	stim124_inanimate_fruits_apple_4.png	124	inanimate	fruits	apple	4	0	3	boats	4	correct	0.688198073068634
181523	1	stim127_inanimate_fruits_banana_3.png	127	inanimate	fruits	banana	3	0	3	boats	4	correct	0.688198073068634
181723	1	stim117_inanimate_clothing_socks_1.png	117	inanimate	clothing	socks	1	0	3	boats	4	correct	0.688198073068634
181923	1	stim079_animate_insect_grasshopper_3.png	79	animate	insect	grasshopper	3	0	3	boats	4	correct	0.688198073068634
182123	1	stim018_animate_aquatic_shrimp_2.png	18	animate	aquatic	shrimp	2	0	3	boats	4	correct	0.688198073068634
182323	1	stim065_animate_insect_bug_1.png	65	animate	insect	bug	1	0	3	boats	4	correct	0.688198073068634
182523	1	stim060_animate_human_sports_4.png	60	animate	human	sports	4	0	3	boats	4	correct	0.688198073068634
182723	1	stim014_animate_aquatic_shark_2.png	14	animate	aquatic	shark	2	0	3	boats	4	correct	0.688198073068634
182923	1	stim128_inanimate_fruits_banana_4.png	128	inanimate	fruits	banana	4	0	3	boats	4	correct	0.688198073068634
183123	1	stim193_inanimate_tools_scissors_1.png	193	inanimate	tools	scissors	1	0	3	boats	4	correct	0.688198073068634
183323	1	stim031_animate_bird_parrot_3.png	31	animate	bird	parrot	3	0	3	boats	4	correct	0.688198073068634
183523	1	stim081_animate_mammal_cow_1.png	81	animate	mammal	cow	1	0	3	boats	4	correct	0.688198073068634
183723	1	stim084_animate_mammal_cow_4.png	84	animate	mammal	cow	4	0	3	boats	4	correct	0.688198073068634
183923	1	stim197_inanimate_tools_wrench_1.png	197	inanimate	tools	wrench	1	0	3	boats	4	correct	0.688198073068634
184123	1	stim064_animate_insect_ant_4.png	64	animate	insect	ant	4	0	3	boats	4	correct	0.688198073068634
184323	1	stim187_inanimate_tools_hammer_3.png	187	inanimate	tools	hammer	3	0	3	boats	4	correct	0.688198073068634
184523	1	stim102_inanimate_clothing_gloves_2.png	102	inanimate	clothing	gloves	2	0	3	boats	4	correct	0.688198073068634
184723	1	stim137_inanimate_fruits_strawberry_1.png	137	inanimate	fruits	strawberry	1	0	3	boats	4	correct	0.688198073068634
184923	1	stim095_animate_mammal_monkey_3.png	95	animate	mammal	monkey	3	0	3	boats	4	correct	0.688198073068634
185123	1	stim101_inanimate_clothing_gloves_1.png	101	inanimate	clothing	gloves	1	0	3	boats	4	correct	0.688198073068634
185323	1	stim052_animate_human_clown_4.png	52	animate	human	clown	4	0	3	boats	4	correct	0.688198073068634
185523	1	stim076_animate_insect_dragonfly_4.png	76	animate	insect	dragonfly	4	0	3	boats	4	correct	0.688198073068634
185723	1	stim132_inanimate_fruits_grape_4.png	132	inanimate	fruits	grape	4	0	3	boats	4	correct	0.688198073068634
185923	1	stim033_animate_bird_peacock_1.png	33	animate	bird	peacock	1	0	3	boats	4	correct	0.688198073068634
186123	1	stim150_inanimate_furniture_closet_2.png	150	inanimate	furniture	closet	2	0	3	boats	4	correct	0.688198073068634
186323	1	stim154_inanimate_furniture_sofa_2.png	154	inanimate	furniture	sofa	2	0	3	boats	4	correct	0.688198073068634
186523	1	stim142_inanimate_furniture_bed_2.png	142	inanimate	furniture	bed	2	0	3	boats	4	correct	0.688198073068634
186723	1	stim131_inanimate_fruits_grape_3.png	131	inanimate	fruits	grape	3	0	3	boats	4	correct	0.688198073068634
186923	1	stim093_animate_mammal_monkey_1.png	93	animate	mammal	monkey	1	0	3	boats	4	correct	0.688198073068634
187123	1	stim143_inanimate_furniture_bed_3.png	143	inanimate	furniture	bed	3	0	3	boats	4	correct	0.688198073068634
187323	1	stim013_animate_aquatic_shark_1.png	13	animate	aquatic	shark	1	0	3	boats	4	correct	0.688198073068634
187523	1	stim114_inanimate_clothing_shirt_2.png	114	inanimate	clothing	shirt	2	0	3	boats	4	correct	0.688198073068634
187723	1	stim021_animate_bird_chicken_1.png	21	animate	bird	chicken	1	0	3	boats	4	correct	0.688198073068634
187923	1	stim129_inanimate_fruits_grape_1.png	129	inanimate	fruits	grape	1	0	3	boats	4	correct	0.688198073068634
188123	1	stim172_inanimate_plants_sunflower_4.png	172	inanimate	plants	sunflower	4	0	3	boats	4	correct	0.688198073068634
188323	1	stim119_inanimate_clothing_socks_3.png	119	inanimate	clothing	socks	3	0	3	boats	4	correct	0.688198073068634
188523	1	stim025_animate_bird_duck_1.png	25	animate	bird	duck	1	0	3	boats	4	correct	0.688198073068634
188723	1	stim152_inanimate_furniture_closet_4.png	152	inanimate	furniture	closet	4	0	3	boats	4	correct	0.688198073068634
188923	1	stim146_inanimate_furniture_chair_2.png	146	inanimate	furniture	chair	2	0	3	boats	4	correct	0.688198073068634
193140	1	stim008_animate_aquatic_fish_4.png	8	animate	aquatic	fish	4	0	4	stars	2	correct	1.00069120060652
193340	1	stim033_animate_bird_peacock_1.png	33	animate	bird	peacock	1	0	4	stars	2	correct	1.00069120060652
193540	1	stim001_animate_aquatic_crab_1.png	1	animate	aquatic	crab	1	0	4	stars	2	correct	1.00069120060652
193740	1	stim090_animate_mammal_kangaroo_2.png	90	animate	mammal	kangaroo	2	0	4	stars	2	correct	1.00069120060652
193940	1	stim005_animate_aquatic_fish_1.png	5	animate	aquatic	fish	1	0	4	stars	2	correct	1.00069120060652
194140	1	stim112_inanimate_clothing_jeans_4.png	112	inanimate	clothing	jeans	4	0	4	stars	2	correct	1.00069120060652
194340	1	stim154_inanimate_furniture_sofa_2.png	154	inanimate	furniture	sofa	2	0	4	stars	2	correct	1.00069120060652
194540	1	stim131_inanimate_fruits_grape_3.png	131	inanimate	fruits	grape	3	0	4	stars	2	correct	1.00069120060652
194740	1	stim107_inanimate_clothing_hat_3.png	107	inanimate	clothing	hat	3	0	4	stars	2	correct	1.00069120060652
194940	1	stim181_inanimate_tools_broom_1.png	181	inanimate	tools	broom	1	0	4	stars	2	correct	1.00069120060652
195140	1	stim088_animate_mammal_giraffe_4.png	88	animate	mammal	giraffe	4	0	4	stars	2	correct	1.00069120060652
195340	1	stim070_animate_insect_butterfly_2.png	70	animate	insect	butterfly	2	0	4	stars	2	correct	1.00069120060652
195540	1	stim055_animate_human_faces_3.png	55	animate	human	faces	3	0	4	stars	2	correct	1.00069120060652
195740	1	stim077_animate_insect_grasshopper_1.png	77	animate	insect	grasshopper	1	0	4	stars	2	correct	1.00069120060652
195940	1	stim167_inanimate_plants_cactus_3.png	167	inanimate	plants	cactus	3	0	4	stars	2	correct	1.00069120060652
196140	1	stim144_inanimate_furniture_bed_4.png	144	inanimate	furniture	bed	4	0	4	stars	2	correct	1.00069120060652
196340	1	stim101_inanimate_clothing_gloves_1.png	101	inanimate	clothing	gloves	1	0	4	stars	2	correct	1.00069120060652
196540	1	stim021_animate_bird_chicken_1.png	21	animate	bird	chicken	1	0	4	stars	2	correct	1.00069120060652
196740	1	stim099_animate_mammal_rhino_3.png	99	animate	mammal	rhino	3	0	4	stars	2	correct	1.00069120060652
196940	1	stim172_inanimate_plants_sunflower_4.png	172	inanimate	plants	sunflower	4	0	4	stars	2	correct	1.00069120060652
197140	1	stim094_animate_mammal_monkey_2.png	94	animate	mammal	monkey	2	0	4	stars	2	correct	1.00069120060652
197340	1	stim082_animate_mammal_cow_2.png	82	animate	mammal	cow	2	0	4	stars	2	correct	1.00069120060652
197540	1	stim178_inanimate_plants_tulip_2.png	178	inanimate	plants	tulip	2	0	4	stars	2	correct	1.00069120060652
197740	1	stim145_inanimate_furniture_chair_1.png	145	inanimate	furniture	chair	1	0	4	stars	2	correct	1.00069120060652
197940	1	stim010_animate_aquatic_seahorse_2.png	10	animate	aquatic	seahorse	2	0	4	stars	2	correct	1.00069120060652
198140	1	stim143_inanimate_furniture_bed_3.png	143	inanimate	furniture	bed	3	0	4	stars	2	correct	1.00069120060652
198340	1	stim030_animate_bird_parrot_2.png	30	animate	bird	parrot	2	0	4	stars	2	correct	1.00069120060652
198540	1	stim174_inanimate_plants_tree_2.png	174	inanimate	plants	tree	2	0	4	stars	2	correct	1.00069120060652
198740	1	stim111_inanimate_clothing_jeans_3.png	111	inanimate	clothing	jeans	3	0	4	stars	2	correct	1.00069120060652
198940	1	stim053_animate_human_faces_1.png	53	animate	human	faces	1	0	4	stars	2	correct	1.00069120060652
199140	1	stim125_inanimate_fruits_banana_1.png	125	inanimate	fruits	banana	1	0	4	stars	2	correct	1.00069120060652
199340	1	stim032_animate_bird_parrot_4.png	32	animate	bird	parrot	4	0	4	stars	2	correct	1.00069120060652
199540	1	stim156_inanimate_furniture_sofa_4.png	156	inanimate	furniture	sofa	4	0	4	stars	2	correct	1.00069120060652
199740	1	stim159_inanimate_furniture_table_3.png	159	inanimate	furniture	table	3	0	4	stars	2	correct	1.00069120060652
199940	1	stim002_animate_aquatic_crab_2.png	2	animate	aquatic	crab	2	0	4	stars	2	correct	1.00069120060652
200140	1	stim191_inanimate_tools_pan_3.png	191	inanimate	tools	pan	3	0	4	stars	2	correct	1.00069120060652
200340	1	stim129_inanimate_fruits_grape_1.png	129	inanimate	fruits	grape	1	0	4	stars	2	correct	1.00069120060652
200540	1	stim054_animate_human_faces_2.png	54	animate	human	faces	2	0	4	stars	2	correct	1.00069120060652
200740	1	stim025_animate_bird_duck_1.png	25	animate	bird	duck	1	0	4	stars	2	correct	1.00069120060652
200940	1	stim069_animate_insect_butterfly_1.png	69	animate	insect	butterfly	1	0	4	stars	2	correct	1.00069120060652
201140	1	stim114_inanimate_clothing_shirt_2.png	114	inanimate	clothing	shirt	2	0	4	stars	2	correct	1.00069120060652
201340	1	stim122_inanimate_fruits_apple_2.png	122	inanimate	fruits	apple	2	0	4	stars	2	correct	1.00069120060652
201540	1	stim020_animate_aquatic_shrimp_4.png	20	animate	aquatic	shrimp	4	0	4	stars	2	correct	1.00069120060652
201740	1	stim003_animate_aquatic_crab_3.png	3	animate	aquatic	crab	3	0	4	stars	2	correct	1.00069120060652
201940	1	stim150_inanimate_furniture_closet_2.png	150	inanimate	furniture	closet	2	0	4	stars	2	correct	1.00069120060652
202140	1	stim161_inanimate_plants_bush_1.png	161	inanimate	plants	bush	1	0	4	stars	2	correct	1.00069120060652
202340	1	stim006_animate_aquatic_fish_2.png	6	animate	aquatic	fish	2	0	4	stars	2	correct	1.00069120060652
202540	1	stim065_animate_insect_bug_1.png	65	animate	insect	bug	1	0	4	stars	2	correct	1.00069120060652
202740	1	stim024_animate_bird_chicken_4.png	24	animate	bird	chicken	4	0	4	stars	2	correct	1.00069120060652
202940	1	stim113_inanimate_clothing_shirt_1.png	113	inanimate	clothing	shirt	1	0	4	stars	2	correct	1.00069120060652
203140	1	stim152_inanimate_furniture_closet_4.png	152	inanimate	furniture	closet	4	0	4	stars	2	correct	1.00069120060652
203340	1	stim180_inanimate_plants_tulip_4.png	180	inanimate	plants	tulip	4	0	4	stars	2	correct	1.00069120060652
203540	1	stim031_animate_bird_parrot_3.png	31	animate	bird	parrot	3	0	4	stars	2	correct	1.00069120060652
203740	1	stim096_animate_mammal_monkey_4.png	96	animate	mammal	monkey	4	0	4	stars	2	correct	1.00069120060652
203940	1	stim058_animate_human_sports_2.png	58	animate	human	sports	2	0	4	stars	2	correct	1.00069120060652
204140	1	stim193_inanimate_tools_scissors_1.png	193	inanimate	tools	scissors	1	0	4	stars	2	correct	1.00069120060652
204340	1	stim166_inanimate_plants_cactus_2.png	166	inanimate	plants	cactus	2	0	4	stars	2	correct	1.00069120060652
204540	1	stim151_inanimate_furniture_closet_3.png	151	inanimate	furniture	closet	3	0	4	stars	2	correct	1.00069120060652
204740	1	stim194_inanimate_tools_scissors_2.png	194	inanimate	tools	scissors	2	0	4	stars	2	correct	1.00069120060652
204940	1	stim095_animate_mammal_monkey_3.png	95	animate	mammal	monkey	3	0	4	stars	2	correct	1.00069120060652
205140	1	stim073_animate_insect_dragonfly_1.png	73	animate	insect	dragonfly	1	0	4	stars	2	correct	1.00069120060652
205340	1	stim057_animate_human_sports_1.png	57	animate	human	sports	1	0	4	stars	2	correct	1.00069120060652
205540	1	stim135_inanimate_fruits_pineapple_3.png	135	inanimate	fruits	pineapple	3	0	4	stars	2	correct	1.00069120060652
205740	1	stim056_animate_human_faces_4.png	56	animate	human	faces	4	0	4	stars	2	correct	1.00069120060652
205940	1	stim119_inanimate_clothing_socks_3.png	119	inanimate	clothing	socks	3	0	4	stars	2	correct	1.00069120060652
206140	1	stim004_animate_aquatic_crab_4.png	4	animate	aquatic	crab	4	0	4	stars	2	correct	1.00069120060652
206340	1	stim086_animate_mammal_giraffe_2.png	86	animate	mammal	giraffe	2	0	4	stars	2	correct	1.00069120060652
206540	1	stim026_animate_bird_duck_2.png	26	animate	bird	duck	2	0	4	stars	2	correct	1.00069120060652
206740	1	stim155_inanimate_furniture_sofa_3.png	155	inanimate	furniture	sofa	3	0	4	stars	2	correct	1.00069120060652
206940	1	stim130_inanimate_fruits_grape_2.png	130	inanimate	fruits	grape	2	0	4	stars	2	correct	1.00069120060652
207140	1	stim210_targets_shapes_star_2.png	210	targets	shapes	star	2	1	4	stars	2	correct	1.00069120060652
207340	1	stim045_animate_human_child_1.png	45	animate	human	child	1	0	4	stars	2	correct	1.00069120060652
207540	1	stim171_inanimate_plants_sunflower_3.png	171	inanimate	plants	sunflower	3	0	4	stars	2	correct	1.00069120060652
207740	1	stim163_inanimate_plants_bush_3.png	163	inanimate	plants	bush	3	0	4	stars	2	correct	1.00069120060652
207940	1	stim046_animate_human_child_2.png	46	animate	human	child	2	0	4	stars	2	correct	1.00069120060652
208140	1	stim110_inanimate_clothing_jeans_2.png	110	inanimate	clothing	jeans	2	0	4	stars	2	correct	1.00069120060652
208340	1	stim072_animate_insect_butterfly_4.png	72	animate	insect	butterfly	4	0	4	stars	2	correct	1.00069120060652
208540	1	stim048_animate_human_child_4.png	48	animate	human	child	4	0	4	stars	2	correct	1.00069120060652
208740	1	stim196_inanimate_tools_scissors_4.png	196	inanimate	tools	scissors	4	0	4	stars	2	correct	1.00069120060652
208940	1	stim108_inanimate_clothing_hat_4.png	108	inanimate	clothing	hat	4	0	4	stars	2	correct	1.00069120060652
209140	1	stim089_animate_mammal_kangaroo_1.png	89	animate	mammal	kangaroo	1	0	4	stars	2	correct	1.00069120060652
209340	1	stim118_inanimate_clothing_socks_2.png	118	inanimate	clothing	socks	2	0	4	stars	2	correct	1.00069120060652
209540	1	stim074_animate_insect_dragonfly_2.png	74	animate	insect	dragonfly	2	0	4	stars	2	correct	1.00069120060652
209740	1	stim153_inanimate_furniture_sofa_1.png	153	inanimate	furniture	sofa	1	0	4	stars	2	correct	1.00069120060652
209940	1	stim146_inanimate_furniture_chair_2.png	146	inanimate	furniture	chair	2	0	4	stars	2	correct	1.00069120060652
210140	1	stim007_animate_aquatic_fish_3.png	7	animate	aquatic	fish	3	0	4	stars	2	correct	1.00069120060652
210340	1	stim140_inanimate_fruits_strawberry_4.png	140	inanimate	fruits	strawberry	4	0	4	stars	2	correct	1.00069120060652
210540	1	stim019_animate_aquatic_shrimp_3.png	19	animate	aquatic	shrimp	3	0	4	stars	2	correct	1.00069120060652
210740	1	stim104_inanimate_clothing_gloves_4.png	104	inanimate	clothing	gloves	4	0	4	stars	2	correct	1.00069120060652
210940	1	stim186_inanimate_tools_hammer_2.png	186	inanimate	tools	hammer	2	0	4	stars	2	correct	1.00069120060652
211140	1	stim106_inanimate_clothing_hat_2.png	106	inanimate	clothing	hat	2	0	4	stars	2	correct	1.00069120060652
211340	1	stim190_inanimate_tools_pan_2.png	190	inanimate	tools	pan	2	0	4	stars	2	correct	1.00069120060652
211540	1	stim133_inanimate_fruits_pineapple_1.png	133	inanimate	fruits	pineapple	1	0	4	stars	2	correct	1.00069120060652
211740	1	stim141_inanimate_furniture_bed_1.png	141	inanimate	furniture	bed	1	0	4	stars	2	correct	1.00069120060652
211941	1	stim071_animate_insect_butterfly_3.png	71	animate	insect	butterfly	3	0	4	stars	2	correct	1.00069120060652
212140	1	stim164_inanimate_plants_bush_4.png	164	inanimate	plants	bush	4	0	4	stars	2	correct	1.00069120060652
212340	1	stim132_inanimate_fruits_grape_4.png	132	inanimate	fruits	grape	4	0	4	stars	2	correct	1.00069120060652
212540	1	stim035_animate_bird_peacock_3.png	35	animate	bird	peacock	3	0	4	stars	2	correct	1.00069120060652
212740	1	stim011_animate_aquatic_seahorse_3.png	11	animate	aquatic	seahorse	3	0	4	stars	2	correct	1.00069120060652
212940	1	stim184_inanimate_tools_broom_4.png	184	inanimate	tools	broom	4	0	4	stars	2	correct	1.00069120060652
213140	1	stim198_inanimate_tools_wrench_2.png	198	inanimate	tools	wrench	2	0	4	stars	2	correct	1.00069120060652
213340	1	stim038_animate_bird_penguin_2.png	38	animate	bird	penguin	2	0	4	stars	2	correct	1.00069120060652
213540	1	stim018_animate_aquatic_shrimp_2.png	18	animate	aquatic	shrimp	2	0	4	stars	2	correct	1.00069120060652
213740	1	stim197_inanimate_tools_wrench_1.png	197	inanimate	tools	wrench	1	0	4	stars	2	correct	1.00069120060652
213940	1	stim136_inanimate_fruits_pineapple_4.png	136	inanimate	fruits	pineapple	4	0	4	stars	2	correct	1.00069120060652
214140	1	stim061_animate_insect_ant_1.png	61	animate	insect	ant	1	0	4	stars	2	correct	1.00069120060652
214341	1	stim102_inanimate_clothing_gloves_2.png	102	inanimate	clothing	gloves	2	0	4	stars	2	correct	1.00069120060652
214541	1	stim047_animate_human_child_3.png	47	animate	human	child	3	0	4	stars	2	correct	1.00069120060652
214741	1	stim059_animate_human_sports_3.png	59	animate	human	sports	3	0	4	stars	2	correct	1.00069120060652
214941	1	stim037_animate_bird_penguin_1.png	37	animate	bird	penguin	1	0	4	stars	2	correct	1.00069120060652
215141	1	stim051_animate_human_clown_3.png	51	animate	human	clown	3	0	4	stars	2	correct	1.00069120060652
215341	1	stim064_animate_insect_ant_4.png	64	animate	insect	ant	4	0	4	stars	2	correct	1.00069120060652
215540	1	stim134_inanimate_fruits_pineapple_2.png	134	inanimate	fruits	pineapple	2	0	4	stars	2	correct	1.00069120060652
215741	1	stim062_animate_insect_ant_2.png	62	animate	insect	ant	2	0	4	stars	2	correct	1.00069120060652
215941	1	stim087_animate_mammal_giraffe_3.png	87	animate	mammal	giraffe	3	0	4	stars	2	correct	1.00069120060652
216141	1	stim126_inanimate_fruits_banana_2.png	126	inanimate	fruits	banana	2	0	4	stars	2	correct	1.00069120060652
216341	1	stim187_inanimate_tools_hammer_3.png	187	inanimate	tools	hammer	3	0	4	stars	2	correct	1.00069120060652
216541	1	stim036_animate_bird_peacock_4.png	36	animate	bird	peacock	4	0	4	stars	2	correct	1.00069120060652
216741	1	stim183_inanimate_tools_broom_3.png	183	inanimate	tools	broom	3	0	4	stars	2	correct	1.00069120060652
216941	1	stim147_inanimate_furniture_chair_3.png	147	inanimate	furniture	chair	3	0	4	stars	2	correct	1.00069120060652
217141	1	stim121_inanimate_fruits_apple_1.png	121	inanimate	fruits	apple	1	0	4	stars	2	correct	1.00069120060652
217341	1	stim009_animate_aquatic_seahorse_1.png	9	animate	aquatic	seahorse	1	0	4	stars	2	correct	1.00069120060652
217541	1	stim177_inanimate_plants_tulip_1.png	177	inanimate	plants	tulip	1	0	4	stars	2	correct	1.00069120060652
217741	1	stim157_inanimate_furniture_table_1.png	157	inanimate	furniture	table	1	0	4	stars	2	correct	1.00069120060652
217941	1	stim124_inanimate_fruits_apple_4.png	124	inanimate	fruits	apple	4	0	4	stars	2	correct	1.00069120060652
218141	1	stim044_animate_human_baby_4.png	44	animate	human	baby	4	0	4	stars	2	correct	1.00069120060652
218341	1	stim092_animate_mammal_kangaroo_4.png	92	animate	mammal	kangaroo	4	0	4	stars	2	correct	1.00069120060652
218541	1	stim215_targets_shapes_star_3.png	215	targets	shapes	star	3	1	4	stars	2	correct	1.00069120060652
218741	1	stim075_animate_insect_dragonfly_3.png	75	animate	insect	dragonfly	3	0	4	stars	2	correct	1.00069120060652
218941	1	stim060_animate_human_sports_4.png	60	animate	human	sports	4	0	4	stars	2	correct	1.00069120060652
219141	1	stim016_animate_aquatic_shark_4.png	16	animate	aquatic	shark	4	0	4	stars	2	correct	1.00069120060652
219341	1	stim139_inanimate_fruits_strawberry_3.png	139	inanimate	fruits	strawberry	3	0	4	stars	2	correct	1.00069120060652
219541	1	stim100_animate_mammal_rhino_4.png	100	animate	mammal	rhino	4	0	4	stars	2	correct	1.00069120060652
219741	1	stim078_animate_insect_grasshopper_2.png	78	animate	insect	grasshopper	2	0	4	stars	2	correct	1.00069120060652
219941	1	stim063_animate_insect_ant_3.png	63	animate	insect	ant	3	0	4	stars	2	correct	1.00069120060652
220141	1	stim115_inanimate_clothing_shirt_3.png	115	inanimate	clothing	shirt	3	0	4	stars	2	correct	1.00069120060652
220341	1	stim066_animate_insect_bug_2.png	66	animate	insect	bug	2	0	4	stars	2	correct	1.00069120060652
220541	1	stim199_inanimate_tools_wrench_3.png	199	inanimate	tools	wrench	3	0	4	stars	2	correct	1.00069120060652
220741	1	stim084_animate_mammal_cow_4.png	84	animate	mammal	cow	4	0	4	stars	2	correct	1.00069120060652
220941	1	stim042_animate_human_baby_2.png	42	animate	human	baby	2	0	4	stars	2	correct	1.00069120060652
221141	1	stim098_animate_mammal_rhino_2.png	98	animate	mammal	rhino	2	0	4	stars	2	correct	1.00069120060652
221341	1	stim185_inanimate_tools_hammer_1.png	185	inanimate	tools	hammer	1	0	4	stars	2	correct	1.00069120060652
221541	1	stim195_inanimate_tools_scissors_3.png	195	inanimate	tools	scissors	3	0	4	stars	2	correct	1.00069120060652
221741	1	stim148_inanimate_furniture_chair_4.png	148	inanimate	furniture	chair	4	0	4	stars	2	correct	1.00069120060652
221941	1	stim123_inanimate_fruits_apple_3.png	123	inanimate	fruits	apple	3	0	4	stars	2	correct	1.00069120060652
222141	1	stim049_animate_human_clown_1.png	49	animate	human	clown	1	0	4	stars	2	correct	1.00069120060652
222341	1	stim015_animate_aquatic_shark_3.png	15	animate	aquatic	shark	3	0	4	stars	2	correct	1.00069120060652
222541	1	stim050_animate_human_clown_2.png	50	animate	human	clown	2	0	4	stars	2	correct	1.00069120060652
222741	1	stim023_animate_bird_chicken_3.png	23	animate	bird	chicken	3	0	4	stars	2	correct	1.00069120060652
222941	1	stim067_animate_insect_bug_3.png	67	animate	insect	bug	3	0	4	stars	2	correct	1.00069120060652
223141	1	stim120_inanimate_clothing_socks_4.png	120	inanimate	clothing	socks	4	0	4	stars	2	correct	1.00069120060652
223341	1	stim052_animate_human_clown_4.png	52	animate	human	clown	4	0	4	stars	2	correct	1.00069120060652
223541	1	stim109_inanimate_clothing_jeans_1.png	109	inanimate	clothing	jeans	1	0	4	stars	2	correct	1.00069120060652
223741	1	stim105_inanimate_clothing_hat_1.png	105	inanimate	clothing	hat	1	0	4	stars	2	correct	1.00069120060652
223941	1	stim043_animate_human_baby_3.png	43	animate	human	baby	3	0	4	stars	2	correct	1.00069120060652
224141	1	stim116_inanimate_clothing_shirt_4.png	116	inanimate	clothing	shirt	4	0	4	stars	2	correct	1.00069120060652
224341	1	stim200_inanimate_tools_wrench_4.png	200	inanimate	tools	wrench	4	0	4	stars	2	correct	1.00069120060652
224541	1	stim142_inanimate_furniture_bed_2.png	142	inanimate	furniture	bed	2	0	4	stars	2	correct	1.00069120060652
224741	1	stim068_animate_insect_bug_4.png	68	animate	insect	bug	4	0	4	stars	2	correct	1.00069120060652
224941	1	stim128_inanimate_fruits_banana_4.png	128	inanimate	fruits	banana	4	0	4	stars	2	correct	1.00069120060652
225141	1	stim173_inanimate_plants_tree_1.png	173	inanimate	plants	tree	1	0	4	stars	2	correct	1.00069120060652
225341	1	stim083_animate_mammal_cow_3.png	83	animate	mammal	cow	3	0	4	stars	2	correct	1.00069120060652
225541	1	stim093_animate_mammal_monkey_1.png	93	animate	mammal	monkey	1	0	4	stars	2	correct	1.00069120060652
225741	1	stim091_animate_mammal_kangaroo_3.png	91	animate	mammal	kangaroo	3	0	4	stars	2	correct	1.00069120060652
225941	1	stim028_animate_bird_duck_4.png	28	animate	bird	duck	4	0	4	stars	2	correct	1.00069120060652
226141	1	stim041_animate_human_baby_1.png	41	animate	human	baby	1	0	4	stars	2	correct	1.00069120060652
226341	1	stim040_animate_bird_penguin_4.png	40	animate	bird	penguin	4	0	4	stars	2	correct	1.00069120060652
226541	1	stim079_animate_insect_grasshopper_3.png	79	animate	insect	grasshopper	3	0	4	stars	2	correct	1.00069120060652
226741	1	stim168_inanimate_plants_cactus_4.png	168	inanimate	plants	cactus	4	0	4	stars	2	correct	1.00069120060652
226941	1	stim080_animate_insect_grasshopper_4.png	80	animate	insect	grasshopper	4	0	4	stars	2	correct	1.00069120060652
227141	1	stim176_inanimate_plants_tree_4.png	176	inanimate	plants	tree	4	0	4	stars	2	correct	1.00069120060652
227341	1	stim039_animate_bird_penguin_3.png	39	animate	bird	penguin	3	0	4	stars	2	correct	1.00069120060652
227541	1	stim158_inanimate_furniture_table_2.png	158	inanimate	furniture	table	2	0	4	stars	2	correct	1.00069120060652
227741	1	stim175_inanimate_plants_tree_3.png	175	inanimate	plants	tree	3	0	4	stars	2	correct	1.00069120060652
227941	1	stim027_animate_bird_duck_3.png	27	animate	bird	duck	3	0	4	stars	2	correct	1.00069120060652
228141	1	stim097_animate_mammal_rhino_1.png	97	animate	mammal	rhino	1	0	4	stars	2	correct	1.00069120060652
228341	1	stim188_inanimate_tools_hammer_4.png	188	inanimate	tools	hammer	4	0	4	stars	2	correct	1.00069120060652
228541	1	stim170_inanimate_plants_sunflower_2.png	170	inanimate	plants	sunflower	2	0	4	stars	2	correct	1.00069120060652
228741	1	stim017_animate_aquatic_shrimp_1.png	17	animate	aquatic	shrimp	1	0	4	stars	2	correct	1.00069120060652
228941	1	stim127_inanimate_fruits_banana_3.png	127	inanimate	fruits	banana	3	0	4	stars	2	correct	1.00069120060652
229141	1	stim076_animate_insect_dragonfly_4.png	76	animate	insect	dragonfly	4	0	4	stars	2	correct	1.00069120060652
229341	1	stim179_inanimate_plants_tulip_3.png	179	inanimate	plants	tulip	3	0	4	stars	2	correct	1.00069120060652
229541	1	stim189_inanimate_tools_pan_1.png	189	inanimate	tools	pan	1	0	4	stars	2	correct	1.00069120060652
229741	1	stim182_inanimate_tools_broom_2.png	182	inanimate	tools	broom	2	0	4	stars	2	correct	1.00069120060652
229941	1	stim081_animate_mammal_cow_1.png	81	animate	mammal	cow	1	0	4	stars	2	correct	1.00069120060652
230141	1	stim029_animate_bird_parrot_1.png	29	animate	bird	parrot	1	0	4	stars	2	correct	1.00069120060652
230341	1	stim160_inanimate_furniture_table_4.png	160	inanimate	furniture	table	4	0	4	stars	2	correct	1.00069120060652
230541	1	stim022_animate_bird_chicken_2.png	22	animate	bird	chicken	2	0	4	stars	2	correct	1.00069120060652
230741	1	stim117_inanimate_clothing_socks_1.png	117	inanimate	clothing	socks	1	0	4	stars	2	correct	1.00069120060652
230941	1	stim162_inanimate_plants_bush_2.png	162	inanimate	plants	bush	2	0	4	stars	2	correct	1.00069120060652
231141	1	stim014_animate_aquatic_shark_2.png	14	animate	aquatic	shark	2	0	4	stars	2	correct	1.00069120060652
231341	1	stim012_animate_aquatic_seahorse_4.png	12	animate	aquatic	seahorse	4	0	4	stars	2	correct	1.00069120060652
231541	1	stim103_inanimate_clothing_gloves_3.png	103	inanimate	clothing	gloves	3	0	4	stars	2	correct	1.00069120060652
231741	1	stim034_animate_bird_peacock_2.png	34	animate	bird	peacock	2	0	4	stars	2	correct	1.00069120060652
231941	1	stim085_animate_mammal_giraffe_1.png	85	animate	mammal	giraffe	1	0	4	stars	2	correct	1.00069120060652
232141	1	stim165_inanimate_plants_cactus_1.png	165	inanimate	plants	cactus	1	0	4	stars	2	correct	1.00069120060652
232341	1	stim138_inanimate_fruits_strawberry_2.png	138	inanimate	fruits	strawberry	2	0	4	stars	2	correct	1.00069120060652
232541	1	stim149_inanimate_furniture_closet_1.png	149	inanimate	furniture	closet	1	0	4	stars	2	correct	1.00069120060652
232741	1	stim169_inanimate_plants_sunflower_1.png	169	inanimate	plants	sunflower	1	0	4	stars	2	correct	1.00069120060652
232941	1	stim137_inanimate_fruits_strawberry_1.png	137	inanimate	fruits	strawberry	1	0	4	stars	2	correct	1.00069120060652
233141	1	stim192_inanimate_tools_pan_4.png	192	inanimate	tools	pan	4	0	4	stars	2	correct	1.00069120060652
233341	1	stim013_animate_aquatic_shark_1.png	13	animate	aquatic	shark	1	0	4	stars	2	correct	1.00069120060652
237841	1	stim112_inanimate_clothing_jeans_4.png	112	inanimate	clothing	jeans	4	0	5	stars	3	correct	0.697190019534901
238041	1	stim120_inanimate_clothing_socks_4.png	120	inanimate	clothing	socks	4	0	5	stars	3	correct	0.697190019534901
238241	1	stim055_animate_human_faces_3.png	55	animate	human	faces	3	0	5	stars	3	correct	0.697190019534901
238441	1	stim068_animate_insect_bug_4.png	68	animate	insect	bug	4	0	5	stars	3	correct	0.697190019534901
238641	1	stim133_inanimate_fruits_pineapple_1.png	133	inanimate	fruits	pineapple	1	0	5	stars	3	correct	0.697190019534901
238841	1	stim099_animate_mammal_rhino_3.png	99	animate	mammal	rhino	3	0	5	stars	3	correct	0.697190019534901
239041	1	stim022_animate_bird_chicken_2.png	22	animate	bird	chicken	2	0	5	stars	3	correct	0.697190019534901
239241	1	stim050_animate_human_clown_2.png	50	animate	human	clown	2	0	5	stars	3	correct	0.697190019534901
239441	1	stim145_inanimate_furniture_chair_1.png	145	inanimate	furniture	chair	1	0	5	stars	3	correct	0.697190019534901
239641	1	stim107_inanimate_clothing_hat_3.png	107	inanimate	clothing	hat	3	0	5	stars	3	correct	0.697190019534901
239841	1	stim061_animate_insect_ant_1.png	61	animate	insect	ant	1	0	5	stars	3	correct	0.697190019534901
240041	1	stim102_inanimate_clothing_gloves_2.png	102	inanimate	clothing	gloves	2	0	5	stars	3	correct	0.697190019534901
240241	1	stim132_inanimate_fruits_grape_4.png	132	inanimate	fruits	grape	4	0	5	stars	3	correct	0.697190019534901
240441	1	stim017_animate_aquatic_shrimp_1.png	17	animate	aquatic	shrimp	1	0	5	stars	3	correct	0.697190019534901
240641	1	stim012_animate_aquatic_seahorse_4.png	12	animate	aquatic	seahorse	4	0	5	stars	3	correct	0.697190019534901
240841	1	stim152_inanimate_furniture_closet_4.png	152	inanimate	furniture	closet	4	0	5	stars	3	correct	0.697190019534901
241041	1	stim182_inanimate_tools_broom_2.png	182	inanimate	tools	broom	2	0	5	stars	3	correct	0.697190019534901
241241	1	stim041_animate_human_baby_1.png	41	animate	human	baby	1	0	5	stars	3	correct	0.697190019534901
241441	1	stim001_animate_aquatic_crab_1.png	1	animate	aquatic	crab	1	0	5	stars	3	correct	0.697190019534901
241641	1	stim071_animate_insect_butterfly_3.png	71	animate	insect	butterfly	3	0	5	stars	3	correct	0.697190019534901
241841	1	stim096_animate_mammal_monkey_4.png	96	animate	mammal	monkey	4	0	5	stars	3	correct	0.697190019534901
242041	1	stim193_inanimate_tools_scissors_1.png	193	inanimate	tools	scissors	1	0	5	stars	3	correct	0.697190019534901
242241	1	stim150_inanimate_furniture_closet_2.png	150	inanimate	furniture	closet	2	0	5	stars	3	correct	0.697190019534901
242441	1	stim164_inanimate_plants_bush_4.png	164	inanimate	plants	bush	4	0	5	stars	3	correct	0.697190019534901
242641	1	stim179_inanimate_plants_tulip_3.png	179	inanimate	plants	tulip	3	0	5	stars	3	correct	0.697190019534901
242841	1	stim040_animate_bird_penguin_4.png	40	animate	bird	penguin	4	0	5	stars	3	correct	0.697190019534901
243041	1	stim156_inanimate_furniture_sofa_4.png	156	inanimate	furniture	sofa	4	0	5	stars	3	correct	0.697190019534901
243241	1	stim034_animate_bird_peacock_2.png	34	animate	bird	peacock	2	0	5	stars	3	correct	0.697190019534901
243441	1	stim046_animate_human_child_2.png	46	animate	human	child	2	0	5	stars	3	correct	0.697190019534901
243641	1	stim045_animate_human_child_1.png	45	animate	human	child	1	0	5	stars	3	correct	0.697190019534901
243841	1	stim014_animate_aquatic_shark_2.png	14	animate	aquatic	shark	2	0	5	stars	3	correct	0.697190019534901
244041	1	stim161_inanimate_plants_bush_1.png	161	inanimate	plants	bush	1	0	5	stars	3	correct	0.697190019534901
244241	1	stim076_animate_insect_dragonfly_4.png	76	animate	insect	dragonfly	4	0	5	stars	3	correct	0.697190019534901
244441	1	stim007_animate_aquatic_fish_3.png	7	animate	aquatic	fish	3	0	5	stars	3	correct	0.697190019534901
244641	1	stim024_animate_bird_chicken_4.png	24	animate	bird	chicken	4	0	5	stars	3	correct	0.697190019534901
244841	1	stim176_inanimate_plants_tree_4.png	176	inanimate	plants	tree	4	0	5	stars	3	correct	0.697190019534901
245041	1	stim118_inanimate_clothing_socks_2.png	118	inanimate	clothing	socks	2	0	5	stars	3	correct	0.697190019534901
245241	1	stim063_animate_insect_ant_3.png	63	animate	insect	ant	3	0	5	stars	3	correct	0.697190019534901
245441	1	stim066_animate_insect_bug_2.png	66	animate	insect	bug	2	0	5	stars	3	correct	0.697190019534901
245641	1	stim009_animate_aquatic_seahorse_1.png	9	animate	aquatic	seahorse	1	0	5	stars	3	correct	0.697190019534901
245841	1	stim125_inanimate_fruits_banana_1.png	125	inanimate	fruits	banana	1	0	5	stars	3	correct	0.697190019534901
246041	1	stim083_animate_mammal_cow_3.png	83	animate	mammal	cow	3	0	5	stars	3	correct	0.697190019534901
246241	1	stim183_inanimate_tools_broom_3.png	183	inanimate	tools	broom	3	0	5	stars	3	correct	0.697190019534901
246441	1	stim027_animate_bird_duck_3.png	27	animate	bird	duck	3	0	5	stars	3	correct	0.697190019534901
246641	1	stim067_animate_insect_bug_3.png	67	animate	insect	bug	3	0	5	stars	3	correct	0.697190019534901
246841	1	stim191_inanimate_tools_pan_3.png	191	inanimate	tools	pan	3	0	5	stars	3	correct	0.697190019534901
247041	1	stim177_inanimate_plants_tulip_1.png	177	inanimate	plants	tulip	1	0	5	stars	3	correct	0.697190019534901
247241	1	stim105_inanimate_clothing_hat_1.png	105	inanimate	clothing	hat	1	0	5	stars	3	correct	0.697190019534901
247441	1	stim106_inanimate_clothing_hat_2.png	106	inanimate	clothing	hat	2	0	5	stars	3	correct	0.697190019534901
247641	1	stim037_animate_bird_penguin_1.png	37	animate	bird	penguin	1	0	5	stars	3	correct	0.697190019534901
247841	1	stim186_inanimate_tools_hammer_2.png	186	inanimate	tools	hammer	2	0	5	stars	3	correct	0.697190019534901
248041	1	stim082_animate_mammal_cow_2.png	82	animate	mammal	cow	2	0	5	stars	3	correct	0.697190019534901
248241	1	stim113_inanimate_clothing_shirt_1.png	113	inanimate	clothing	shirt	1	0	5	stars	3	correct	0.697190019534901
248441	1	stim128_inanimate_fruits_banana_4.png	128	inanimate	fruits	banana	4	0	5	stars	3	correct	0.697190019534901
248641	1	stim043_animate_human_baby_3.png	43	animate	human	baby	3	0	5	stars	3	correct	0.697190019534901
248841	1	stim141_inanimate_furniture_bed_1.png	141	inanimate	furniture	bed	1	0	5	stars	3	correct	0.697190019534901
249041	1	stim008_animate_aquatic_fish_4.png	8	animate	aquatic	fish	4	0	5	stars	3	correct	0.697190019534901
249241	1	stim097_animate_mammal_rhino_1.png	97	animate	mammal	rhino	1	0	5	stars	3	correct	0.697190019534901
249441	1	stim178_inanimate_plants_tulip_2.png	178	inanimate	plants	tulip	2	0	5	stars	3	correct	0.697190019534901
249641	1	stim075_animate_insect_dragonfly_3.png	75	animate	insect	dragonfly	3	0	5	stars	3	correct	0.697190019534901
249841	1	stim026_animate_bird_duck_2.png	26	animate	bird	duck	2	0	5	stars	3	correct	0.697190019534901
250041	1	stim167_inanimate_plants_cactus_3.png	167	inanimate	plants	cactus	3	0	5	stars	3	correct	0.697190019534901
250241	1	stim028_animate_bird_duck_4.png	28	animate	bird	duck	4	0	5	stars	3	correct	0.697190019534901
250441	1	stim147_inanimate_furniture_chair_3.png	147	inanimate	furniture	chair	3	0	5	stars	3	correct	0.697190019534901
250641	1	stim122_inanimate_fruits_apple_2.png	122	inanimate	fruits	apple	2	0	5	stars	3	correct	0.697190019534901
250841	1	stim124_inanimate_fruits_apple_4.png	124	inanimate	fruits	apple	4	0	5	stars	3	correct	0.697190019534901
251041	1	stim059_animate_human_sports_3.png	59	animate	human	sports	3	0	5	stars	3	correct	0.697190019534901
251241	1	stim157_inanimate_furniture_table_1.png	157	inanimate	furniture	table	1	0	5	stars	3	correct	0.697190019534901
251441	1	stim129_inanimate_fruits_grape_1.png	129	inanimate	fruits	grape	1	0	5	stars	3	correct	0.697190019534901
251641	1	stim211_targets_shapes_star_3.png	211	targets	shapes	star	3	1	5	stars	3	correct	0.697190019534901
251841	1	stim032_animate_bird_parrot_4.png	32	animate	bird	parrot	4	0	5	stars	3	correct	0.697190019534901
252041	1	stim104_inanimate_clothing_gloves_4.png	104	inanimate	clothing	gloves	4	0	5	stars	3	correct	0.697190019534901
252241	1	stim094_animate_mammal_monkey_2.png	94	animate	mammal	monkey	2	0	5	stars	3	correct	0.697190019534901
252441	1	stim088_animate_mammal_giraffe_4.png	88	animate	mammal	giraffe	4	0	5	stars	3	correct	0.697190019534901
252641	1	stim154_inanimate_furniture_sofa_2.png	154	inanimate	furniture	sofa	2	0	5	stars	3	correct	0.697190019534901
252841	1	stim127_inanimate_fruits_banana_3.png	127	inanimate	fruits	banana	3	0	5	stars	3	correct	0.697190019534901
253041	1	stim189_inanimate_tools_pan_1.png	189	inanimate	tools	pan	1	0	5	stars	3	correct	0.697190019534901
253241	1	stim151_inanimate_furniture_closet_3.png	151	inanimate	furniture	closet	3	0	5	stars	3	correct	0.697190019534901
