onset	duration	stimulusname	stimulusnumber	levelA	levelB	levelC	withinexemplarnumber	istarget	trialnumber	condition	response	correct	rt
47149	1	stim158_inanimate_furniture_table_2.png	158	inanimate	furniture	table	2	0	1	stars	2	correct	2.07576261821669
47199	1	stim129_inanimate_fruits_grape_1.png	129	inanimate	fruits	grape	1	0	1	stars	2	correct	2.07576261821669
47249	1	stim067_animate_insect_bug_3.png	67	animate	insect	bug	3	0	1	stars	2	correct	2.07576261821669
47299	1	stim166_inanimate_plants_cactus_2.png	166	inanimate	plants	cactus	2	0	1	stars	2	correct	2.07576261821669
47349	1	stim182_inanimate_tools_broom_2.png	182	inanimate	tools	broom	2	0	1	stars	2	correct	2.07576261821669
47399	1	stim153_inanimate_furniture_sofa_1.png	153	inanimate	furniture	sofa	1	0	1	stars	2	correct	2.07576261821669
47449	1	stim156_inanimate_furniture_sofa_4.png	156	inanimate	furniture	sofa	4	0	1	stars	2	correct	2.07576261821669
47499	1	stim114_inanimate_clothing_shirt_2.png	114	inanimate	clothing	shirt	2	0	1	stars	2	correct	2.07576261821669
47549	1	stim043_animate_human_baby_3.png	43	animate	human	baby	3	0	1	stars	2	correct	2.07576261821669
47599	1	stim167_inanimate_plants_cactus_3.png	167	inanimate	plants	cactus	3	0	1	stars	2	correct	2.07576261821669
47649	1	stim196_inanimate_tools_scissors_4.png	196	inanimate	tools	scissors	4	0	1	stars	2	correct	2.07576261821669
47699	1	stim084_animate_mammal_cow_4.png	84	animate	mammal	cow	4	0	1	stars	2	correct	2.07576261821669
47749	1	stim021_animate_bird_chicken_1.png	21	animate	bird	chicken	1	0	1	stars	2	correct	2.07576261821669
47799	1	stim115_inanimate_clothing_shirt_3.png	115	inanimate	clothing	shirt	3	0	1	stars	2	correct	2.07576261821669
47849	1	stim116_inanimate_clothing_shirt_4.png	116	inanimate	clothing	shirt	4	0	1	stars	2	correct	2.07576261821669
47899	1	stim103_inanimate_clothing_gloves_3.png	103	inanimate	clothing	gloves	3	0	1	stars	2	correct	2.07576261821669
47949	1	stim034_animate_bird_peacock_2.png	34	animate	bird	peacock	2	0	1	stars	2	correct	2.07576261821669
47999	1	stim025_animate_bird_duck_1.png	25	animate	bird	duck	1	0	1	stars	2	correct	2.07576261821669
48049	1	stim176_inanimate_plants_tree_4.png	176	inanimate	plants	tree	4	0	1	stars	2	correct	2.07576261821669
48099	1	stim077_animate_insect_grasshopper_1.png	77	animate	insect	grasshopper	1	0	1	stars	2	correct	2.07576261821669
48149	1	stim094_animate_mammal_monkey_2.png	94	animate	mammal	monkey	2	0	1	stars	2	correct	2.07576261821669
48199	1	stim099_animate_mammal_rhino_3.png	99	animate	mammal	rhino	3	0	1	stars	2	correct	2.07576261821669
48249	1	stim163_inanimate_plants_bush_3.png	163	inanimate	plants	bush	3	0	1	stars	2	correct	2.07576261821669
48299	1	stim150_inanimate_furniture_closet_2.png	150	inanimate	furniture	closet	2	0	1	stars	2	correct	2.07576261821669
48349	1	stim091_animate_mammal_kangaroo_3.png	91	animate	mammal	kangaroo	3	0	1	stars	2	correct	2.07576261821669
48399	1	stim189_inanimate_tools_pan_1.png	189	inanimate	tools	pan	1	0	1	stars	2	correct	2.07576261821669
48449	1	stim096_animate_mammal_monkey_4.png	96	animate	mammal	monkey	4	0	1	stars	2	correct	2.07576261821669
48499	1	stim119_inanimate_clothing_socks_3.png	119	inanimate	clothing	socks	3	0	1	stars	2	correct	2.07576261821669
48549	1	stim180_inanimate_plants_tulip_4.png	180	inanimate	plants	tulip	4	0	1	stars	2	correct	2.07576261821669
48599	1	stim065_animate_insect_bug_1.png	65	animate	insect	bug	1	0	1	stars	2	correct	2.07576261821669
48649	1	stim139_inanimate_fruits_strawberry_3.png	139	inanimate	fruits	strawberry	3	0	1	stars	2	correct	2.07576261821669
48699	1	stim157_inanimate_furniture_table_1.png	157	inanimate	furniture	table	1	0	1	stars	2	correct	2.07576261821669
48749	1	stim085_animate_mammal_giraffe_1.png	85	animate	mammal	giraffe	1	0	1	stars	2	correct	2.07576261821669
48799	1	stim015_animate_aquatic_shark_3.png	15	animate	aquatic	shark	3	0	1	stars	2	correct	2.07576261821669
48849	1	stim199_inanimate_tools_wrench_3.png	199	inanimate	tools	wrench	3	0	1	stars	2	correct	2.07576261821669
48899	1	stim179_inanimate_plants_tulip_3.png	179	inanimate	plants	tulip	3	0	1	stars	2	correct	2.07576261821669
48949	1	stim161_inanimate_plants_bush_1.png	161	inanimate	plants	bush	1	0	1	stars	2	correct	2.07576261821669
48999	1	stim125_inanimate_fruits_banana_1.png	125	inanimate	fruits	banana	1	0	1	stars	2	correct	2.07576261821669
49049	1	stim047_animate_human_child_3.png	47	animate	human	child	3	0	1	stars	2	correct	2.07576261821669
49099	1	stim136_inanimate_fruits_pineapple_4.png	136	inanimate	fruits	pineapple	4	0	1	stars	2	correct	2.07576261821669
49149	1	stim056_animate_human_faces_4.png	56	animate	human	faces	4	0	1	stars	2	correct	2.07576261821669
49199	1	stim113_inanimate_clothing_shirt_1.png	113	inanimate	clothing	shirt	1	0	1	stars	2	correct	2.07576261821669
49249	1	stim027_animate_bird_duck_3.png	27	animate	bird	duck	3	0	1	stars	2	correct	2.07576261821669
49299	1	stim170_inanimate_plants_sunflower_2.png	170	inanimate	plants	sunflower	2	0	1	stars	2	correct	2.07576261821669
49349	1	stim124_inanimate_fruits_apple_4.png	124	inanimate	fruits	apple	4	0	1	stars	2	correct	2.07576261821669
49399	1	stim122_inanimate_fruits_apple_2.png	122	inanimate	fruits	apple	2	0	1	stars	2	correct	2.07576261821669
49449	1	stim123_inanimate_fruits_apple_3.png	123	inanimate	fruits	apple	3	0	1	stars	2	correct	2.07576261821669
49499	1	stim029_animate_bird_parrot_1.png	29	animate	bird	parrot	1	0	1	stars	2	correct	2.07576261821669
49549	1	stim146_inanimate_furniture_chair_2.png	146	inanimate	furniture	chair	2	0	1	stars	2	correct	2.07576261821669
49599	1	stim169_inanimate_plants_sunflower_1.png	169	inanimate	plants	sunflower	1	0	1	stars	2	correct	2.07576261821669
49649	1	stim079_animate_insect_grasshopper_3.png	79	animate	insect	grasshopper	3	0	1	stars	2	correct	2.07576261821669
49699	1	stim014_animate_aquatic_shark_2.png	14	animate	aquatic	shark	2	0	1	stars	2	correct	2.07576261821669
49749	1	stim127_inanimate_fruits_banana_3.png	127	inanimate	fruits	banana	3	0	1	stars	2	correct	2.07576261821669
49799	1	stim019_animate_aquatic_shrimp_3.png	19	animate	aquatic	shrimp	3	0	1	stars	2	correct	2.07576261821669
49849	1	stim002_animate_aquatic_crab_2.png	2	animate	aquatic	crab	2	0	1	stars	2	correct	2.07576261821669
49899	1	stim092_animate_mammal_kangaroo_4.png	92	animate	mammal	kangaroo	4	0	1	stars	2	correct	2.07576261821669
49949	1	stim197_inanimate_tools_wrench_1.png	197	inanimate	tools	wrench	1	0	1	stars	2	correct	2.07576261821669
49999	1	stim128_inanimate_fruits_banana_4.png	128	inanimate	fruits	banana	4	0	1	stars	2	correct	2.07576261821669
50049	1	stim105_inanimate_clothing_hat_1.png	105	inanimate	clothing	hat	1	0	1	stars	2	correct	2.07576261821669
50099	1	stim106_inanimate_clothing_hat_2.png	106	inanimate	clothing	hat	2	0	1	stars	2	correct	2.07576261821669
50149	1	stim101_inanimate_clothing_gloves_1.png	101	inanimate	clothing	gloves	1	0	1	stars	2	correct	2.07576261821669
50199	1	stim054_animate_human_faces_2.png	54	animate	human	faces	2	0	1	stars	2	correct	2.07576261821669
50249	1	stim005_animate_aquatic_fish_1.png	5	animate	aquatic	fish	1	0	1	stars	2	correct	2.07576261821669
50299	1	stim089_animate_mammal_kangaroo_1.png	89	animate	mammal	kangaroo	1	0	1	stars	2	correct	2.07576261821669
50349	1	stim013_animate_aquatic_shark_1.png	13	animate	aquatic	shark	1	0	1	stars	2	correct	2.07576261821669
50399	1	stim036_animate_bird_peacock_4.png	36	animate	bird	peacock	4	0	1	stars	2	correct	2.07576261821669
50449	1	stim184_inanimate_tools_broom_4.png	184	inanimate	tools	broom	4	0	1	stars	2	correct	2.07576261821669
50499	1	stim138_inanimate_fruits_strawberry_2.png	138	inanimate	fruits	strawberry	2	0	1	stars	2	correct	2.07576261821669
50549	1	stim018_animate_aquatic_shrimp_2.png	18	animate	aquatic	shrimp	2	0	1	stars	2	correct	2.07576261821669
50599	1	stim102_inanimate_clothing_gloves_2.png	102	inanimate	clothing	gloves	2	0	1	stars	2	correct	2.07576261821669
50649	1	stim211_targets_shapes_star_3.png	211	targets	shapes	star	3	1	1	stars	2	correct	2.07576261821669
50699	1	stim131_inanimate_fruits_grape_3.png	131	inanimate	fruits	grape	3	0	1	stars	2	correct	2.07576261821669
50749	1	stim109_inanimate_clothing_jeans_1.png	109	inanimate	clothing	jeans	1	0	1	stars	2	correct	2.07576261821669
50799	1	stim024_animate_bird_chicken_4.png	24	animate	bird	chicken	4	0	1	stars	2	correct	2.07576261821669
50849	1	stim080_animate_insect_grasshopper_4.png	80	animate	insect	grasshopper	4	0	1	stars	2	correct	2.07576261821669
50899	1	stim059_animate_human_sports_3.png	59	animate	human	sports	3	0	1	stars	2	correct	2.07576261821669
50949	1	stim162_inanimate_plants_bush_2.png	162	inanimate	plants	bush	2	0	1	stars	2	correct	2.07576261821669
50999	1	stim172_inanimate_plants_sunflower_4.png	172	inanimate	plants	sunflower	4	0	1	stars	2	correct	2.07576261821669
51049	1	stim134_inanimate_fruits_pineapple_2.png	134	inanimate	fruits	pineapple	2	0	1	stars	2	correct	2.07576261821669
51099	1	stim060_animate_human_sports_4.png	60	animate	human	sports	4	0	1	stars	2	correct	2.07576261821669
51149	1	stim149_inanimate_furniture_closet_1.png	149	inanimate	furniture	closet	1	0	1	stars	2	correct	2.07576261821669
51199	1	stim090_animate_mammal_kangaroo_2.png	90	animate	mammal	kangaroo	2	0	1	stars	2	correct	2.07576261821669
51249	1	stim104_inanimate_clothing_gloves_4.png	104	inanimate	clothing	gloves	4	0	1	stars	2	correct	2.07576261821669
51299	1	stim017_animate_aquatic_shrimp_1.png	17	animate	aquatic	shrimp	1	0	1	stars	2	correct	2.07576261821669
51349	1	stim144_inanimate_furniture_bed_4.png	144	inanimate	furniture	bed	4	0	1	stars	2	correct	2.07576261821669
51399	1	stim135_inanimate_fruits_pineapple_3.png	135	inanimate	fruits	pineapple	3	0	1	stars	2	correct	2.07576261821669
51449	1	stim154_inanimate_furniture_sofa_2.png	154	inanimate	furniture	sofa	2	0	1	stars	2	correct	2.07576261821669
51499	1	stim048_animate_human_child_4.png	48	animate	human	child	4	0	1	stars	2	correct	2.07576261821669
51549	1	stim152_inanimate_furniture_closet_4.png	152	inanimate	furniture	closet	4	0	1	stars	2	correct	2.07576261821669
51599	1	stim042_animate_human_baby_2.png	42	animate	human	baby	2	0	1	stars	2	correct	2.07576261821669
51649	1	stim185_inanimate_tools_hammer_1.png	185	inanimate	tools	hammer	1	0	1	stars	2	correct	2.07576261821669
51699	1	stim082_animate_mammal_cow_2.png	82	animate	mammal	cow	2	0	1	stars	2	correct	2.07576261821669
51749	1	stim045_animate_human_child_1.png	45	animate	human	child	1	0	1	stars	2	correct	2.07576261821669
51799	1	stim121_inanimate_fruits_apple_1.png	121	inanimate	fruits	apple	1	0	1	stars	2	correct	2.07576261821669
51849	1	stim049_animate_human_clown_1.png	49	animate	human	clown	1	0	1	stars	2	correct	2.07576261821669
51899	1	stim108_inanimate_clothing_hat_4.png	108	inanimate	clothing	hat	4	0	1	stars	2	correct	2.07576261821669
51949	1	stim198_inanimate_tools_wrench_2.png	198	inanimate	tools	wrench	2	0	1	stars	2	correct	2.07576261821669
51999	1	stim107_inanimate_clothing_hat_3.png	107	inanimate	clothing	hat	3	0	1	stars	2	correct	2.07576261821669
52049	1	stim053_animate_human_faces_1.png	53	animate	human	faces	1	0	1	stars	2	correct	2.07576261821669
52099	1	stim083_animate_mammal_cow_3.png	83	animate	mammal	cow	3	0	1	stars	2	correct	2.07576261821669
52149	1	stim088_animate_mammal_giraffe_4.png	88	animate	mammal	giraffe	4	0	1	stars	2	correct	2.07576261821669
52199	1	stim070_animate_insect_butterfly_2.png	70	animate	insect	butterfly	2	0	1	stars	2	correct	2.07576261821669
52249	1	stim020_animate_aquatic_shrimp_4.png	20	animate	aquatic	shrimp	4	0	1	stars	2	correct	2.07576261821669
52299	1	stim164_inanimate_plants_bush_4.png	164	inanimate	plants	bush	4	0	1	stars	2	correct	2.07576261821669
52349	1	stim190_inanimate_tools_pan_2.png	190	inanimate	tools	pan	2	0	1	stars	2	correct	2.07576261821669
52399	1	stim188_inanimate_tools_hammer_4.png	188	inanimate	tools	hammer	4	0	1	stars	2	correct	2.07576261821669
52449	1	stim187_inanimate_tools_hammer_3.png	187	inanimate	tools	hammer	3	0	1	stars	2	correct	2.07576261821669
52499	1	stim186_inanimate_tools_hammer_2.png	186	inanimate	tools	hammer	2	0	1	stars	2	correct	2.07576261821669
52549	1	stim195_inanimate_tools_scissors_3.png	195	inanimate	tools	scissors	3	0	1	stars	2	correct	2.07576261821669
52599	1	stim028_animate_bird_duck_4.png	28	animate	bird	duck	4	0	1	stars	2	correct	2.07576261821669
52649	1	stim008_animate_aquatic_fish_4.png	8	animate	aquatic	fish	4	0	1	stars	2	correct	2.07576261821669
52699	1	stim022_animate_bird_chicken_2.png	22	animate	bird	chicken	2	0	1	stars	2	correct	2.07576261821669
52749	1	stim011_animate_aquatic_seahorse_3.png	11	animate	aquatic	seahorse	3	0	1	stars	2	correct	2.07576261821669
52799	1	stim061_animate_insect_ant_1.png	61	animate	insect	ant	1	0	1	stars	2	correct	2.07576261821669
52849	1	stim062_animate_insect_ant_2.png	62	animate	insect	ant	2	0	1	stars	2	correct	2.07576261821669
52899	1	stim133_inanimate_fruits_pineapple_1.png	133	inanimate	fruits	pineapple	1	0	1	stars	2	correct	2.07576261821669
52949	1	stim174_inanimate_plants_tree_2.png	174	inanimate	plants	tree	2	0	1	stars	2	correct	2.07576261821669
52999	1	stim097_animate_mammal_rhino_1.png	97	animate	mammal	rhino	1	0	1	stars	2	correct	2.07576261821669
53049	1	stim193_inanimate_tools_scissors_1.png	193	inanimate	tools	scissors	1	0	1	stars	2	correct	2.07576261821669
53099	1	stim168_inanimate_plants_cactus_4.png	168	inanimate	plants	cactus	4	0	1	stars	2	correct	2.07576261821669
53149	1	stim192_inanimate_tools_pan_4.png	192	inanimate	tools	pan	4	0	1	stars	2	correct	2.07576261821669
53199	1	stim069_animate_insect_butterfly_1.png	69	animate	insect	butterfly	1	0	1	stars	2	correct	2.07576261821669
53249	1	stim050_animate_human_clown_2.png	50	animate	human	clown	2	0	1	stars	2	correct	2.07576261821669
53299	1	stim078_animate_insect_grasshopper_2.png	78	animate	insect	grasshopper	2	0	1	stars	2	correct	2.07576261821669
53349	1	stim087_animate_mammal_giraffe_3.png	87	animate	mammal	giraffe	3	0	1	stars	2	correct	2.07576261821669
53399	1	stim016_animate_aquatic_shark_4.png	16	animate	aquatic	shark	4	0	1	stars	2	correct	2.07576261821669
53449	1	stim055_animate_human_faces_3.png	55	animate	human	faces	3	0	1	stars	2	correct	2.07576261821669
53499	1	stim155_inanimate_furniture_sofa_3.png	155	inanimate	furniture	sofa	3	0	1	stars	2	correct	2.07576261821669
53549	1	stim075_animate_insect_dragonfly_3.png	75	animate	insect	dragonfly	3	0	1	stars	2	correct	2.07576261821669
53599	1	stim178_inanimate_plants_tulip_2.png	178	inanimate	plants	tulip	2	0	1	stars	2	correct	2.07576261821669
53649	1	stim209_targets_shapes_star_1.png	209	targets	shapes	star	1	1	1	stars	2	correct	2.07576261821669
53699	1	stim037_animate_bird_penguin_1.png	37	animate	bird	penguin	1	0	1	stars	2	correct	2.07576261821669
53749	1	stim194_inanimate_tools_scissors_2.png	194	inanimate	tools	scissors	2	0	1	stars	2	correct	2.07576261821669
53799	1	stim177_inanimate_plants_tulip_1.png	177	inanimate	plants	tulip	1	0	1	stars	2	correct	2.07576261821669
53849	1	stim181_inanimate_tools_broom_1.png	181	inanimate	tools	broom	1	0	1	stars	2	correct	2.07576261821669
53899	1	stim171_inanimate_plants_sunflower_3.png	171	inanimate	plants	sunflower	3	0	1	stars	2	correct	2.07576261821669
53949	1	stim175_inanimate_plants_tree_3.png	175	inanimate	plants	tree	3	0	1	stars	2	correct	2.07576261821669
53999	1	stim051_animate_human_clown_3.png	51	animate	human	clown	3	0	1	stars	2	correct	2.07576261821669
54049	1	stim112_inanimate_clothing_jeans_4.png	112	inanimate	clothing	jeans	4	0	1	stars	2	correct	2.07576261821669
54099	1	stim012_animate_aquatic_seahorse_4.png	12	animate	aquatic	seahorse	4	0	1	stars	2	correct	2.07576261821669
54149	1	stim159_inanimate_furniture_table_3.png	159	inanimate	furniture	table	3	0	1	stars	2	correct	2.07576261821669
54199	1	stim120_inanimate_clothing_socks_4.png	120	inanimate	clothing	socks	4	0	1	stars	2	correct	2.07576261821669
54249	1	stim068_animate_insect_bug_4.png	68	animate	insect	bug	4	0	1	stars	2	correct	2.07576261821669
54299	1	stim023_animate_bird_chicken_3.png	23	animate	bird	chicken	3	0	1	stars	2	correct	2.07576261821669
54349	1	stim040_animate_bird_penguin_4.png	40	animate	bird	penguin	4	0	1	stars	2	correct	2.07576261821669
54399	1	stim009_animate_aquatic_seahorse_1.png	9	animate	aquatic	seahorse	1	0	1	stars	2	correct	2.07576261821669
54449	1	stim007_animate_aquatic_fish_3.png	7	animate	aquatic	fish	3	0	1	stars	2	correct	2.07576261821669
54499	1	stim081_animate_mammal_cow_1.png	81	animate	mammal	cow	1	0	1	stars	2	correct	2.07576261821669
54549	1	stim140_inanimate_fruits_strawberry_4.png	140	inanimate	fruits	strawberry	4	0	1	stars	2	correct	2.07576261821669
54599	1	stim026_animate_bird_duck_2.png	26	animate	bird	duck	2	0	1	stars	2	correct	2.07576261821669
54649	1	stim076_animate_insect_dragonfly_4.png	76	animate	insect	dragonfly	4	0	1	stars	2	correct	2.07576261821669
54699	1	stim063_animate_insect_ant_3.png	63	animate	insect	ant	3	0	1	stars	2	correct	2.07576261821669
54749	1	stim052_animate_human_clown_4.png	52	animate	human	clown	4	0	1	stars	2	correct	2.07576261821669
54799	1	stim110_inanimate_clothing_jeans_2.png	110	inanimate	clothing	jeans	2	0	1	stars	2	correct	2.07576261821669
54849	1	stim041_animate_human_baby_1.png	41	animate	human	baby	1	0	1	stars	2	correct	2.07576261821669
54899	1	stim148_inanimate_furniture_chair_4.png	148	inanimate	furniture	chair	4	0	1	stars	2	correct	2.07576261821669
54949	1	stim098_animate_mammal_rhino_2.png	98	animate	mammal	rhino	2	0	1	stars	2	correct	2.07576261821669
54999	1	stim057_animate_human_sports_1.png	57	animate	human	sports	1	0	1	stars	2	correct	2.07576261821669
55049	1	stim095_animate_mammal_monkey_3.png	95	animate	mammal	monkey	3	0	1	stars	2	correct	2.07576261821669
55099	1	stim165_inanimate_plants_cactus_1.png	165	inanimate	plants	cactus	1	0	1	stars	2	correct	2.07576261821669
55149	1	stim173_inanimate_plants_tree_1.png	173	inanimate	plants	tree	1	0	1	stars	2	correct	2.07576261821669
55199	1	stim004_animate_aquatic_crab_4.png	4	animate	aquatic	crab	4	0	1	stars	2	correct	2.07576261821669
55249	1	stim044_animate_human_baby_4.png	44	animate	human	baby	4	0	1	stars	2	correct	2.07576261821669
55299	1	stim145_inanimate_furniture_chair_1.png	145	inanimate	furniture	chair	1	0	1	stars	2	correct	2.07576261821669
55349	1	stim132_inanimate_fruits_grape_4.png	132	inanimate	fruits	grape	4	0	1	stars	2	correct	2.07576261821669
55399	1	stim151_inanimate_furniture_closet_3.png	151	inanimate	furniture	closet	3	0	1	stars	2	correct	2.07576261821669
55449	1	stim010_animate_aquatic_seahorse_2.png	10	animate	aquatic	seahorse	2	0	1	stars	2	correct	2.07576261821669
55499	1	stim071_animate_insect_butterfly_3.png	71	animate	insect	butterfly	3	0	1	stars	2	correct	2.07576261821669
55549	1	stim001_animate_aquatic_crab_1.png	1	animate	aquatic	crab	1	0	1	stars	2	correct	2.07576261821669
55599	1	stim035_animate_bird_peacock_3.png	35	animate	bird	peacock	3	0	1	stars	2	correct	2.07576261821669
55649	1	stim032_animate_bird_parrot_4.png	32	animate	bird	parrot	4	0	1	stars	2	correct	2.07576261821669
55699	1	stim111_inanimate_clothing_jeans_3.png	111	inanimate	clothing	jeans	3	0	1	stars	2	correct	2.07576261821669
55749	1	stim126_inanimate_fruits_banana_2.png	126	inanimate	fruits	banana	2	0	1	stars	2	correct	2.07576261821669
55799	1	stim160_inanimate_furniture_table_4.png	160	inanimate	furniture	table	4	0	1	stars	2	correct	2.07576261821669
55849	1	stim183_inanimate_tools_broom_3.png	183	inanimate	tools	broom	3	0	1	stars	2	correct	2.07576261821669
55899	1	stim033_animate_bird_peacock_1.png	33	animate	bird	peacock	1	0	1	stars	2	correct	2.07576261821669
55949	1	stim073_animate_insect_dragonfly_1.png	73	animate	insect	dragonfly	1	0	1	stars	2	correct	2.07576261821669
55999	1	stim006_animate_aquatic_fish_2.png	6	animate	aquatic	fish	2	0	1	stars	2	correct	2.07576261821669
56049	1	stim058_animate_human_sports_2.png	58	animate	human	sports	2	0	1	stars	2	correct	2.07576261821669
56099	1	stim038_animate_bird_penguin_2.png	38	animate	bird	penguin	2	0	1	stars	2	correct	2.07576261821669
56149	1	stim074_animate_insect_dragonfly_2.png	74	animate	insect	dragonfly	2	0	1	stars	2	correct	2.07576261821669
56199	1	stim117_inanimate_clothing_socks_1.png	117	inanimate	clothing	socks	1	0	1	stars	2	correct	2.07576261821669
56249	1	stim191_inanimate_tools_pan_3.png	191	inanimate	tools	pan	3	0	1	stars	2	correct	2.07576261821669
56299	1	stim137_inanimate_fruits_strawberry_1.png	137	inanimate	fruits	strawberry	1	0	1	stars	2	correct	2.07576261821669
56349	1	stim100_animate_mammal_rhino_4.png	100	animate	mammal	rhino	4	0	1	stars	2	correct	2.07576261821669
56399	1	stim200_inanimate_tools_wrench_4.png	200	inanimate	tools	wrench	4	0	1	stars	2	correct	2.07576261821669
56449	1	stim003_animate_aquatic_crab_3.png	3	animate	aquatic	crab	3	0	1	stars	2	correct	2.07576261821669
56499	1	stim046_animate_human_child_2.png	46	animate	human	child	2	0	1	stars	2	correct	2.07576261821669
56549	1	stim130_inanimate_fruits_grape_2.png	130	inanimate	fruits	grape	2	0	1	stars	2	correct	2.07576261821669
56599	1	stim039_animate_bird_penguin_3.png	39	animate	bird	penguin	3	0	1	stars	2	correct	2.07576261821669
56649	1	stim064_animate_insect_ant_4.png	64	animate	insect	ant	4	0	1	stars	2	correct	2.07576261821669
56699	1	stim086_animate_mammal_giraffe_2.png	86	animate	mammal	giraffe	2	0	1	stars	2	correct	2.07576261821669
56749	1	stim141_inanimate_furniture_bed_1.png	141	inanimate	furniture	bed	1	0	1	stars	2	correct	2.07576261821669
56799	1	stim093_animate_mammal_monkey_1.png	93	animate	mammal	monkey	1	0	1	stars	2	correct	2.07576261821669
56849	1	stim066_animate_insect_bug_2.png	66	animate	insect	bug	2	0	1	stars	2	correct	2.07576261821669
56899	1	stim147_inanimate_furniture_chair_3.png	147	inanimate	furniture	chair	3	0	1	stars	2	correct	2.07576261821669
56949	1	stim118_inanimate_clothing_socks_2.png	118	inanimate	clothing	socks	2	0	1	stars	2	correct	2.07576261821669
56999	1	stim072_animate_insect_butterfly_4.png	72	animate	insect	butterfly	4	0	1	stars	2	correct	2.07576261821669
57049	1	stim142_inanimate_furniture_bed_2.png	142	inanimate	furniture	bed	2	0	1	stars	2	correct	2.07576261821669
57099	1	stim031_animate_bird_parrot_3.png	31	animate	bird	parrot	3	0	1	stars	2	correct	2.07576261821669
57149	1	stim030_animate_bird_parrot_2.png	30	animate	bird	parrot	2	0	1	stars	2	correct	2.07576261821669
57199	1	stim143_inanimate_furniture_bed_3.png	143	inanimate	furniture	bed	3	0	1	stars	2	correct	2.07576261821669
67999	1	stim161_inanimate_plants_bush_1.png	161	inanimate	plants	bush	1	0	2	stars	2	incorrect	1.71177217643708
68049	1	stim004_animate_aquatic_crab_4.png	4	animate	aquatic	crab	4	0	2	stars	2	incorrect	1.71177217643708
68099	1	stim064_animate_insect_ant_4.png	64	animate	insect	ant	4	0	2	stars	2	incorrect	1.71177217643708
68149	1	stim024_animate_bird_chicken_4.png	24	animate	bird	chicken	4	0	2	stars	2	incorrect	1.71177217643708
68199	1	stim178_inanimate_plants_tulip_2.png	178	inanimate	plants	tulip	2	0	2	stars	2	incorrect	1.71177217643708
68249	1	stim016_animate_aquatic_shark_4.png	16	animate	aquatic	shark	4	0	2	stars	2	incorrect	1.71177217643708
68299	1	stim135_inanimate_fruits_pineapple_3.png	135	inanimate	fruits	pineapple	3	0	2	stars	2	incorrect	1.71177217643708
68349	1	stim053_animate_human_faces_1.png	53	animate	human	faces	1	0	2	stars	2	incorrect	1.71177217643708
68399	1	stim164_inanimate_plants_bush_4.png	164	inanimate	plants	bush	4	0	2	stars	2	incorrect	1.71177217643708
68449	1	stim020_animate_aquatic_shrimp_4.png	20	animate	aquatic	shrimp	4	0	2	stars	2	incorrect	1.71177217643708
68499	1	stim047_animate_human_child_3.png	47	animate	human	child	3	0	2	stars	2	incorrect	1.71177217643708
68549	1	stim033_animate_bird_peacock_1.png	33	animate	bird	peacock	1	0	2	stars	2	incorrect	1.71177217643708
68599	1	stim077_animate_insect_grasshopper_1.png	77	animate	insect	grasshopper	1	0	2	stars	2	incorrect	1.71177217643708
68649	1	stim030_animate_bird_parrot_2.png	30	animate	bird	parrot	2	0	2	stars	2	incorrect	1.71177217643708
68699	1	stim045_animate_human_child_1.png	45	animate	human	child	1	0	2	stars	2	incorrect	1.71177217643708
68749	1	stim120_inanimate_clothing_socks_4.png	120	inanimate	clothing	socks	4	0	2	stars	2	incorrect	1.71177217643708
68799	1	stim147_inanimate_furniture_chair_3.png	147	inanimate	furniture	chair	3	0	2	stars	2	incorrect	1.71177217643708
68849	1	stim038_animate_bird_penguin_2.png	38	animate	bird	penguin	2	0	2	stars	2	incorrect	1.71177217643708
68899	1	stim035_animate_bird_peacock_3.png	35	animate	bird	peacock	3	0	2	stars	2	incorrect	1.71177217643708
68949	1	stim080_animate_insect_grasshopper_4.png	80	animate	insect	grasshopper	4	0	2	stars	2	incorrect	1.71177217643708
68999	1	stim113_inanimate_clothing_shirt_1.png	113	inanimate	clothing	shirt	1	0	2	stars	2	incorrect	1.71177217643708
69049	1	stim166_inanimate_plants_cactus_2.png	166	inanimate	plants	cactus	2	0	2	stars	2	incorrect	1.71177217643708
69099	1	stim152_inanimate_furniture_closet_4.png	152	inanimate	furniture	closet	4	0	2	stars	2	incorrect	1.71177217643708
69149	1	stim193_inanimate_tools_scissors_1.png	193	inanimate	tools	scissors	1	0	2	stars	2	incorrect	1.71177217643708
69199	1	stim010_animate_aquatic_seahorse_2.png	10	animate	aquatic	seahorse	2	0	2	stars	2	incorrect	1.71177217643708
69249	1	stim141_inanimate_furniture_bed_1.png	141	inanimate	furniture	bed	1	0	2	stars	2	incorrect	1.71177217643708
69299	1	stim092_animate_mammal_kangaroo_4.png	92	animate	mammal	kangaroo	4	0	2	stars	2	incorrect	1.71177217643708
69349	1	stim098_animate_mammal_rhino_2.png	98	animate	mammal	rhino	2	0	2	stars	2	incorrect	1.71177217643708
69399	1	stim068_animate_insect_bug_4.png	68	animate	insect	bug	4	0	2	stars	2	incorrect	1.71177217643708
69449	1	stim073_animate_insect_dragonfly_1.png	73	animate	insect	dragonfly	1	0	2	stars	2	incorrect	1.71177217643708
69499	1	stim029_animate_bird_parrot_1.png	29	animate	bird	parrot	1	0	2	stars	2	incorrect	1.71177217643708
69549	1	stim015_animate_aquatic_shark_3.png	15	animate	aquatic	shark	3	0	2	stars	2	incorrect	1.71177217643708
69599	1	stim048_animate_human_child_4.png	48	animate	human	child	4	0	2	stars	2	incorrect	1.71177217643708
69649	1	stim134_inanimate_fruits_pineapple_2.png	134	inanimate	fruits	pineapple	2	0	2	stars	2	incorrect	1.71177217643708
69699	1	stim114_inanimate_clothing_shirt_2.png	114	inanimate	clothing	shirt	2	0	2	stars	2	incorrect	1.71177217643708
69749	1	stim025_animate_bird_duck_1.png	25	animate	bird	duck	1	0	2	stars	2	incorrect	1.71177217643708
69799	1	stim136_inanimate_fruits_pineapple_4.png	136	inanimate	fruits	pineapple	4	0	2	stars	2	incorrect	1.71177217643708
69849	1	stim061_animate_insect_ant_1.png	61	animate	insect	ant	1	0	2	stars	2	incorrect	1.71177217643708
69899	1	stim069_animate_insect_butterfly_1.png	69	animate	insect	butterfly	1	0	2	stars	2	incorrect	1.71177217643708
69949	1	stim036_animate_bird_peacock_4.png	36	animate	bird	peacock	4	0	2	stars	2	incorrect	1.71177217643708
69999	1	stim185_inanimate_tools_hammer_1.png	185	inanimate	tools	hammer	1	0	2	stars	2	incorrect	1.71177217643708
70049	1	stim070_animate_insect_butterfly_2.png	70	animate	insect	butterfly	2	0	2	stars	2	incorrect	1.71177217643708
70099	1	stim007_animate_aquatic_fish_3.png	7	animate	aquatic	fish	3	0	2	stars	2	incorrect	1.71177217643708
70149	1	stim106_inanimate_clothing_hat_2.png	106	inanimate	clothing	hat	2	0	2	stars	2	incorrect	1.71177217643708
70199	1	stim065_animate_insect_bug_1.png	65	animate	insect	bug	1	0	2	stars	2	incorrect	1.71177217643708
70249	1	stim104_inanimate_clothing_gloves_4.png	104	inanimate	clothing	gloves	4	0	2	stars	2	incorrect	1.71177217643708
70299	1	stim160_inanimate_furniture_table_4.png	160	inanimate	furniture	table	4	0	2	stars	2	incorrect	1.71177217643708
70349	1	stim194_inanimate_tools_scissors_2.png	194	inanimate	tools	scissors	2	0	2	stars	2	incorrect	1.71177217643708
70399	1	stim086_animate_mammal_giraffe_2.png	86	animate	mammal	giraffe	2	0	2	stars	2	incorrect	1.71177217643708
70449	1	stim148_inanimate_furniture_chair_4.png	148	inanimate	furniture	chair	4	0	2	stars	2	incorrect	1.71177217643708
70499	1	stim031_animate_bird_parrot_3.png	31	animate	bird	parrot	3	0	2	stars	2	incorrect	1.71177217643708
70549	1	stim096_animate_mammal_monkey_4.png	96	animate	mammal	monkey	4	0	2	stars	2	incorrect	1.71177217643708
70599	1	stim093_animate_mammal_monkey_1.png	93	animate	mammal	monkey	1	0	2	stars	2	incorrect	1.71177217643708
70649	1	stim129_inanimate_fruits_grape_1.png	129	inanimate	fruits	grape	1	0	2	stars	2	incorrect	1.71177217643708
70699	1	stim067_animate_insect_bug_3.png	67	animate	insect	bug	3	0	2	stars	2	incorrect	1.71177217643708
70749	1	stim182_inanimate_tools_broom_2.png	182	inanimate	tools	broom	2	0	2	stars	2	incorrect	1.71177217643708
70799	1	stim006_animate_aquatic_fish_2.png	6	animate	aquatic	fish	2	0	2	stars	2	incorrect	1.71177217643708
70849	1	stim101_inanimate_clothing_gloves_1.png	101	inanimate	clothing	gloves	1	0	2	stars	2	incorrect	1.71177217643708
70899	1	stim140_inanimate_fruits_strawberry_4.png	140	inanimate	fruits	strawberry	4	0	2	stars	2	incorrect	1.71177217643708
70949	1	stim122_inanimate_fruits_apple_2.png	122	inanimate	fruits	apple	2	0	2	stars	2	incorrect	1.71177217643708
70999	1	stim057_animate_human_sports_1.png	57	animate	human	sports	1	0	2	stars	2	incorrect	1.71177217643708
71049	1	stim112_inanimate_clothing_jeans_4.png	112	inanimate	clothing	jeans	4	0	2	stars	2	incorrect	1.71177217643708
71099	1	stim056_animate_human_faces_4.png	56	animate	human	faces	4	0	2	stars	2	incorrect	1.71177217643708
71149	1	stim133_inanimate_fruits_pineapple_1.png	133	inanimate	fruits	pineapple	1	0	2	stars	2	incorrect	1.71177217643708
71199	1	stim021_animate_bird_chicken_1.png	21	animate	bird	chicken	1	0	2	stars	2	incorrect	1.71177217643708
71249	1	stim165_inanimate_plants_cactus_1.png	165	inanimate	plants	cactus	1	0	2	stars	2	incorrect	1.71177217643708
71299	1	stim005_animate_aquatic_fish_1.png	5	animate	aquatic	fish	1	0	2	stars	2	incorrect	1.71177217643708
71349	1	stim089_animate_mammal_kangaroo_1.png	89	animate	mammal	kangaroo	1	0	2	stars	2	incorrect	1.71177217643708
71399	1	stim075_animate_insect_dragonfly_3.png	75	animate	insect	dragonfly	3	0	2	stars	2	incorrect	1.71177217643708
71449	1	stim044_animate_human_baby_4.png	44	animate	human	baby	4	0	2	stars	2	incorrect	1.71177217643708
71499	1	stim146_inanimate_furniture_chair_2.png	146	inanimate	furniture	chair	2	0	2	stars	2	incorrect	1.71177217643708
71549	1	stim192_inanimate_tools_pan_4.png	192	inanimate	tools	pan	4	0	2	stars	2	incorrect	1.71177217643708
71599	1	stim027_animate_bird_duck_3.png	27	animate	bird	duck	3	0	2	stars	2	incorrect	1.71177217643708
71649	1	stim009_animate_aquatic_seahorse_1.png	9	animate	aquatic	seahorse	1	0	2	stars	2	incorrect	1.71177217643708
71699	1	stim062_animate_insect_ant_2.png	62	animate	insect	ant	2	0	2	stars	2	incorrect	1.71177217643708
71749	1	stim102_inanimate_clothing_gloves_2.png	102	inanimate	clothing	gloves	2	0	2	stars	2	incorrect	1.71177217643708
71799	1	stim158_inanimate_furniture_table_2.png	158	inanimate	furniture	table	2	0	2	stars	2	incorrect	1.71177217643708
71849	1	stim001_animate_aquatic_crab_1.png	1	animate	aquatic	crab	1	0	2	stars	2	incorrect	1.71177217643708
71899	1	stim177_inanimate_plants_tulip_1.png	177	inanimate	plants	tulip	1	0	2	stars	2	incorrect	1.71177217643708
71949	1	stim137_inanimate_fruits_strawberry_1.png	137	inanimate	fruits	strawberry	1	0	2	stars	2	incorrect	1.71177217643708
71999	1	stim188_inanimate_tools_hammer_4.png	188	inanimate	tools	hammer	4	0	2	stars	2	incorrect	1.71177217643708
72049	1	stim150_inanimate_furniture_closet_2.png	150	inanimate	furniture	closet	2	0	2	stars	2	incorrect	1.71177217643708
72099	1	stim084_animate_mammal_cow_4.png	84	animate	mammal	cow	4	0	2	stars	2	incorrect	1.71177217643708
72149	1	stim040_animate_bird_penguin_4.png	40	animate	bird	penguin	4	0	2	stars	2	incorrect	1.71177217643708
72199	1	stim074_animate_insect_dragonfly_2.png	74	animate	insect	dragonfly	2	0	2	stars	2	incorrect	1.71177217643708
72249	1	stim181_inanimate_tools_broom_1.png	181	inanimate	tools	broom	1	0	2	stars	2	incorrect	1.71177217643708
72299	1	stim125_inanimate_fruits_banana_1.png	125	inanimate	fruits	banana	1	0	2	stars	2	incorrect	1.71177217643708
72349	1	stim174_inanimate_plants_tree_2.png	174	inanimate	plants	tree	2	0	2	stars	2	incorrect	1.71177217643708
72399	1	stim046_animate_human_child_2.png	46	animate	human	child	2	0	2	stars	2	incorrect	1.71177217643708
72449	1	stim099_animate_mammal_rhino_3.png	99	animate	mammal	rhino	3	0	2	stars	2	incorrect	1.71177217643708
72499	1	stim216_targets_shapes_star_4.png	216	targets	shapes	star	4	1	2	stars	2	incorrect	1.71177217643708
72549	1	stim054_animate_human_faces_2.png	54	animate	human	faces	2	0	2	stars	2	incorrect	1.71177217643708
72599	1	stim050_animate_human_clown_2.png	50	animate	human	clown	2	0	2	stars	2	incorrect	1.71177217643708
72649	1	stim039_animate_bird_penguin_3.png	39	animate	bird	penguin	3	0	2	stars	2	incorrect	1.71177217643708
72699	1	stim049_animate_human_clown_1.png	49	animate	human	clown	1	0	2	stars	2	incorrect	1.71177217643708
72749	1	stim087_animate_mammal_giraffe_3.png	87	animate	mammal	giraffe	3	0	2	stars	2	incorrect	1.71177217643708
72799	1	stim013_animate_aquatic_shark_1.png	13	animate	aquatic	shark	1	0	2	stars	2	incorrect	1.71177217643708
72849	1	stim078_animate_insect_grasshopper_2.png	78	animate	insect	grasshopper	2	0	2	stars	2	incorrect	1.71177217643708
72899	1	stim119_inanimate_clothing_socks_3.png	119	inanimate	clothing	socks	3	0	2	stars	2	incorrect	1.71177217643708
72949	1	stim107_inanimate_clothing_hat_3.png	107	inanimate	clothing	hat	3	0	2	stars	2	incorrect	1.71177217643708
72999	1	stim163_inanimate_plants_bush_3.png	163	inanimate	plants	bush	3	0	2	stars	2	incorrect	1.71177217643708
73049	1	stim179_inanimate_plants_tulip_3.png	179	inanimate	plants	tulip	3	0	2	stars	2	incorrect	1.71177217643708
73099	1	stim115_inanimate_clothing_shirt_3.png	115	inanimate	clothing	shirt	3	0	2	stars	2	incorrect	1.71177217643708
73149	1	stim003_animate_aquatic_crab_3.png	3	animate	aquatic	crab	3	0	2	stars	2	incorrect	1.71177217643708
73199	1	stim042_animate_human_baby_2.png	42	animate	human	baby	2	0	2	stars	2	incorrect	1.71177217643708
73249	1	stim014_animate_aquatic_shark_2.png	14	animate	aquatic	shark	2	0	2	stars	2	incorrect	1.71177217643708
73299	1	stim144_inanimate_furniture_bed_4.png	144	inanimate	furniture	bed	4	0	2	stars	2	incorrect	1.71177217643708
73349	1	stim059_animate_human_sports_3.png	59	animate	human	sports	3	0	2	stars	2	incorrect	1.71177217643708
73399	1	stim022_animate_bird_chicken_2.png	22	animate	bird	chicken	2	0	2	stars	2	incorrect	1.71177217643708
73449	1	stim060_animate_human_sports_4.png	60	animate	human	sports	4	0	2	stars	2	incorrect	1.71177217643708
73499	1	stim076_animate_insect_dragonfly_4.png	76	animate	insect	dragonfly	4	0	2	stars	2	incorrect	1.71177217643708
73549	1	stim175_inanimate_plants_tree_3.png	175	inanimate	plants	tree	3	0	2	stars	2	incorrect	1.71177217643708
73599	1	stim191_inanimate_tools_pan_3.png	191	inanimate	tools	pan	3	0	2	stars	2	incorrect	1.71177217643708
73650	1	stim116_inanimate_clothing_shirt_4.png	116	inanimate	clothing	shirt	4	0	2	stars	2	incorrect	1.71177217643708
73699	1	stim023_animate_bird_chicken_3.png	23	animate	bird	chicken	3	0	2	stars	2	incorrect	1.71177217643708
73749	1	stim131_inanimate_fruits_grape_3.png	131	inanimate	fruits	grape	3	0	2	stars	2	incorrect	1.71177217643708
73799	1	stim184_inanimate_tools_broom_4.png	184	inanimate	tools	broom	4	0	2	stars	2	incorrect	1.71177217643708
73850	1	stim123_inanimate_fruits_apple_3.png	123	inanimate	fruits	apple	3	0	2	stars	2	incorrect	1.71177217643708
73900	1	stim130_inanimate_fruits_grape_2.png	130	inanimate	fruits	grape	2	0	2	stars	2	incorrect	1.71177217643708
73949	1	stim034_animate_bird_peacock_2.png	34	animate	bird	peacock	2	0	2	stars	2	incorrect	1.71177217643708
73999	1	stim109_inanimate_clothing_jeans_1.png	109	inanimate	clothing	jeans	1	0	2	stars	2	incorrect	1.71177217643708
74050	1	stim138_inanimate_fruits_strawberry_2.png	138	inanimate	fruits	strawberry	2	0	2	stars	2	incorrect	1.71177217643708
74099	1	stim085_animate_mammal_giraffe_1.png	85	animate	mammal	giraffe	1	0	2	stars	2	incorrect	1.71177217643708
74149	1	stim088_animate_mammal_giraffe_4.png	88	animate	mammal	giraffe	4	0	2	stars	2	incorrect	1.71177217643708
74199	1	stim008_animate_aquatic_fish_4.png	8	animate	aquatic	fish	4	0	2	stars	2	incorrect	1.71177217643708
74249	1	stim028_animate_bird_duck_4.png	28	animate	bird	duck	4	0	2	stars	2	incorrect	1.71177217643708
74300	1	stim018_animate_aquatic_shrimp_2.png	18	animate	aquatic	shrimp	2	0	2	stars	2	incorrect	1.71177217643708
74349	1	stim139_inanimate_fruits_strawberry_3.png	139	inanimate	fruits	strawberry	3	0	2	stars	2	incorrect	1.71177217643708
74400	1	stim071_animate_insect_butterfly_3.png	71	animate	insect	butterfly	3	0	2	stars	2	incorrect	1.71177217643708
74449	1	stim026_animate_bird_duck_2.png	26	animate	bird	duck	2	0	2	stars	2	incorrect	1.71177217643708
74500	1	stim066_animate_insect_bug_2.png	66	animate	insect	bug	2	0	2	stars	2	incorrect	1.71177217643708
74550	1	stim058_animate_human_sports_2.png	58	animate	human	sports	2	0	2	stars	2	incorrect	1.71177217643708
74599	1	stim108_inanimate_clothing_hat_4.png	108	inanimate	clothing	hat	4	0	2	stars	2	incorrect	1.71177217643708
74649	1	stim197_inanimate_tools_wrench_1.png	197	inanimate	tools	wrench	1	0	2	stars	2	incorrect	1.71177217643708
74700	1	stim072_animate_insect_butterfly_4.png	72	animate	insect	butterfly	4	0	2	stars	2	incorrect	1.71177217643708
74750	1	stim176_inanimate_plants_tree_4.png	176	inanimate	plants	tree	4	0	2	stars	2	incorrect	1.71177217643708
74800	1	stim052_animate_human_clown_4.png	52	animate	human	clown	4	0	2	stars	2	incorrect	1.71177217643708
74850	1	stim081_animate_mammal_cow_1.png	81	animate	mammal	cow	1	0	2	stars	2	incorrect	1.71177217643708
74900	1	stim118_inanimate_clothing_socks_2.png	118	inanimate	clothing	socks	2	0	2	stars	2	incorrect	1.71177217643708
74950	1	stim012_animate_aquatic_seahorse_4.png	12	animate	aquatic	seahorse	4	0	2	stars	2	incorrect	1.71177217643708
75000	1	stim155_inanimate_furniture_sofa_3.png	155	inanimate	furniture	sofa	3	0	2	stars	2	incorrect	1.71177217643708
75049	1	stim095_animate_mammal_monkey_3.png	95	animate	mammal	monkey	3	0	2	stars	2	incorrect	1.71177217643708
75100	1	stim051_animate_human_clown_3.png	51	animate	human	clown	3	0	2	stars	2	incorrect	1.71177217643708
75150	1	stim180_inanimate_plants_tulip_4.png	180	inanimate	plants	tulip	4	0	2	stars	2	incorrect	1.71177217643708
75200	1	stim153_inanimate_furniture_sofa_1.png	153	inanimate	furniture	sofa	1	0	2	stars	2	incorrect	1.71177217643708
75250	1	stim079_animate_insect_grasshopper_3.png	79	animate	insect	grasshopper	3	0	2	stars	2	incorrect	1.71177217643708
75300	1	stim154_inanimate_furniture_sofa_2.png	154	inanimate	furniture	sofa	2	0	2	stars	2	incorrect	1.71177217643708
75350	1	stim055_animate_human_faces_3.png	55	animate	human	faces	3	0	2	stars	2	incorrect	1.71177217643708
75400	1	stim032_animate_bird_parrot_4.png	32	animate	bird	parrot	4	0	2	stars	2	incorrect	1.71177217643708
75450	1	stim171_inanimate_plants_sunflower_3.png	171	inanimate	plants	sunflower	3	0	2	stars	2	incorrect	1.71177217643708
75500	1	stim100_animate_mammal_rhino_4.png	100	animate	mammal	rhino	4	0	2	stars	2	incorrect	1.71177217643708
75550	1	stim162_inanimate_plants_bush_2.png	162	inanimate	plants	bush	2	0	2	stars	2	incorrect	1.71177217643708
75600	1	stim189_inanimate_tools_pan_1.png	189	inanimate	tools	pan	1	0	2	stars	2	incorrect	1.71177217643708
75650	1	stim011_animate_aquatic_seahorse_3.png	11	animate	aquatic	seahorse	3	0	2	stars	2	incorrect	1.71177217643708
75700	1	stim168_inanimate_plants_cactus_4.png	168	inanimate	plants	cactus	4	0	2	stars	2	incorrect	1.71177217643708
75750	1	stim103_inanimate_clothing_gloves_3.png	103	inanimate	clothing	gloves	3	0	2	stars	2	incorrect	1.71177217643708
75800	1	stim128_inanimate_fruits_banana_4.png	128	inanimate	fruits	banana	4	0	2	stars	2	incorrect	1.71177217643708
75850	1	stim041_animate_human_baby_1.png	41	animate	human	baby	1	0	2	stars	2	incorrect	1.71177217643708
75899	1	stim199_inanimate_tools_wrench_3.png	199	inanimate	tools	wrench	3	0	2	stars	2	incorrect	1.71177217643708
75950	1	stim169_inanimate_plants_sunflower_1.png	169	inanimate	plants	sunflower	1	0	2	stars	2	incorrect	1.71177217643708
75999	1	stim043_animate_human_baby_3.png	43	animate	human	baby	3	0	2	stars	2	incorrect	1.71177217643708
76050	1	stim090_animate_mammal_kangaroo_2.png	90	animate	mammal	kangaroo	2	0	2	stars	2	incorrect	1.71177217643708
76100	1	stim173_inanimate_plants_tree_1.png	173	inanimate	plants	tree	1	0	2	stars	2	incorrect	1.71177217643708
76150	1	stim019_animate_aquatic_shrimp_3.png	19	animate	aquatic	shrimp	3	0	2	stars	2	incorrect	1.71177217643708
76200	1	stim002_animate_aquatic_crab_2.png	2	animate	aquatic	crab	2	0	2	stars	2	incorrect	1.71177217643708
76250	1	stim186_inanimate_tools_hammer_2.png	186	inanimate	tools	hammer	2	0	2	stars	2	incorrect	1.71177217643708
76300	1	stim063_animate_insect_ant_3.png	63	animate	insect	ant	3	0	2	stars	2	incorrect	1.71177217643708
76350	1	stim094_animate_mammal_monkey_2.png	94	animate	mammal	monkey	2	0	2	stars	2	incorrect	1.71177217643708
76400	1	stim083_animate_mammal_cow_3.png	83	animate	mammal	cow	3	0	2	stars	2	incorrect	1.71177217643708
76450	1	stim157_inanimate_furniture_table_1.png	157	inanimate	furniture	table	1	0	2	stars	2	incorrect	1.71177217643708
76500	1	stim111_inanimate_clothing_jeans_3.png	111	inanimate	clothing	jeans	3	0	2	stars	2	incorrect	1.71177217643708
76550	1	stim187_inanimate_tools_hammer_3.png	187	inanimate	tools	hammer	3	0	2	stars	2	incorrect	1.71177217643708
76600	1	stim121_inanimate_fruits_apple_1.png	121	inanimate	fruits	apple	1	0	2	stars	2	incorrect	1.71177217643708
76650	1	stim156_inanimate_furniture_sofa_4.png	156	inanimate	furniture	sofa	4	0	2	stars	2	incorrect	1.71177217643708
76700	1	stim124_inanimate_fruits_apple_4.png	124	inanimate	fruits	apple	4	0	2	stars	2	incorrect	1.71177217643708
76750	1	stim149_inanimate_furniture_closet_1.png	149	inanimate	furniture	closet	1	0	2	stars	2	incorrect	1.71177217643708
76800	1	stim195_inanimate_tools_scissors_3.png	195	inanimate	tools	scissors	3	0	2	stars	2	incorrect	1.71177217643708
76850	1	stim091_animate_mammal_kangaroo_3.png	91	animate	mammal	kangaroo	3	0	2	stars	2	incorrect	1.71177217643708
76900	1	stim167_inanimate_plants_cactus_3.png	167	inanimate	plants	cactus	3	0	2	stars	2	incorrect	1.71177217643708
76950	1	stim170_inanimate_plants_sunflower_2.png	170	inanimate	plants	sunflower	2	0	2	stars	2	incorrect	1.71177217643708
77000	1	stim190_inanimate_tools_pan_2.png	190	inanimate	tools	pan	2	0	2	stars	2	incorrect	1.71177217643708
77050	1	stim132_inanimate_fruits_grape_4.png	132	inanimate	fruits	grape	4	0	2	stars	2	incorrect	1.71177217643708
77100	1	stim159_inanimate_furniture_table_3.png	159	inanimate	furniture	table	3	0	2	stars	2	incorrect	1.71177217643708
77150	1	stim151_inanimate_furniture_closet_3.png	151	inanimate	furniture	closet	3	0	2	stars	2	incorrect	1.71177217643708
77200	1	stim037_animate_bird_penguin_1.png	37	animate	bird	penguin	1	0	2	stars	2	incorrect	1.71177217643708
77250	1	stim196_inanimate_tools_scissors_4.png	196	inanimate	tools	scissors	4	0	2	stars	2	incorrect	1.71177217643708
77300	1	stim145_inanimate_furniture_chair_1.png	145	inanimate	furniture	chair	1	0	2	stars	2	incorrect	1.71177217643708
77350	1	stim183_inanimate_tools_broom_3.png	183	inanimate	tools	broom	3	0	2	stars	2	incorrect	1.71177217643708
77400	1	stim105_inanimate_clothing_hat_1.png	105	inanimate	clothing	hat	1	0	2	stars	2	incorrect	1.71177217643708
77450	1	stim200_inanimate_tools_wrench_4.png	200	inanimate	tools	wrench	4	0	2	stars	2	incorrect	1.71177217643708
77500	1	stim142_inanimate_furniture_bed_2.png	142	inanimate	furniture	bed	2	0	2	stars	2	incorrect	1.71177217643708
77550	1	stim198_inanimate_tools_wrench_2.png	198	inanimate	tools	wrench	2	0	2	stars	2	incorrect	1.71177217643708
77600	1	stim017_animate_aquatic_shrimp_1.png	17	animate	aquatic	shrimp	1	0	2	stars	2	incorrect	1.71177217643708
77650	1	stim172_inanimate_plants_sunflower_4.png	172	inanimate	plants	sunflower	4	0	2	stars	2	incorrect	1.71177217643708
77700	1	stim143_inanimate_furniture_bed_3.png	143	inanimate	furniture	bed	3	0	2	stars	2	incorrect	1.71177217643708
77750	1	stim117_inanimate_clothing_socks_1.png	117	inanimate	clothing	socks	1	0	2	stars	2	incorrect	1.71177217643708
77800	1	stim110_inanimate_clothing_jeans_2.png	110	inanimate	clothing	jeans	2	0	2	stars	2	incorrect	1.71177217643708
77850	1	stim127_inanimate_fruits_banana_3.png	127	inanimate	fruits	banana	3	0	2	stars	2	incorrect	1.71177217643708
77900	1	stim082_animate_mammal_cow_2.png	82	animate	mammal	cow	2	0	2	stars	2	incorrect	1.71177217643708
77950	1	stim097_animate_mammal_rhino_1.png	97	animate	mammal	rhino	1	0	2	stars	2	incorrect	1.71177217643708
78000	1	stim126_inanimate_fruits_banana_2.png	126	inanimate	fruits	banana	2	0	2	stars	2	incorrect	1.71177217643708
88917	1	stim022_animate_bird_chicken_2.png	22	animate	bird	chicken	2	0	3	boats	4	correct	1.52168918133248
88966	1	stim055_animate_human_faces_3.png	55	animate	human	faces	3	0	3	boats	4	correct	1.52168918133248
89016	1	stim171_inanimate_plants_sunflower_3.png	171	inanimate	plants	sunflower	3	0	3	boats	4	correct	1.52168918133248
89066	1	stim175_inanimate_plants_tree_3.png	175	inanimate	plants	tree	3	0	3	boats	4	correct	1.52168918133248
89116	1	stim031_animate_bird_parrot_3.png	31	animate	bird	parrot	3	0	3	boats	4	correct	1.52168918133248
89166	1	stim036_animate_bird_peacock_4.png	36	animate	bird	peacock	4	0	3	boats	4	correct	1.52168918133248
89216	1	stim003_animate_aquatic_crab_3.png	3	animate	aquatic	crab	3	0	3	boats	4	correct	1.52168918133248
89267	1	stim094_animate_mammal_monkey_2.png	94	animate	mammal	monkey	2	0	3	boats	4	correct	1.52168918133248
89317	1	stim093_animate_mammal_monkey_1.png	93	animate	mammal	monkey	1	0	3	boats	4	correct	1.52168918133248
89367	1	stim045_animate_human_child_1.png	45	animate	human	child	1	0	3	boats	4	correct	1.52168918133248
89417	1	stim187_inanimate_tools_hammer_3.png	187	inanimate	tools	hammer	3	0	3	boats	4	correct	1.52168918133248
89467	1	stim004_animate_aquatic_crab_4.png	4	animate	aquatic	crab	4	0	3	boats	4	correct	1.52168918133248
89517	1	stim116_inanimate_clothing_shirt_4.png	116	inanimate	clothing	shirt	4	0	3	boats	4	correct	1.52168918133248
89567	1	stim155_inanimate_furniture_sofa_3.png	155	inanimate	furniture	sofa	3	0	3	boats	4	correct	1.52168918133248
89617	1	stim052_animate_human_clown_4.png	52	animate	human	clown	4	0	3	boats	4	correct	1.52168918133248
89667	1	stim145_inanimate_furniture_chair_1.png	145	inanimate	furniture	chair	1	0	3	boats	4	correct	1.52168918133248
89717	1	stim020_animate_aquatic_shrimp_4.png	20	animate	aquatic	shrimp	4	0	3	boats	4	correct	1.52168918133248
89767	1	stim064_animate_insect_ant_4.png	64	animate	insect	ant	4	0	3	boats	4	correct	1.52168918133248
89817	1	stim037_animate_bird_penguin_1.png	37	animate	bird	penguin	1	0	3	boats	4	correct	1.52168918133248
89867	1	stim013_animate_aquatic_shark_1.png	13	animate	aquatic	shark	1	0	3	boats	4	correct	1.52168918133248
89917	1	stim074_animate_insect_dragonfly_2.png	74	animate	insect	dragonfly	2	0	3	boats	4	correct	1.52168918133248
89967	1	stim071_animate_insect_butterfly_3.png	71	animate	insect	butterfly	3	0	3	boats	4	correct	1.52168918133248
90017	1	stim089_animate_mammal_kangaroo_1.png	89	animate	mammal	kangaroo	1	0	3	boats	4	correct	1.52168918133248
90067	1	stim188_inanimate_tools_hammer_4.png	188	inanimate	tools	hammer	4	0	3	boats	4	correct	1.52168918133248
90117	1	stim166_inanimate_plants_cactus_2.png	166	inanimate	plants	cactus	2	0	3	boats	4	correct	1.52168918133248
90166	1	stim124_inanimate_fruits_apple_4.png	124	inanimate	fruits	apple	4	0	3	boats	4	correct	1.52168918133248
90217	1	stim127_inanimate_fruits_banana_3.png	127	inanimate	fruits	banana	3	0	3	boats	4	correct	1.52168918133248
90267	1	stim041_animate_human_baby_1.png	41	animate	human	baby	1	0	3	boats	4	correct	1.52168918133248
90317	1	stim181_inanimate_tools_broom_1.png	181	inanimate	tools	broom	1	0	3	boats	4	correct	1.52168918133248
90367	1	stim070_animate_insect_butterfly_2.png	70	animate	insect	butterfly	2	0	3	boats	4	correct	1.52168918133248
90417	1	stim085_animate_mammal_giraffe_1.png	85	animate	mammal	giraffe	1	0	3	boats	4	correct	1.52168918133248
90467	1	stim169_inanimate_plants_sunflower_1.png	169	inanimate	plants	sunflower	1	0	3	boats	4	correct	1.52168918133248
90517	1	stim161_inanimate_plants_bush_1.png	161	inanimate	plants	bush	1	0	3	boats	4	correct	1.52168918133248
90566	1	stim068_animate_insect_bug_4.png	68	animate	insect	bug	4	0	3	boats	4	correct	1.52168918133248
90617	1	stim159_inanimate_furniture_table_3.png	159	inanimate	furniture	table	3	0	3	boats	4	correct	1.52168918133248
90667	1	stim016_animate_aquatic_shark_4.png	16	animate	aquatic	shark	4	0	3	boats	4	correct	1.52168918133248
90717	1	stim125_inanimate_fruits_banana_1.png	125	inanimate	fruits	banana	1	0	3	boats	4	correct	1.52168918133248
90767	1	stim180_inanimate_plants_tulip_4.png	180	inanimate	plants	tulip	4	0	3	boats	4	correct	1.52168918133248
90817	1	stim196_inanimate_tools_scissors_4.png	196	inanimate	tools	scissors	4	0	3	boats	4	correct	1.52168918133248
90867	1	stim021_animate_bird_chicken_1.png	21	animate	bird	chicken	1	0	3	boats	4	correct	1.52168918133248
90917	1	stim106_inanimate_clothing_hat_2.png	106	inanimate	clothing	hat	2	0	3	boats	4	correct	1.52168918133248
90967	1	stim179_inanimate_plants_tulip_3.png	179	inanimate	plants	tulip	3	0	3	boats	4	correct	1.52168918133248
91017	1	stim032_animate_bird_parrot_4.png	32	animate	bird	parrot	4	0	3	boats	4	correct	1.52168918133248
91067	1	stim190_inanimate_tools_pan_2.png	190	inanimate	tools	pan	2	0	3	boats	4	correct	1.52168918133248
91117	1	stim138_inanimate_fruits_strawberry_2.png	138	inanimate	fruits	strawberry	2	0	3	boats	4	correct	1.52168918133248
91167	1	stim197_inanimate_tools_wrench_1.png	197	inanimate	tools	wrench	1	0	3	boats	4	correct	1.52168918133248
91217	1	stim076_animate_insect_dragonfly_4.png	76	animate	insect	dragonfly	4	0	3	boats	4	correct	1.52168918133248
91267	1	stim130_inanimate_fruits_grape_2.png	130	inanimate	fruits	grape	2	0	3	boats	4	correct	1.52168918133248
91317	1	stim082_animate_mammal_cow_2.png	82	animate	mammal	cow	2	0	3	boats	4	correct	1.52168918133248
91367	1	stim198_inanimate_tools_wrench_2.png	198	inanimate	tools	wrench	2	0	3	boats	4	correct	1.52168918133248
91417	1	stim099_animate_mammal_rhino_3.png	99	animate	mammal	rhino	3	0	3	boats	4	correct	1.52168918133248
91467	1	stim058_animate_human_sports_2.png	58	animate	human	sports	2	0	3	boats	4	correct	1.52168918133248
91517	1	stim192_inanimate_tools_pan_4.png	192	inanimate	tools	pan	4	0	3	boats	4	correct	1.52168918133248
91567	1	stim178_inanimate_plants_tulip_2.png	178	inanimate	plants	tulip	2	0	3	boats	4	correct	1.52168918133248
91617	1	stim007_animate_aquatic_fish_3.png	7	animate	aquatic	fish	3	0	3	boats	4	correct	1.52168918133248
91667	1	stim191_inanimate_tools_pan_3.png	191	inanimate	tools	pan	3	0	3	boats	4	correct	1.52168918133248
91717	1	stim115_inanimate_clothing_shirt_3.png	115	inanimate	clothing	shirt	3	0	3	boats	4	correct	1.52168918133248
91767	1	stim206_targets_object_boats_2.png	206	targets	object	boats	2	1	3	boats	4	correct	1.52168918133248
91817	1	stim091_animate_mammal_kangaroo_3.png	91	animate	mammal	kangaroo	3	0	3	boats	4	correct	1.52168918133248
91867	1	stim163_inanimate_plants_bush_3.png	163	inanimate	plants	bush	3	0	3	boats	4	correct	1.52168918133248
91917	1	stim030_animate_bird_parrot_2.png	30	animate	bird	parrot	2	0	3	boats	4	correct	1.52168918133248
91967	1	stim062_animate_insect_ant_2.png	62	animate	insect	ant	2	0	3	boats	4	correct	1.52168918133248
92017	1	stim108_inanimate_clothing_hat_4.png	108	inanimate	clothing	hat	4	0	3	boats	4	correct	1.52168918133248
92067	1	stim024_animate_bird_chicken_4.png	24	animate	bird	chicken	4	0	3	boats	4	correct	1.52168918133248
92117	1	stim151_inanimate_furniture_closet_3.png	151	inanimate	furniture	closet	3	0	3	boats	4	correct	1.52168918133248
92167	1	stim158_inanimate_furniture_table_2.png	158	inanimate	furniture	table	2	0	3	boats	4	correct	1.52168918133248
92217	1	stim168_inanimate_plants_cactus_4.png	168	inanimate	plants	cactus	4	0	3	boats	4	correct	1.52168918133248
92267	1	stim172_inanimate_plants_sunflower_4.png	172	inanimate	plants	sunflower	4	0	3	boats	4	correct	1.52168918133248
92317	1	stim148_inanimate_furniture_chair_4.png	148	inanimate	furniture	chair	4	0	3	boats	4	correct	1.52168918133248
92367	1	stim090_animate_mammal_kangaroo_2.png	90	animate	mammal	kangaroo	2	0	3	boats	4	correct	1.52168918133248
92417	1	stim149_inanimate_furniture_closet_1.png	149	inanimate	furniture	closet	1	0	3	boats	4	correct	1.52168918133248
92467	1	stim170_inanimate_plants_sunflower_2.png	170	inanimate	plants	sunflower	2	0	3	boats	4	correct	1.52168918133248
92517	1	stim132_inanimate_fruits_grape_4.png	132	inanimate	fruits	grape	4	0	3	boats	4	correct	1.52168918133248
92567	1	stim014_animate_aquatic_shark_2.png	14	animate	aquatic	shark	2	0	3	boats	4	correct	1.52168918133248
92617	1	stim195_inanimate_tools_scissors_3.png	195	inanimate	tools	scissors	3	0	3	boats	4	correct	1.52168918133248
92667	1	stim139_inanimate_fruits_strawberry_3.png	139	inanimate	fruits	strawberry	3	0	3	boats	4	correct	1.52168918133248
92717	1	stim112_inanimate_clothing_jeans_4.png	112	inanimate	clothing	jeans	4	0	3	boats	4	correct	1.52168918133248
92767	1	stim185_inanimate_tools_hammer_1.png	185	inanimate	tools	hammer	1	0	3	boats	4	correct	1.52168918133248
92817	1	stim103_inanimate_clothing_gloves_3.png	103	inanimate	clothing	gloves	3	0	3	boats	4	correct	1.52168918133248
92867	1	stim143_inanimate_furniture_bed_3.png	143	inanimate	furniture	bed	3	0	3	boats	4	correct	1.52168918133248
92917	1	stim109_inanimate_clothing_jeans_1.png	109	inanimate	clothing	jeans	1	0	3	boats	4	correct	1.52168918133248
92967	1	stim137_inanimate_fruits_strawberry_1.png	137	inanimate	fruits	strawberry	1	0	3	boats	4	correct	1.52168918133248
93017	1	stim028_animate_bird_duck_4.png	28	animate	bird	duck	4	0	3	boats	4	correct	1.52168918133248
93067	1	stim204_targets_object_boats_4.png	204	targets	object	boats	4	1	3	boats	4	correct	1.52168918133248
93117	1	stim097_animate_mammal_rhino_1.png	97	animate	mammal	rhino	1	0	3	boats	4	correct	1.52168918133248
93167	1	stim154_inanimate_furniture_sofa_2.png	154	inanimate	furniture	sofa	2	0	3	boats	4	correct	1.52168918133248
93217	1	stim061_animate_insect_ant_1.png	61	animate	insect	ant	1	0	3	boats	4	correct	1.52168918133248
93267	1	stim019_animate_aquatic_shrimp_3.png	19	animate	aquatic	shrimp	3	0	3	boats	4	correct	1.52168918133248
93317	1	stim056_animate_human_faces_4.png	56	animate	human	faces	4	0	3	boats	4	correct	1.52168918133248
93367	1	stim005_animate_aquatic_fish_1.png	5	animate	aquatic	fish	1	0	3	boats	4	correct	1.52168918133248
93417	1	stim105_inanimate_clothing_hat_1.png	105	inanimate	clothing	hat	1	0	3	boats	4	correct	1.52168918133248
93467	1	stim140_inanimate_fruits_strawberry_4.png	140	inanimate	fruits	strawberry	4	0	3	boats	4	correct	1.52168918133248
93517	1	stim069_animate_insect_butterfly_1.png	69	animate	insect	butterfly	1	0	3	boats	4	correct	1.52168918133248
93567	1	stim050_animate_human_clown_2.png	50	animate	human	clown	2	0	3	boats	4	correct	1.52168918133248
93617	1	stim102_inanimate_clothing_gloves_2.png	102	inanimate	clothing	gloves	2	0	3	boats	4	correct	1.52168918133248
93667	1	stim073_animate_insect_dragonfly_1.png	73	animate	insect	dragonfly	1	0	3	boats	4	correct	1.52168918133248
93717	1	stim183_inanimate_tools_broom_3.png	183	inanimate	tools	broom	3	0	3	boats	4	correct	1.52168918133248
93767	1	stim165_inanimate_plants_cactus_1.png	165	inanimate	plants	cactus	1	0	3	boats	4	correct	1.52168918133248
93817	1	stim060_animate_human_sports_4.png	60	animate	human	sports	4	0	3	boats	4	correct	1.52168918133248
93867	1	stim081_animate_mammal_cow_1.png	81	animate	mammal	cow	1	0	3	boats	4	correct	1.52168918133248
93917	1	stim193_inanimate_tools_scissors_1.png	193	inanimate	tools	scissors	1	0	3	boats	4	correct	1.52168918133248
93967	1	stim141_inanimate_furniture_bed_1.png	141	inanimate	furniture	bed	1	0	3	boats	4	correct	1.52168918133248
94017	1	stim026_animate_bird_duck_2.png	26	animate	bird	duck	2	0	3	boats	4	correct	1.52168918133248
94067	1	stim136_inanimate_fruits_pineapple_4.png	136	inanimate	fruits	pineapple	4	0	3	boats	4	correct	1.52168918133248
94117	1	stim122_inanimate_fruits_apple_2.png	122	inanimate	fruits	apple	2	0	3	boats	4	correct	1.52168918133248
94167	1	stim048_animate_human_child_4.png	48	animate	human	child	4	0	3	boats	4	correct	1.52168918133248
94217	1	stim152_inanimate_furniture_closet_4.png	152	inanimate	furniture	closet	4	0	3	boats	4	correct	1.52168918133248
94267	1	stim018_animate_aquatic_shrimp_2.png	18	animate	aquatic	shrimp	2	0	3	boats	4	correct	1.52168918133248
94317	1	stim072_animate_insect_butterfly_4.png	72	animate	insect	butterfly	4	0	3	boats	4	correct	1.52168918133248
94367	1	stim131_inanimate_fruits_grape_3.png	131	inanimate	fruits	grape	3	0	3	boats	4	correct	1.52168918133248
94417	1	stim104_inanimate_clothing_gloves_4.png	104	inanimate	clothing	gloves	4	0	3	boats	4	correct	1.52168918133248
94467	1	stim150_inanimate_furniture_closet_2.png	150	inanimate	furniture	closet	2	0	3	boats	4	correct	1.52168918133248
94517	1	stim202_targets_object_boats_2.png	202	targets	object	boats	2	1	3	boats	4	correct	1.52168918133248
94567	1	stim053_animate_human_faces_1.png	53	animate	human	faces	1	0	3	boats	4	correct	1.52168918133248
94617	1	stim065_animate_insect_bug_1.png	65	animate	insect	bug	1	0	3	boats	4	correct	1.52168918133248
94667	1	stim078_animate_insect_grasshopper_2.png	78	animate	insect	grasshopper	2	0	3	boats	4	correct	1.52168918133248
94717	1	stim128_inanimate_fruits_banana_4.png	128	inanimate	fruits	banana	4	0	3	boats	4	correct	1.52168918133248
94767	1	stim118_inanimate_clothing_socks_2.png	118	inanimate	clothing	socks	2	0	3	boats	4	correct	1.52168918133248
94817	1	stim075_animate_insect_dragonfly_3.png	75	animate	insect	dragonfly	3	0	3	boats	4	correct	1.52168918133248
94867	1	stim057_animate_human_sports_1.png	57	animate	human	sports	1	0	3	boats	4	correct	1.52168918133248
94917	1	stim113_inanimate_clothing_shirt_1.png	113	inanimate	clothing	shirt	1	0	3	boats	4	correct	1.52168918133248
94967	1	stim129_inanimate_fruits_grape_1.png	129	inanimate	fruits	grape	1	0	3	boats	4	correct	1.52168918133248
95017	1	stim029_animate_bird_parrot_1.png	29	animate	bird	parrot	1	0	3	boats	4	correct	1.52168918133248
95067	1	stim162_inanimate_plants_bush_2.png	162	inanimate	plants	bush	2	0	3	boats	4	correct	1.52168918133248
95117	1	stim049_animate_human_clown_1.png	49	animate	human	clown	1	0	3	boats	4	correct	1.52168918133248
95167	1	stim134_inanimate_fruits_pineapple_2.png	134	inanimate	fruits	pineapple	2	0	3	boats	4	correct	1.52168918133248
95217	1	stim153_inanimate_furniture_sofa_1.png	153	inanimate	furniture	sofa	1	0	3	boats	4	correct	1.52168918133248
95267	1	stim186_inanimate_tools_hammer_2.png	186	inanimate	tools	hammer	2	0	3	boats	4	correct	1.52168918133248
95317	1	stim200_inanimate_tools_wrench_4.png	200	inanimate	tools	wrench	4	0	3	boats	4	correct	1.52168918133248
95367	1	stim144_inanimate_furniture_bed_4.png	144	inanimate	furniture	bed	4	0	3	boats	4	correct	1.52168918133248
95417	1	stim043_animate_human_baby_3.png	43	animate	human	baby	3	0	3	boats	4	correct	1.52168918133248
95467	1	stim111_inanimate_clothing_jeans_3.png	111	inanimate	clothing	jeans	3	0	3	boats	4	correct	1.52168918133248
95517	1	stim123_inanimate_fruits_apple_3.png	123	inanimate	fruits	apple	3	0	3	boats	4	correct	1.52168918133248
95567	1	stim177_inanimate_plants_tulip_1.png	177	inanimate	plants	tulip	1	0	3	boats	4	correct	1.52168918133248
95617	1	stim121_inanimate_fruits_apple_1.png	121	inanimate	fruits	apple	1	0	3	boats	4	correct	1.52168918133248
95667	1	stim025_animate_bird_duck_1.png	25	animate	bird	duck	1	0	3	boats	4	correct	1.52168918133248
95717	1	stim087_animate_mammal_giraffe_3.png	87	animate	mammal	giraffe	3	0	3	boats	4	correct	1.52168918133248
95767	1	stim077_animate_insect_grasshopper_1.png	77	animate	insect	grasshopper	1	0	3	boats	4	correct	1.52168918133248
95817	1	stim001_animate_aquatic_crab_1.png	1	animate	aquatic	crab	1	0	3	boats	4	correct	1.52168918133248
95867	1	stim010_animate_aquatic_seahorse_2.png	10	animate	aquatic	seahorse	2	0	3	boats	4	correct	1.52168918133248
95917	1	stim092_animate_mammal_kangaroo_4.png	92	animate	mammal	kangaroo	4	0	3	boats	4	correct	1.52168918133248
95967	1	stim174_inanimate_plants_tree_2.png	174	inanimate	plants	tree	2	0	3	boats	4	correct	1.52168918133248
96017	1	stim034_animate_bird_peacock_2.png	34	animate	bird	peacock	2	0	3	boats	4	correct	1.52168918133248
96067	1	stim100_animate_mammal_rhino_4.png	100	animate	mammal	rhino	4	0	3	boats	4	correct	1.52168918133248
96117	1	stim110_inanimate_clothing_jeans_2.png	110	inanimate	clothing	jeans	2	0	3	boats	4	correct	1.52168918133248
96167	1	stim012_animate_aquatic_seahorse_4.png	12	animate	aquatic	seahorse	4	0	3	boats	4	correct	1.52168918133248
96217	1	stim051_animate_human_clown_3.png	51	animate	human	clown	3	0	3	boats	4	correct	1.52168918133248
96267	1	stim114_inanimate_clothing_shirt_2.png	114	inanimate	clothing	shirt	2	0	3	boats	4	correct	1.52168918133248
96317	1	stim189_inanimate_tools_pan_1.png	189	inanimate	tools	pan	1	0	3	boats	4	correct	1.52168918133248
96367	1	stim133_inanimate_fruits_pineapple_1.png	133	inanimate	fruits	pineapple	1	0	3	boats	4	correct	1.52168918133248
96417	1	stim002_animate_aquatic_crab_2.png	2	animate	aquatic	crab	2	0	3	boats	4	correct	1.52168918133248
96467	1	stim040_animate_bird_penguin_4.png	40	animate	bird	penguin	4	0	3	boats	4	correct	1.52168918133248
96517	1	stim119_inanimate_clothing_socks_3.png	119	inanimate	clothing	socks	3	0	3	boats	4	correct	1.52168918133248
96567	1	stim117_inanimate_clothing_socks_1.png	117	inanimate	clothing	socks	1	0	3	boats	4	correct	1.52168918133248
96617	1	stim203_targets_object_boats_3.png	203	targets	object	boats	3	1	3	boats	4	correct	1.52168918133248
96667	1	stim084_animate_mammal_cow_4.png	84	animate	mammal	cow	4	0	3	boats	4	correct	1.52168918133248
96717	1	stim035_animate_bird_peacock_3.png	35	animate	bird	peacock	3	0	3	boats	4	correct	1.52168918133248
96767	1	stim063_animate_insect_ant_3.png	63	animate	insect	ant	3	0	3	boats	4	correct	1.52168918133248
96817	1	stim023_animate_bird_chicken_3.png	23	animate	bird	chicken	3	0	3	boats	4	correct	1.52168918133248
96867	1	stim098_animate_mammal_rhino_2.png	98	animate	mammal	rhino	2	0	3	boats	4	correct	1.52168918133248
96917	1	stim120_inanimate_clothing_socks_4.png	120	inanimate	clothing	socks	4	0	3	boats	4	correct	1.52168918133248
96967	1	stim107_inanimate_clothing_hat_3.png	107	inanimate	clothing	hat	3	0	3	boats	4	correct	1.52168918133248
97017	1	stim184_inanimate_tools_broom_4.png	184	inanimate	tools	broom	4	0	3	boats	4	correct	1.52168918133248
97067	1	stim167_inanimate_plants_cactus_3.png	167	inanimate	plants	cactus	3	0	3	boats	4	correct	1.52168918133248
97117	1	stim096_animate_mammal_monkey_4.png	96	animate	mammal	monkey	4	0	3	boats	4	correct	1.52168918133248
97167	1	stim095_animate_mammal_monkey_3.png	95	animate	mammal	monkey	3	0	3	boats	4	correct	1.52168918133248
97217	1	stim006_animate_aquatic_fish_2.png	6	animate	aquatic	fish	2	0	3	boats	4	correct	1.52168918133248
97267	1	stim066_animate_insect_bug_2.png	66	animate	insect	bug	2	0	3	boats	4	correct	1.52168918133248
97317	1	stim080_animate_insect_grasshopper_4.png	80	animate	insect	grasshopper	4	0	3	boats	4	correct	1.52168918133248
97367	1	stim047_animate_human_child_3.png	47	animate	human	child	3	0	3	boats	4	correct	1.52168918133248
97417	1	stim101_inanimate_clothing_gloves_1.png	101	inanimate	clothing	gloves	1	0	3	boats	4	correct	1.52168918133248
97467	1	stim164_inanimate_plants_bush_4.png	164	inanimate	plants	bush	4	0	3	boats	4	correct	1.52168918133248
97517	1	stim147_inanimate_furniture_chair_3.png	147	inanimate	furniture	chair	3	0	3	boats	4	correct	1.52168918133248
97567	1	stim182_inanimate_tools_broom_2.png	182	inanimate	tools	broom	2	0	3	boats	4	correct	1.52168918133248
97617	1	stim042_animate_human_baby_2.png	42	animate	human	baby	2	0	3	boats	4	correct	1.52168918133248
97667	1	stim017_animate_aquatic_shrimp_1.png	17	animate	aquatic	shrimp	1	0	3	boats	4	correct	1.52168918133248
97717	1	stim146_inanimate_furniture_chair_2.png	146	inanimate	furniture	chair	2	0	3	boats	4	correct	1.52168918133248
97767	1	stim033_animate_bird_peacock_1.png	33	animate	bird	peacock	1	0	3	boats	4	correct	1.52168918133248
97817	1	stim046_animate_human_child_2.png	46	animate	human	child	2	0	3	boats	4	correct	1.52168918133248
97867	1	stim039_animate_bird_penguin_3.png	39	animate	bird	penguin	3	0	3	boats	4	correct	1.52168918133248
97917	1	stim008_animate_aquatic_fish_4.png	8	animate	aquatic	fish	4	0	3	boats	4	correct	1.52168918133248
97967	1	stim135_inanimate_fruits_pineapple_3.png	135	inanimate	fruits	pineapple	3	0	3	boats	4	correct	1.52168918133248
98017	1	stim176_inanimate_plants_tree_4.png	176	inanimate	plants	tree	4	0	3	boats	4	correct	1.52168918133248
98067	1	stim011_animate_aquatic_seahorse_3.png	11	animate	aquatic	seahorse	3	0	3	boats	4	correct	1.52168918133248
98117	1	stim156_inanimate_furniture_sofa_4.png	156	inanimate	furniture	sofa	4	0	3	boats	4	correct	1.52168918133248
98167	1	stim009_animate_aquatic_seahorse_1.png	9	animate	aquatic	seahorse	1	0	3	boats	4	correct	1.52168918133248
98217	1	stim088_animate_mammal_giraffe_4.png	88	animate	mammal	giraffe	4	0	3	boats	4	correct	1.52168918133248
98267	1	stim044_animate_human_baby_4.png	44	animate	human	baby	4	0	3	boats	4	correct	1.52168918133248
98317	1	stim027_animate_bird_duck_3.png	27	animate	bird	duck	3	0	3	boats	4	correct	1.52168918133248
98367	1	stim086_animate_mammal_giraffe_2.png	86	animate	mammal	giraffe	2	0	3	boats	4	correct	1.52168918133248
98417	1	stim173_inanimate_plants_tree_1.png	173	inanimate	plants	tree	1	0	3	boats	4	correct	1.52168918133248
98467	1	stim157_inanimate_furniture_table_1.png	157	inanimate	furniture	table	1	0	3	boats	4	correct	1.52168918133248
98517	1	stim067_animate_insect_bug_3.png	67	animate	insect	bug	3	0	3	boats	4	correct	1.52168918133248
98567	1	stim142_inanimate_furniture_bed_2.png	142	inanimate	furniture	bed	2	0	3	boats	4	correct	1.52168918133248
98617	1	stim015_animate_aquatic_shark_3.png	15	animate	aquatic	shark	3	0	3	boats	4	correct	1.52168918133248
98667	1	stim079_animate_insect_grasshopper_3.png	79	animate	insect	grasshopper	3	0	3	boats	4	correct	1.52168918133248
98717	1	stim199_inanimate_tools_wrench_3.png	199	inanimate	tools	wrench	3	0	3	boats	4	correct	1.52168918133248
98767	1	stim059_animate_human_sports_3.png	59	animate	human	sports	3	0	3	boats	4	correct	1.52168918133248
98817	1	stim083_animate_mammal_cow_3.png	83	animate	mammal	cow	3	0	3	boats	4	correct	1.52168918133248
98867	1	stim194_inanimate_tools_scissors_2.png	194	inanimate	tools	scissors	2	0	3	boats	4	correct	1.52168918133248
98917	1	stim160_inanimate_furniture_table_4.png	160	inanimate	furniture	table	4	0	3	boats	4	correct	1.52168918133248
98967	1	stim038_animate_bird_penguin_2.png	38	animate	bird	penguin	2	0	3	boats	4	correct	1.52168918133248
99017	1	stim054_animate_human_faces_2.png	54	animate	human	faces	2	0	3	boats	4	correct	1.52168918133248
99067	1	stim126_inanimate_fruits_banana_2.png	126	inanimate	fruits	banana	2	0	3	boats	4	correct	1.52168918133248
105767	1	stim060_animate_human_sports_4.png	60	animate	human	sports	4	0	4	boats	2	incorrect	1.40533104352653
105817	1	stim141_inanimate_furniture_bed_1.png	141	inanimate	furniture	bed	1	0	4	boats	2	incorrect	1.40533104352653
105867	1	stim083_animate_mammal_cow_3.png	83	animate	mammal	cow	3	0	4	boats	2	incorrect	1.40533104352653
105917	1	stim018_animate_aquatic_shrimp_2.png	18	animate	aquatic	shrimp	2	0	4	boats	2	incorrect	1.40533104352653
105967	1	stim103_inanimate_clothing_gloves_3.png	103	inanimate	clothing	gloves	3	0	4	boats	2	incorrect	1.40533104352653
106017	1	stim180_inanimate_plants_tulip_4.png	180	inanimate	plants	tulip	4	0	4	boats	2	incorrect	1.40533104352653
106067	1	stim171_inanimate_plants_sunflower_3.png	171	inanimate	plants	sunflower	3	0	4	boats	2	incorrect	1.40533104352653
106117	1	stim025_animate_bird_duck_1.png	25	animate	bird	duck	1	0	4	boats	2	incorrect	1.40533104352653
106167	1	stim174_inanimate_plants_tree_2.png	174	inanimate	plants	tree	2	0	4	boats	2	incorrect	1.40533104352653
106217	1	stim102_inanimate_clothing_gloves_2.png	102	inanimate	clothing	gloves	2	0	4	boats	2	incorrect	1.40533104352653
106267	1	stim033_animate_bird_peacock_1.png	33	animate	bird	peacock	1	0	4	boats	2	incorrect	1.40533104352653
106317	1	stim040_animate_bird_penguin_4.png	40	animate	bird	penguin	4	0	4	boats	2	incorrect	1.40533104352653
106367	1	stim009_animate_aquatic_seahorse_1.png	9	animate	aquatic	seahorse	1	0	4	boats	2	incorrect	1.40533104352653
106417	1	stim077_animate_insect_grasshopper_1.png	77	animate	insect	grasshopper	1	0	4	boats	2	incorrect	1.40533104352653
106467	1	stim172_inanimate_plants_sunflower_4.png	172	inanimate	plants	sunflower	4	0	4	boats	2	incorrect	1.40533104352653
106517	1	stim165_inanimate_plants_cactus_1.png	165	inanimate	plants	cactus	1	0	4	boats	2	incorrect	1.40533104352653
106567	1	stim176_inanimate_plants_tree_4.png	176	inanimate	plants	tree	4	0	4	boats	2	incorrect	1.40533104352653
106617	1	stim169_inanimate_plants_sunflower_1.png	169	inanimate	plants	sunflower	1	0	4	boats	2	incorrect	1.40533104352653
106667	1	stim007_animate_aquatic_fish_3.png	7	animate	aquatic	fish	3	0	4	boats	2	incorrect	1.40533104352653
106717	1	stim098_animate_mammal_rhino_2.png	98	animate	mammal	rhino	2	0	4	boats	2	incorrect	1.40533104352653
106767	1	stim054_animate_human_faces_2.png	54	animate	human	faces	2	0	4	boats	2	incorrect	1.40533104352653
106817	1	stim005_animate_aquatic_fish_1.png	5	animate	aquatic	fish	1	0	4	boats	2	incorrect	1.40533104352653
106867	1	stim013_animate_aquatic_shark_1.png	13	animate	aquatic	shark	1	0	4	boats	2	incorrect	1.40533104352653
106917	1	stim097_animate_mammal_rhino_1.png	97	animate	mammal	rhino	1	0	4	boats	2	incorrect	1.40533104352653
106967	1	stim020_animate_aquatic_shrimp_4.png	20	animate	aquatic	shrimp	4	0	4	boats	2	incorrect	1.40533104352653
107017	1	stim059_animate_human_sports_3.png	59	animate	human	sports	3	0	4	boats	2	incorrect	1.40533104352653
107067	1	stim107_inanimate_clothing_hat_3.png	107	inanimate	clothing	hat	3	0	4	boats	2	incorrect	1.40533104352653
107117	1	stim099_animate_mammal_rhino_3.png	99	animate	mammal	rhino	3	0	4	boats	2	incorrect	1.40533104352653
107167	1	stim039_animate_bird_penguin_3.png	39	animate	bird	penguin	3	0	4	boats	2	incorrect	1.40533104352653
107217	1	stim085_animate_mammal_giraffe_1.png	85	animate	mammal	giraffe	1	0	4	boats	2	incorrect	1.40533104352653
107267	1	stim181_inanimate_tools_broom_1.png	181	inanimate	tools	broom	1	0	4	boats	2	incorrect	1.40533104352653
107317	1	stim081_animate_mammal_cow_1.png	81	animate	mammal	cow	1	0	4	boats	2	incorrect	1.40533104352653
107367	1	stim082_animate_mammal_cow_2.png	82	animate	mammal	cow	2	0	4	boats	2	incorrect	1.40533104352653
107417	1	stim190_inanimate_tools_pan_2.png	190	inanimate	tools	pan	2	0	4	boats	2	incorrect	1.40533104352653
107467	1	stim080_animate_insect_grasshopper_4.png	80	animate	insect	grasshopper	4	0	4	boats	2	incorrect	1.40533104352653
107517	1	stim128_inanimate_fruits_banana_4.png	128	inanimate	fruits	banana	4	0	4	boats	2	incorrect	1.40533104352653
107567	1	stim056_animate_human_faces_4.png	56	animate	human	faces	4	0	4	boats	2	incorrect	1.40533104352653
107617	1	stim157_inanimate_furniture_table_1.png	157	inanimate	furniture	table	1	0	4	boats	2	incorrect	1.40533104352653
107667	1	stim144_inanimate_furniture_bed_4.png	144	inanimate	furniture	bed	4	0	4	boats	2	incorrect	1.40533104352653
107717	1	stim073_animate_insect_dragonfly_1.png	73	animate	insect	dragonfly	1	0	4	boats	2	incorrect	1.40533104352653
107767	1	stim035_animate_bird_peacock_3.png	35	animate	bird	peacock	3	0	4	boats	2	incorrect	1.40533104352653
107817	1	stim053_animate_human_faces_1.png	53	animate	human	faces	1	0	4	boats	2	incorrect	1.40533104352653
107867	1	stim105_inanimate_clothing_hat_1.png	105	inanimate	clothing	hat	1	0	4	boats	2	incorrect	1.40533104352653
107917	1	stim019_animate_aquatic_shrimp_3.png	19	animate	aquatic	shrimp	3	0	4	boats	2	incorrect	1.40533104352653
107967	1	stim208_targets_object_boats_4.png	208	targets	object	boats	4	1	4	boats	2	incorrect	1.40533104352653
108017	1	stim076_animate_insect_dragonfly_4.png	76	animate	insect	dragonfly	4	0	4	boats	2	incorrect	1.40533104352653
108067	1	stim196_inanimate_tools_scissors_4.png	196	inanimate	tools	scissors	4	0	4	boats	2	incorrect	1.40533104352653
108117	1	stim179_inanimate_plants_tulip_3.png	179	inanimate	plants	tulip	3	0	4	boats	2	incorrect	1.40533104352653
108167	1	stim140_inanimate_fruits_strawberry_4.png	140	inanimate	fruits	strawberry	4	0	4	boats	2	incorrect	1.40533104352653
108217	1	stim052_animate_human_clown_4.png	52	animate	human	clown	4	0	4	boats	2	incorrect	1.40533104352653
108267	1	stim044_animate_human_baby_4.png	44	animate	human	baby	4	0	4	boats	2	incorrect	1.40533104352653
108317	1	stim026_animate_bird_duck_2.png	26	animate	bird	duck	2	0	4	boats	2	incorrect	1.40533104352653
108367	1	stim131_inanimate_fruits_grape_3.png	131	inanimate	fruits	grape	3	0	4	boats	2	incorrect	1.40533104352653
108417	1	stim087_animate_mammal_giraffe_3.png	87	animate	mammal	giraffe	3	0	4	boats	2	incorrect	1.40533104352653
108467	1	stim112_inanimate_clothing_jeans_4.png	112	inanimate	clothing	jeans	4	0	4	boats	2	incorrect	1.40533104352653
108517	1	stim106_inanimate_clothing_hat_2.png	106	inanimate	clothing	hat	2	0	4	boats	2	incorrect	1.40533104352653
108567	1	stim156_inanimate_furniture_sofa_4.png	156	inanimate	furniture	sofa	4	0	4	boats	2	incorrect	1.40533104352653
108617	1	stim192_inanimate_tools_pan_4.png	192	inanimate	tools	pan	4	0	4	boats	2	incorrect	1.40533104352653
108667	1	stim008_animate_aquatic_fish_4.png	8	animate	aquatic	fish	4	0	4	boats	2	incorrect	1.40533104352653
108717	1	stim001_animate_aquatic_crab_1.png	1	animate	aquatic	crab	1	0	4	boats	2	incorrect	1.40533104352653
108767	1	stim043_animate_human_baby_3.png	43	animate	human	baby	3	0	4	boats	2	incorrect	1.40533104352653
108817	1	stim194_inanimate_tools_scissors_2.png	194	inanimate	tools	scissors	2	0	4	boats	2	incorrect	1.40533104352653
108867	1	stim100_animate_mammal_rhino_4.png	100	animate	mammal	rhino	4	0	4	boats	2	incorrect	1.40533104352653
108917	1	stim034_animate_bird_peacock_2.png	34	animate	bird	peacock	2	0	4	boats	2	incorrect	1.40533104352653
108967	1	stim115_inanimate_clothing_shirt_3.png	115	inanimate	clothing	shirt	3	0	4	boats	2	incorrect	1.40533104352653
109017	1	stim042_animate_human_baby_2.png	42	animate	human	baby	2	0	4	boats	2	incorrect	1.40533104352653
109067	1	stim071_animate_insect_butterfly_3.png	71	animate	insect	butterfly	3	0	4	boats	2	incorrect	1.40533104352653
109117	1	stim145_inanimate_furniture_chair_1.png	145	inanimate	furniture	chair	1	0	4	boats	2	incorrect	1.40533104352653
109167	1	stim143_inanimate_furniture_bed_3.png	143	inanimate	furniture	bed	3	0	4	boats	2	incorrect	1.40533104352653
109217	1	stim011_animate_aquatic_seahorse_3.png	11	animate	aquatic	seahorse	3	0	4	boats	2	incorrect	1.40533104352653
109267	1	stim168_inanimate_plants_cactus_4.png	168	inanimate	plants	cactus	4	0	4	boats	2	incorrect	1.40533104352653
109317	1	stim108_inanimate_clothing_hat_4.png	108	inanimate	clothing	hat	4	0	4	boats	2	incorrect	1.40533104352653
109367	1	stim110_inanimate_clothing_jeans_2.png	110	inanimate	clothing	jeans	2	0	4	boats	2	incorrect	1.40533104352653
109417	1	stim004_animate_aquatic_crab_4.png	4	animate	aquatic	crab	4	0	4	boats	2	incorrect	1.40533104352653
109467	1	stim183_inanimate_tools_broom_3.png	183	inanimate	tools	broom	3	0	4	boats	2	incorrect	1.40533104352653
109517	1	stim142_inanimate_furniture_bed_2.png	142	inanimate	furniture	bed	2	0	4	boats	2	incorrect	1.40533104352653
109567	1	stim014_animate_aquatic_shark_2.png	14	animate	aquatic	shark	2	0	4	boats	2	incorrect	1.40533104352653
109617	1	stim155_inanimate_furniture_sofa_3.png	155	inanimate	furniture	sofa	3	0	4	boats	2	incorrect	1.40533104352653
109667	1	stim015_animate_aquatic_shark_3.png	15	animate	aquatic	shark	3	0	4	boats	2	incorrect	1.40533104352653
109717	1	stim066_animate_insect_bug_2.png	66	animate	insect	bug	2	0	4	boats	2	incorrect	1.40533104352653
109767	1	stim084_animate_mammal_cow_4.png	84	animate	mammal	cow	4	0	4	boats	2	incorrect	1.40533104352653
109817	1	stim003_animate_aquatic_crab_3.png	3	animate	aquatic	crab	3	0	4	boats	2	incorrect	1.40533104352653
109867	1	stim162_inanimate_plants_bush_2.png	162	inanimate	plants	bush	2	0	4	boats	2	incorrect	1.40533104352653
109917	1	stim207_targets_object_boats_3.png	207	targets	object	boats	3	1	4	boats	2	incorrect	1.40533104352653
109967	1	stim136_inanimate_fruits_pineapple_4.png	136	inanimate	fruits	pineapple	4	0	4	boats	2	incorrect	1.40533104352653
110017	1	stim031_animate_bird_parrot_3.png	31	animate	bird	parrot	3	0	4	boats	2	incorrect	1.40533104352653
110067	1	stim118_inanimate_clothing_socks_2.png	118	inanimate	clothing	socks	2	0	4	boats	2	incorrect	1.40533104352653
110117	1	stim023_animate_bird_chicken_3.png	23	animate	bird	chicken	3	0	4	boats	2	incorrect	1.40533104352653
110167	1	stim123_inanimate_fruits_apple_3.png	123	inanimate	fruits	apple	3	0	4	boats	2	incorrect	1.40533104352653
110217	1	stim167_inanimate_plants_cactus_3.png	167	inanimate	plants	cactus	3	0	4	boats	2	incorrect	1.40533104352653
110267	1	stim048_animate_human_child_4.png	48	animate	human	child	4	0	4	boats	2	incorrect	1.40533104352653
110317	1	stim199_inanimate_tools_wrench_3.png	199	inanimate	tools	wrench	3	0	4	boats	2	incorrect	1.40533104352653
110367	1	stim152_inanimate_furniture_closet_4.png	152	inanimate	furniture	closet	4	0	4	boats	2	incorrect	1.40533104352653
110417	1	stim050_animate_human_clown_2.png	50	animate	human	clown	2	0	4	boats	2	incorrect	1.40533104352653
110467	1	stim069_animate_insect_butterfly_1.png	69	animate	insect	butterfly	1	0	4	boats	2	incorrect	1.40533104352653
110517	1	stim133_inanimate_fruits_pineapple_1.png	133	inanimate	fruits	pineapple	1	0	4	boats	2	incorrect	1.40533104352653
110567	1	stim116_inanimate_clothing_shirt_4.png	116	inanimate	clothing	shirt	4	0	4	boats	2	incorrect	1.40533104352653
110617	1	stim012_animate_aquatic_seahorse_4.png	12	animate	aquatic	seahorse	4	0	4	boats	2	incorrect	1.40533104352653
110667	1	stim177_inanimate_plants_tulip_1.png	177	inanimate	plants	tulip	1	0	4	boats	2	incorrect	1.40533104352653
110717	1	stim197_inanimate_tools_wrench_1.png	197	inanimate	tools	wrench	1	0	4	boats	2	incorrect	1.40533104352653
110767	1	stim130_inanimate_fruits_grape_2.png	130	inanimate	fruits	grape	2	0	4	boats	2	incorrect	1.40533104352653
110817	1	stim064_animate_insect_ant_4.png	64	animate	insect	ant	4	0	4	boats	2	incorrect	1.40533104352653
110867	1	stim134_inanimate_fruits_pineapple_2.png	134	inanimate	fruits	pineapple	2	0	4	boats	2	incorrect	1.40533104352653
110917	1	stim182_inanimate_tools_broom_2.png	182	inanimate	tools	broom	2	0	4	boats	2	incorrect	1.40533104352653
110967	1	stim187_inanimate_tools_hammer_3.png	187	inanimate	tools	hammer	3	0	4	boats	2	incorrect	1.40533104352653
111017	1	stim195_inanimate_tools_scissors_3.png	195	inanimate	tools	scissors	3	0	4	boats	2	incorrect	1.40533104352653
111067	1	stim170_inanimate_plants_sunflower_2.png	170	inanimate	plants	sunflower	2	0	4	boats	2	incorrect	1.40533104352653
111117	1	stim075_animate_insect_dragonfly_3.png	75	animate	insect	dragonfly	3	0	4	boats	2	incorrect	1.40533104352653
111167	1	stim200_inanimate_tools_wrench_4.png	200	inanimate	tools	wrench	4	0	4	boats	2	incorrect	1.40533104352653
111217	1	stim120_inanimate_clothing_socks_4.png	120	inanimate	clothing	socks	4	0	4	boats	2	incorrect	1.40533104352653
111267	1	stim078_animate_insect_grasshopper_2.png	78	animate	insect	grasshopper	2	0	4	boats	2	incorrect	1.40533104352653
111317	1	stim137_inanimate_fruits_strawberry_1.png	137	inanimate	fruits	strawberry	1	0	4	boats	2	incorrect	1.40533104352653
111367	1	stim068_animate_insect_bug_4.png	68	animate	insect	bug	4	0	4	boats	2	incorrect	1.40533104352653
111417	1	stim028_animate_bird_duck_4.png	28	animate	bird	duck	4	0	4	boats	2	incorrect	1.40533104352653
111467	1	stim104_inanimate_clothing_gloves_4.png	104	inanimate	clothing	gloves	4	0	4	boats	2	incorrect	1.40533104352653
111517	1	stim163_inanimate_plants_bush_3.png	163	inanimate	plants	bush	3	0	4	boats	2	incorrect	1.40533104352653
111567	1	stim206_targets_object_boats_2.png	206	targets	object	boats	2	1	4	boats	2	incorrect	1.40533104352653
111617	1	stim159_inanimate_furniture_table_3.png	159	inanimate	furniture	table	3	0	4	boats	2	incorrect	1.40533104352653
111667	1	stim166_inanimate_plants_cactus_2.png	166	inanimate	plants	cactus	2	0	4	boats	2	incorrect	1.40533104352653
111717	1	stim184_inanimate_tools_broom_4.png	184	inanimate	tools	broom	4	0	4	boats	2	incorrect	1.40533104352653
111767	1	stim062_animate_insect_ant_2.png	62	animate	insect	ant	2	0	4	boats	2	incorrect	1.40533104352653
111817	1	stim032_animate_bird_parrot_4.png	32	animate	bird	parrot	4	0	4	boats	2	incorrect	1.40533104352653
111867	1	stim002_animate_aquatic_crab_2.png	2	animate	aquatic	crab	2	0	4	boats	2	incorrect	1.40533104352653
111917	1	stim006_animate_aquatic_fish_2.png	6	animate	aquatic	fish	2	0	4	boats	2	incorrect	1.40533104352653
111967	1	stim038_animate_bird_penguin_2.png	38	animate	bird	penguin	2	0	4	boats	2	incorrect	1.40533104352653
112017	1	stim010_animate_aquatic_seahorse_2.png	10	animate	aquatic	seahorse	2	0	4	boats	2	incorrect	1.40533104352653
112067	1	stim096_animate_mammal_monkey_4.png	96	animate	mammal	monkey	4	0	4	boats	2	incorrect	1.40533104352653
112117	1	stim092_animate_mammal_kangaroo_4.png	92	animate	mammal	kangaroo	4	0	4	boats	2	incorrect	1.40533104352653
112167	1	stim138_inanimate_fruits_strawberry_2.png	138	inanimate	fruits	strawberry	2	0	4	boats	2	incorrect	1.40533104352653
112217	1	stim095_animate_mammal_monkey_3.png	95	animate	mammal	monkey	3	0	4	boats	2	incorrect	1.40533104352653
112267	1	stim024_animate_bird_chicken_4.png	24	animate	bird	chicken	4	0	4	boats	2	incorrect	1.40533104352653
112317	1	stim109_inanimate_clothing_jeans_1.png	109	inanimate	clothing	jeans	1	0	4	boats	2	incorrect	1.40533104352653
112367	1	stim091_animate_mammal_kangaroo_3.png	91	animate	mammal	kangaroo	3	0	4	boats	2	incorrect	1.40533104352653
112417	1	stim164_inanimate_plants_bush_4.png	164	inanimate	plants	bush	4	0	4	boats	2	incorrect	1.40533104352653
112467	1	stim022_animate_bird_chicken_2.png	22	animate	bird	chicken	2	0	4	boats	2	incorrect	1.40533104352653
112517	1	stim178_inanimate_plants_tulip_2.png	178	inanimate	plants	tulip	2	0	4	boats	2	incorrect	1.40533104352653
112567	1	stim045_animate_human_child_1.png	45	animate	human	child	1	0	4	boats	2	incorrect	1.40533104352653
112617	1	stim114_inanimate_clothing_shirt_2.png	114	inanimate	clothing	shirt	2	0	4	boats	2	incorrect	1.40533104352653
112667	1	stim029_animate_bird_parrot_1.png	29	animate	bird	parrot	1	0	4	boats	2	incorrect	1.40533104352653
112717	1	stim191_inanimate_tools_pan_3.png	191	inanimate	tools	pan	3	0	4	boats	2	incorrect	1.40533104352653
112767	1	stim049_animate_human_clown_1.png	49	animate	human	clown	1	0	4	boats	2	incorrect	1.40533104352653
112817	1	stim017_animate_aquatic_shrimp_1.png	17	animate	aquatic	shrimp	1	0	4	boats	2	incorrect	1.40533104352653
112867	1	stim111_inanimate_clothing_jeans_3.png	111	inanimate	clothing	jeans	3	0	4	boats	2	incorrect	1.40533104352653
112917	1	stim204_targets_object_boats_4.png	204	targets	object	boats	4	1	4	boats	2	incorrect	1.40533104352653
112967	1	stim122_inanimate_fruits_apple_2.png	122	inanimate	fruits	apple	2	0	4	boats	2	incorrect	1.40533104352653
113017	1	stim125_inanimate_fruits_banana_1.png	125	inanimate	fruits	banana	1	0	4	boats	2	incorrect	1.40533104352653
113067	1	stim041_animate_human_baby_1.png	41	animate	human	baby	1	0	4	boats	2	incorrect	1.40533104352653
113117	1	stim146_inanimate_furniture_chair_2.png	146	inanimate	furniture	chair	2	0	4	boats	2	incorrect	1.40533104352653
113167	1	stim127_inanimate_fruits_banana_3.png	127	inanimate	fruits	banana	3	0	4	boats	2	incorrect	1.40533104352653
113217	1	stim067_animate_insect_bug_3.png	67	animate	insect	bug	3	0	4	boats	2	incorrect	1.40533104352653
113267	1	stim132_inanimate_fruits_grape_4.png	132	inanimate	fruits	grape	4	0	4	boats	2	incorrect	1.40533104352653
113317	1	stim037_animate_bird_penguin_1.png	37	animate	bird	penguin	1	0	4	boats	2	incorrect	1.40533104352653
113367	1	stim030_animate_bird_parrot_2.png	30	animate	bird	parrot	2	0	4	boats	2	incorrect	1.40533104352653
113417	1	stim088_animate_mammal_giraffe_4.png	88	animate	mammal	giraffe	4	0	4	boats	2	incorrect	1.40533104352653
113467	1	stim175_inanimate_plants_tree_3.png	175	inanimate	plants	tree	3	0	4	boats	2	incorrect	1.40533104352653
113517	1	stim158_inanimate_furniture_table_2.png	158	inanimate	furniture	table	2	0	4	boats	2	incorrect	1.40533104352653
113567	1	stim185_inanimate_tools_hammer_1.png	185	inanimate	tools	hammer	1	0	4	boats	2	incorrect	1.40533104352653
113617	1	stim117_inanimate_clothing_socks_1.png	117	inanimate	clothing	socks	1	0	4	boats	2	incorrect	1.40533104352653
113667	1	stim051_animate_human_clown_3.png	51	animate	human	clown	3	0	4	boats	2	incorrect	1.40533104352653
113717	1	stim147_inanimate_furniture_chair_3.png	147	inanimate	furniture	chair	3	0	4	boats	2	incorrect	1.40533104352653
113767	1	stim070_animate_insect_butterfly_2.png	70	animate	insect	butterfly	2	0	4	boats	2	incorrect	1.40533104352653
113817	1	stim047_animate_human_child_3.png	47	animate	human	child	3	0	4	boats	2	incorrect	1.40533104352653
113867	1	stim148_inanimate_furniture_chair_4.png	148	inanimate	furniture	chair	4	0	4	boats	2	incorrect	1.40533104352653
113917	1	stim161_inanimate_plants_bush_1.png	161	inanimate	plants	bush	1	0	4	boats	2	incorrect	1.40533104352653
113967	1	stim154_inanimate_furniture_sofa_2.png	154	inanimate	furniture	sofa	2	0	4	boats	2	incorrect	1.40533104352653
114017	1	stim151_inanimate_furniture_closet_3.png	151	inanimate	furniture	closet	3	0	4	boats	2	incorrect	1.40533104352653
114067	1	stim046_animate_human_child_2.png	46	animate	human	child	2	0	4	boats	2	incorrect	1.40533104352653
114117	1	stim124_inanimate_fruits_apple_4.png	124	inanimate	fruits	apple	4	0	4	boats	2	incorrect	1.40533104352653
114167	1	stim065_animate_insect_bug_1.png	65	animate	insect	bug	1	0	4	boats	2	incorrect	1.40533104352653
114217	1	stim089_animate_mammal_kangaroo_1.png	89	animate	mammal	kangaroo	1	0	4	boats	2	incorrect	1.40533104352653
114267	1	stim186_inanimate_tools_hammer_2.png	186	inanimate	tools	hammer	2	0	4	boats	2	incorrect	1.40533104352653
114317	1	stim094_animate_mammal_monkey_2.png	94	animate	mammal	monkey	2	0	4	boats	2	incorrect	1.40533104352653
114367	1	stim057_animate_human_sports_1.png	57	animate	human	sports	1	0	4	boats	2	incorrect	1.40533104352653
114417	1	stim074_animate_insect_dragonfly_2.png	74	animate	insect	dragonfly	2	0	4	boats	2	incorrect	1.40533104352653
114467	1	stim119_inanimate_clothing_socks_3.png	119	inanimate	clothing	socks	3	0	4	boats	2	incorrect	1.40533104352653
114517	1	stim121_inanimate_fruits_apple_1.png	121	inanimate	fruits	apple	1	0	4	boats	2	incorrect	1.40533104352653
114567	1	stim173_inanimate_plants_tree_1.png	173	inanimate	plants	tree	1	0	4	boats	2	incorrect	1.40533104352653
114617	1	stim135_inanimate_fruits_pineapple_3.png	135	inanimate	fruits	pineapple	3	0	4	boats	2	incorrect	1.40533104352653
114667	1	stim016_animate_aquatic_shark_4.png	16	animate	aquatic	shark	4	0	4	boats	2	incorrect	1.40533104352653
114717	1	stim027_animate_bird_duck_3.png	27	animate	bird	duck	3	0	4	boats	2	incorrect	1.40533104352653
114767	1	stim129_inanimate_fruits_grape_1.png	129	inanimate	fruits	grape	1	0	4	boats	2	incorrect	1.40533104352653
114817	1	stim058_animate_human_sports_2.png	58	animate	human	sports	2	0	4	boats	2	incorrect	1.40533104352653
114867	1	stim149_inanimate_furniture_closet_1.png	149	inanimate	furniture	closet	1	0	4	boats	2	incorrect	1.40533104352653
114917	1	stim063_animate_insect_ant_3.png	63	animate	insect	ant	3	0	4	boats	2	incorrect	1.40533104352653
114967	1	stim189_inanimate_tools_pan_1.png	189	inanimate	tools	pan	1	0	4	boats	2	incorrect	1.40533104352653
115017	1	stim150_inanimate_furniture_closet_2.png	150	inanimate	furniture	closet	2	0	4	boats	2	incorrect	1.40533104352653
115067	1	stim139_inanimate_fruits_strawberry_3.png	139	inanimate	fruits	strawberry	3	0	4	boats	2	incorrect	1.40533104352653
115117	1	stim086_animate_mammal_giraffe_2.png	86	animate	mammal	giraffe	2	0	4	boats	2	incorrect	1.40533104352653
115167	1	stim188_inanimate_tools_hammer_4.png	188	inanimate	tools	hammer	4	0	4	boats	2	incorrect	1.40533104352653
115217	1	stim090_animate_mammal_kangaroo_2.png	90	animate	mammal	kangaroo	2	0	4	boats	2	incorrect	1.40533104352653
115267	1	stim113_inanimate_clothing_shirt_1.png	113	inanimate	clothing	shirt	1	0	4	boats	2	incorrect	1.40533104352653
115317	1	stim055_animate_human_faces_3.png	55	animate	human	faces	3	0	4	boats	2	incorrect	1.40533104352653
115367	1	stim101_inanimate_clothing_gloves_1.png	101	inanimate	clothing	gloves	1	0	4	boats	2	incorrect	1.40533104352653
115417	1	stim036_animate_bird_peacock_4.png	36	animate	bird	peacock	4	0	4	boats	2	incorrect	1.40533104352653
115467	1	stim093_animate_mammal_monkey_1.png	93	animate	mammal	monkey	1	0	4	boats	2	incorrect	1.40533104352653
115517	1	stim126_inanimate_fruits_banana_2.png	126	inanimate	fruits	banana	2	0	4	boats	2	incorrect	1.40533104352653
115567	1	stim153_inanimate_furniture_sofa_1.png	153	inanimate	furniture	sofa	1	0	4	boats	2	incorrect	1.40533104352653
115617	1	stim160_inanimate_furniture_table_4.png	160	inanimate	furniture	table	4	0	4	boats	2	incorrect	1.40533104352653
115667	1	stim072_animate_insect_butterfly_4.png	72	animate	insect	butterfly	4	0	4	boats	2	incorrect	1.40533104352653
115717	1	stim198_inanimate_tools_wrench_2.png	198	inanimate	tools	wrench	2	0	4	boats	2	incorrect	1.40533104352653
115767	1	stim079_animate_insect_grasshopper_3.png	79	animate	insect	grasshopper	3	0	4	boats	2	incorrect	1.40533104352653
115817	1	stim061_animate_insect_ant_1.png	61	animate	insect	ant	1	0	4	boats	2	incorrect	1.40533104352653
115867	1	stim021_animate_bird_chicken_1.png	21	animate	bird	chicken	1	0	4	boats	2	incorrect	1.40533104352653
115917	1	stim193_inanimate_tools_scissors_1.png	193	inanimate	tools	scissors	1	0	4	boats	2	incorrect	1.40533104352653
122517	1	stim019_animate_aquatic_shrimp_3.png	19	animate	aquatic	shrimp	3	0	5	stars	3	correct	1.62789435544983
122567	1	stim001_animate_aquatic_crab_1.png	1	animate	aquatic	crab	1	0	5	stars	3	correct	1.62789435544983
122617	1	stim114_inanimate_clothing_shirt_2.png	114	inanimate	clothing	shirt	2	0	5	stars	3	correct	1.62789435544983
122667	1	stim111_inanimate_clothing_jeans_3.png	111	inanimate	clothing	jeans	3	0	5	stars	3	correct	1.62789435544983
122717	1	stim077_animate_insect_grasshopper_1.png	77	animate	insect	grasshopper	1	0	5	stars	3	correct	1.62789435544983
122767	1	stim186_inanimate_tools_hammer_2.png	186	inanimate	tools	hammer	2	0	5	stars	3	correct	1.62789435544983
122817	1	stim163_inanimate_plants_bush_3.png	163	inanimate	plants	bush	3	0	5	stars	3	correct	1.62789435544983
122867	1	stim178_inanimate_plants_tulip_2.png	178	inanimate	plants	tulip	2	0	5	stars	3	correct	1.62789435544983
122917	1	stim117_inanimate_clothing_socks_1.png	117	inanimate	clothing	socks	1	0	5	stars	3	correct	1.62789435544983
122967	1	stim018_animate_aquatic_shrimp_2.png	18	animate	aquatic	shrimp	2	0	5	stars	3	correct	1.62789435544983
123017	1	stim166_inanimate_plants_cactus_2.png	166	inanimate	plants	cactus	2	0	5	stars	3	correct	1.62789435544983
123067	1	stim041_animate_human_baby_1.png	41	animate	human	baby	1	0	5	stars	3	correct	1.62789435544983
123117	1	stim036_animate_bird_peacock_4.png	36	animate	bird	peacock	4	0	5	stars	3	correct	1.62789435544983
123167	1	stim082_animate_mammal_cow_2.png	82	animate	mammal	cow	2	0	5	stars	3	correct	1.62789435544983
123217	1	stim109_inanimate_clothing_jeans_1.png	109	inanimate	clothing	jeans	1	0	5	stars	3	correct	1.62789435544983
123267	1	stim011_animate_aquatic_seahorse_3.png	11	animate	aquatic	seahorse	3	0	5	stars	3	correct	1.62789435544983
123317	1	stim089_animate_mammal_kangaroo_1.png	89	animate	mammal	kangaroo	1	0	5	stars	3	correct	1.62789435544983
123367	1	stim112_inanimate_clothing_jeans_4.png	112	inanimate	clothing	jeans	4	0	5	stars	3	correct	1.62789435544983
123417	1	stim070_animate_insect_butterfly_2.png	70	animate	insect	butterfly	2	0	5	stars	3	correct	1.62789435544983
123467	1	stim058_animate_human_sports_2.png	58	animate	human	sports	2	0	5	stars	3	correct	1.62789435544983
123517	1	stim131_inanimate_fruits_grape_3.png	131	inanimate	fruits	grape	3	0	5	stars	3	correct	1.62789435544983
123567	1	stim056_animate_human_faces_4.png	56	animate	human	faces	4	0	5	stars	3	correct	1.62789435544983
123617	1	stim184_inanimate_tools_broom_4.png	184	inanimate	tools	broom	4	0	5	stars	3	correct	1.62789435544983
123667	1	stim119_inanimate_clothing_socks_3.png	119	inanimate	clothing	socks	3	0	5	stars	3	correct	1.62789435544983
123717	1	stim151_inanimate_furniture_closet_3.png	151	inanimate	furniture	closet	3	0	5	stars	3	correct	1.62789435544983
123767	1	stim197_inanimate_tools_wrench_1.png	197	inanimate	tools	wrench	1	0	5	stars	3	correct	1.62789435544983
123817	1	stim152_inanimate_furniture_closet_4.png	152	inanimate	furniture	closet	4	0	5	stars	3	correct	1.62789435544983
123867	1	stim182_inanimate_tools_broom_2.png	182	inanimate	tools	broom	2	0	5	stars	3	correct	1.62789435544983
123917	1	stim134_inanimate_fruits_pineapple_2.png	134	inanimate	fruits	pineapple	2	0	5	stars	3	correct	1.62789435544983
123967	1	stim103_inanimate_clothing_gloves_3.png	103	inanimate	clothing	gloves	3	0	5	stars	3	correct	1.62789435544983
124017	1	stim127_inanimate_fruits_banana_3.png	127	inanimate	fruits	banana	3	0	5	stars	3	correct	1.62789435544983
124067	1	stim015_animate_aquatic_shark_3.png	15	animate	aquatic	shark	3	0	5	stars	3	correct	1.62789435544983
124117	1	stim193_inanimate_tools_scissors_1.png	193	inanimate	tools	scissors	1	0	5	stars	3	correct	1.62789435544983
124167	1	stim014_animate_aquatic_shark_2.png	14	animate	aquatic	shark	2	0	5	stars	3	correct	1.62789435544983
124217	1	stim040_animate_bird_penguin_4.png	40	animate	bird	penguin	4	0	5	stars	3	correct	1.62789435544983
124267	1	stim025_animate_bird_duck_1.png	25	animate	bird	duck	1	0	5	stars	3	correct	1.62789435544983
124317	1	stim140_inanimate_fruits_strawberry_4.png	140	inanimate	fruits	strawberry	4	0	5	stars	3	correct	1.62789435544983
124367	1	stim052_animate_human_clown_4.png	52	animate	human	clown	4	0	5	stars	3	correct	1.62789435544983
124417	1	stim003_animate_aquatic_crab_3.png	3	animate	aquatic	crab	3	0	5	stars	3	correct	1.62789435544983
124467	1	stim004_animate_aquatic_crab_4.png	4	animate	aquatic	crab	4	0	5	stars	3	correct	1.62789435544983
124517	1	stim132_inanimate_fruits_grape_4.png	132	inanimate	fruits	grape	4	0	5	stars	3	correct	1.62789435544983
124567	1	stim165_inanimate_plants_cactus_1.png	165	inanimate	plants	cactus	1	0	5	stars	3	correct	1.62789435544983
124617	1	stim125_inanimate_fruits_banana_1.png	125	inanimate	fruits	banana	1	0	5	stars	3	correct	1.62789435544983
124667	1	stim093_animate_mammal_monkey_1.png	93	animate	mammal	monkey	1	0	5	stars	3	correct	1.62789435544983
124717	1	stim026_animate_bird_duck_2.png	26	animate	bird	duck	2	0	5	stars	3	correct	1.62789435544983
124767	1	stim126_inanimate_fruits_banana_2.png	126	inanimate	fruits	banana	2	0	5	stars	3	correct	1.62789435544983
124817	1	stim118_inanimate_clothing_socks_2.png	118	inanimate	clothing	socks	2	0	5	stars	3	correct	1.62789435544983
124867	1	stim170_inanimate_plants_sunflower_2.png	170	inanimate	plants	sunflower	2	0	5	stars	3	correct	1.62789435544983
124917	1	stim035_animate_bird_peacock_3.png	35	animate	bird	peacock	3	0	5	stars	3	correct	1.62789435544983
124967	1	stim209_targets_shapes_star_1.png	209	targets	shapes	star	1	1	5	stars	3	correct	1.62789435544983
125017	1	stim024_animate_bird_chicken_4.png	24	animate	bird	chicken	4	0	5	stars	3	correct	1.62789435544983
125067	1	stim060_animate_human_sports_4.png	60	animate	human	sports	4	0	5	stars	3	correct	1.62789435544983
125117	1	stim055_animate_human_faces_3.png	55	animate	human	faces	3	0	5	stars	3	correct	1.62789435544983
125167	1	stim133_inanimate_fruits_pineapple_1.png	133	inanimate	fruits	pineapple	1	0	5	stars	3	correct	1.62789435544983
125217	1	stim164_inanimate_plants_bush_4.png	164	inanimate	plants	bush	4	0	5	stars	3	correct	1.62789435544983
125267	1	stim138_inanimate_fruits_strawberry_2.png	138	inanimate	fruits	strawberry	2	0	5	stars	3	correct	1.62789435544983
125317	1	stim062_animate_insect_ant_2.png	62	animate	insect	ant	2	0	5	stars	3	correct	1.62789435544983
125367	1	stim064_animate_insect_ant_4.png	64	animate	insect	ant	4	0	5	stars	3	correct	1.62789435544983
125417	1	stim108_inanimate_clothing_hat_4.png	108	inanimate	clothing	hat	4	0	5	stars	3	correct	1.62789435544983
125467	1	stim181_inanimate_tools_broom_1.png	181	inanimate	tools	broom	1	0	5	stars	3	correct	1.62789435544983
125517	1	stim179_inanimate_plants_tulip_3.png	179	inanimate	plants	tulip	3	0	5	stars	3	correct	1.62789435544983
125567	1	stim141_inanimate_furniture_bed_1.png	141	inanimate	furniture	bed	1	0	5	stars	3	correct	1.62789435544983
125617	1	stim085_animate_mammal_giraffe_1.png	85	animate	mammal	giraffe	1	0	5	stars	3	correct	1.62789435544983
125667	1	stim050_animate_human_clown_2.png	50	animate	human	clown	2	0	5	stars	3	correct	1.62789435544983
125717	1	stim194_inanimate_tools_scissors_2.png	194	inanimate	tools	scissors	2	0	5	stars	3	correct	1.62789435544983
125767	1	stim198_inanimate_tools_wrench_2.png	198	inanimate	tools	wrench	2	0	5	stars	3	correct	1.62789435544983
125817	1	stim002_animate_aquatic_crab_2.png	2	animate	aquatic	crab	2	0	5	stars	3	correct	1.62789435544983
125867	1	stim080_animate_insect_grasshopper_4.png	80	animate	insect	grasshopper	4	0	5	stars	3	correct	1.62789435544983
125917	1	stim146_inanimate_furniture_chair_2.png	146	inanimate	furniture	chair	2	0	5	stars	3	correct	1.62789435544983
125967	1	stim078_animate_insect_grasshopper_2.png	78	animate	insect	grasshopper	2	0	5	stars	3	correct	1.62789435544983
126017	1	stim086_animate_mammal_giraffe_2.png	86	animate	mammal	giraffe	2	0	5	stars	3	correct	1.62789435544983
126067	1	stim006_animate_aquatic_fish_2.png	6	animate	aquatic	fish	2	0	5	stars	3	correct	1.62789435544983
126117	1	stim048_animate_human_child_4.png	48	animate	human	child	4	0	5	stars	3	correct	1.62789435544983
126167	1	stim156_inanimate_furniture_sofa_4.png	156	inanimate	furniture	sofa	4	0	5	stars	3	correct	1.62789435544983
126217	1	stim130_inanimate_fruits_grape_2.png	130	inanimate	fruits	grape	2	0	5	stars	3	correct	1.62789435544983
126267	1	stim162_inanimate_plants_bush_2.png	162	inanimate	plants	bush	2	0	5	stars	3	correct	1.62789435544983
126317	1	stim037_animate_bird_penguin_1.png	37	animate	bird	penguin	1	0	5	stars	3	correct	1.62789435544983
126367	1	stim053_animate_human_faces_1.png	53	animate	human	faces	1	0	5	stars	3	correct	1.62789435544983
126417	1	stim128_inanimate_fruits_banana_4.png	128	inanimate	fruits	banana	4	0	5	stars	3	correct	1.62789435544983
126467	1	stim196_inanimate_tools_scissors_4.png	196	inanimate	tools	scissors	4	0	5	stars	3	correct	1.62789435544983
126517	1	stim005_animate_aquatic_fish_1.png	5	animate	aquatic	fish	1	0	5	stars	3	correct	1.62789435544983
126567	1	stim143_inanimate_furniture_bed_3.png	143	inanimate	furniture	bed	3	0	5	stars	3	correct	1.62789435544983
126617	1	stim100_animate_mammal_rhino_4.png	100	animate	mammal	rhino	4	0	5	stars	3	correct	1.62789435544983
126667	1	stim067_animate_insect_bug_3.png	67	animate	insect	bug	3	0	5	stars	3	correct	1.62789435544983
126717	1	stim183_inanimate_tools_broom_3.png	183	inanimate	tools	broom	3	0	5	stars	3	correct	1.62789435544983
