onset	duration	stimulusname	stimulusnumber	levelA	levelB	levelC	withinexemplarnumber	istarget	trialnumber	condition	response	correct	rt
199731	1	stim104_inanimate_clothing_gloves_4.png	104	inanimate	clothing	gloves	4	0	1	boats	3	incorrect	2.70047598960809
199931	1	stim066_animate_insect_bug_2.png	66	animate	insect	bug	2	0	1	boats	3	incorrect	2.70047598960809
200131	1	stim035_animate_bird_peacock_3.png	35	animate	bird	peacock	3	0	1	boats	3	incorrect	2.70047598960809
200331	1	stim013_animate_aquatic_shark_1.png	13	animate	aquatic	shark	1	0	1	boats	3	incorrect	2.70047598960809
200531	1	stim081_animate_mammal_cow_1.png	81	animate	mammal	cow	1	0	1	boats	3	incorrect	2.70047598960809
200731	1	stim154_inanimate_furniture_sofa_2.png	154	inanimate	furniture	sofa	2	0	1	boats	3	incorrect	2.70047598960809
200931	1	stim015_animate_aquatic_shark_3.png	15	animate	aquatic	shark	3	0	1	boats	3	incorrect	2.70047598960809
201131	1	stim134_inanimate_fruits_pineapple_2.png	134	inanimate	fruits	pineapple	2	0	1	boats	3	incorrect	2.70047598960809
201331	1	stim038_animate_bird_penguin_2.png	38	animate	bird	penguin	2	0	1	boats	3	incorrect	2.70047598960809
201531	1	stim131_inanimate_fruits_grape_3.png	131	inanimate	fruits	grape	3	0	1	boats	3	incorrect	2.70047598960809
201731	1	stim087_animate_mammal_giraffe_3.png	87	animate	mammal	giraffe	3	0	1	boats	3	incorrect	2.70047598960809
201931	1	stim184_inanimate_tools_broom_4.png	184	inanimate	tools	broom	4	0	1	boats	3	incorrect	2.70047598960809
202131	1	stim026_animate_bird_duck_2.png	26	animate	bird	duck	2	0	1	boats	3	incorrect	2.70047598960809
202331	1	stim182_inanimate_tools_broom_2.png	182	inanimate	tools	broom	2	0	1	boats	3	incorrect	2.70047598960809
202531	1	stim133_inanimate_fruits_pineapple_1.png	133	inanimate	fruits	pineapple	1	0	1	boats	3	incorrect	2.70047598960809
202731	1	stim022_animate_bird_chicken_2.png	22	animate	bird	chicken	2	0	1	boats	3	incorrect	2.70047598960809
202931	1	stim123_inanimate_fruits_apple_3.png	123	inanimate	fruits	apple	3	0	1	boats	3	incorrect	2.70047598960809
203131	1	stim190_inanimate_tools_pan_2.png	190	inanimate	tools	pan	2	0	1	boats	3	incorrect	2.70047598960809
203331	1	stim030_animate_bird_parrot_2.png	30	animate	bird	parrot	2	0	1	boats	3	incorrect	2.70047598960809
203531	1	stim050_animate_human_clown_2.png	50	animate	human	clown	2	0	1	boats	3	incorrect	2.70047598960809
203731	1	stim181_inanimate_tools_broom_1.png	181	inanimate	tools	broom	1	0	1	boats	3	incorrect	2.70047598960809
203931	1	stim174_inanimate_plants_tree_2.png	174	inanimate	plants	tree	2	0	1	boats	3	incorrect	2.70047598960809
204131	1	stim048_animate_human_child_4.png	48	animate	human	child	4	0	1	boats	3	incorrect	2.70047598960809
204331	1	stim065_animate_insect_bug_1.png	65	animate	insect	bug	1	0	1	boats	3	incorrect	2.70047598960809
204531	1	stim062_animate_insect_ant_2.png	62	animate	insect	ant	2	0	1	boats	3	incorrect	2.70047598960809
204731	1	stim003_animate_aquatic_crab_3.png	3	animate	aquatic	crab	3	0	1	boats	3	incorrect	2.70047598960809
204931	1	stim119_inanimate_clothing_socks_3.png	119	inanimate	clothing	socks	3	0	1	boats	3	incorrect	2.70047598960809
205131	1	stim151_inanimate_furniture_closet_3.png	151	inanimate	furniture	closet	3	0	1	boats	3	incorrect	2.70047598960809
205331	1	stim173_inanimate_plants_tree_1.png	173	inanimate	plants	tree	1	0	1	boats	3	incorrect	2.70047598960809
205531	1	stim122_inanimate_fruits_apple_2.png	122	inanimate	fruits	apple	2	0	1	boats	3	incorrect	2.70047598960809
205731	1	stim080_animate_insect_grasshopper_4.png	80	animate	insect	grasshopper	4	0	1	boats	3	incorrect	2.70047598960809
205931	1	stim112_inanimate_clothing_jeans_4.png	112	inanimate	clothing	jeans	4	0	1	boats	3	incorrect	2.70047598960809
206131	1	stim150_inanimate_furniture_closet_2.png	150	inanimate	furniture	closet	2	0	1	boats	3	incorrect	2.70047598960809
206331	1	stim021_animate_bird_chicken_1.png	21	animate	bird	chicken	1	0	1	boats	3	incorrect	2.70047598960809
206531	1	stim074_animate_insect_dragonfly_2.png	74	animate	insect	dragonfly	2	0	1	boats	3	incorrect	2.70047598960809
206731	1	stim009_animate_aquatic_seahorse_1.png	9	animate	aquatic	seahorse	1	0	1	boats	3	incorrect	2.70047598960809
206931	1	stim060_animate_human_sports_4.png	60	animate	human	sports	4	0	1	boats	3	incorrect	2.70047598960809
207131	1	stim116_inanimate_clothing_shirt_4.png	116	inanimate	clothing	shirt	4	0	1	boats	3	incorrect	2.70047598960809
207331	1	stim020_animate_aquatic_shrimp_4.png	20	animate	aquatic	shrimp	4	0	1	boats	3	incorrect	2.70047598960809
207531	1	stim025_animate_bird_duck_1.png	25	animate	bird	duck	1	0	1	boats	3	incorrect	2.70047598960809
207731	1	stim036_animate_bird_peacock_4.png	36	animate	bird	peacock	4	0	1	boats	3	incorrect	2.70047598960809
207931	1	stim159_inanimate_furniture_table_3.png	159	inanimate	furniture	table	3	0	1	boats	3	incorrect	2.70047598960809
208131	1	stim071_animate_insect_butterfly_3.png	71	animate	insect	butterfly	3	0	1	boats	3	incorrect	2.70047598960809
208331	1	stim121_inanimate_fruits_apple_1.png	121	inanimate	fruits	apple	1	0	1	boats	3	incorrect	2.70047598960809
208531	1	stim061_animate_insect_ant_1.png	61	animate	insect	ant	1	0	1	boats	3	incorrect	2.70047598960809
208731	1	stim178_inanimate_plants_tulip_2.png	178	inanimate	plants	tulip	2	0	1	boats	3	incorrect	2.70047598960809
208931	1	stim103_inanimate_clothing_gloves_3.png	103	inanimate	clothing	gloves	3	0	1	boats	3	incorrect	2.70047598960809
209131	1	stim207_targets_object_boats_3.png	207	targets	object	boats	3	1	1	boats	3	incorrect	2.70047598960809
209331	1	stim107_inanimate_clothing_hat_3.png	107	inanimate	clothing	hat	3	0	1	boats	3	incorrect	2.70047598960809
209531	1	stim155_inanimate_furniture_sofa_3.png	155	inanimate	furniture	sofa	3	0	1	boats	3	incorrect	2.70047598960809
209731	1	stim078_animate_insect_grasshopper_2.png	78	animate	insect	grasshopper	2	0	1	boats	3	incorrect	2.70047598960809
209931	1	stim198_inanimate_tools_wrench_2.png	198	inanimate	tools	wrench	2	0	1	boats	3	incorrect	2.70047598960809
210131	1	stim109_inanimate_clothing_jeans_1.png	109	inanimate	clothing	jeans	1	0	1	boats	3	incorrect	2.70047598960809
210331	1	stim063_animate_insect_ant_3.png	63	animate	insect	ant	3	0	1	boats	3	incorrect	2.70047598960809
210531	1	stim108_inanimate_clothing_hat_4.png	108	inanimate	clothing	hat	4	0	1	boats	3	incorrect	2.70047598960809
210731	1	stim183_inanimate_tools_broom_3.png	183	inanimate	tools	broom	3	0	1	boats	3	incorrect	2.70047598960809
210931	1	stim010_animate_aquatic_seahorse_2.png	10	animate	aquatic	seahorse	2	0	1	boats	3	incorrect	2.70047598960809
211131	1	stim019_animate_aquatic_shrimp_3.png	19	animate	aquatic	shrimp	3	0	1	boats	3	incorrect	2.70047598960809
211331	1	stim197_inanimate_tools_wrench_1.png	197	inanimate	tools	wrench	1	0	1	boats	3	incorrect	2.70047598960809
211531	1	stim139_inanimate_fruits_strawberry_3.png	139	inanimate	fruits	strawberry	3	0	1	boats	3	incorrect	2.70047598960809
211731	1	stim196_inanimate_tools_scissors_4.png	196	inanimate	tools	scissors	4	0	1	boats	3	incorrect	2.70047598960809
211931	1	stim090_animate_mammal_kangaroo_2.png	90	animate	mammal	kangaroo	2	0	1	boats	3	incorrect	2.70047598960809
212131	1	stim141_inanimate_furniture_bed_1.png	141	inanimate	furniture	bed	1	0	1	boats	3	incorrect	2.70047598960809
212331	1	stim004_animate_aquatic_crab_4.png	4	animate	aquatic	crab	4	0	1	boats	3	incorrect	2.70047598960809
212531	1	stim100_animate_mammal_rhino_4.png	100	animate	mammal	rhino	4	0	1	boats	3	incorrect	2.70047598960809
212731	1	stim132_inanimate_fruits_grape_4.png	132	inanimate	fruits	grape	4	0	1	boats	3	incorrect	2.70047598960809
212931	1	stim011_animate_aquatic_seahorse_3.png	11	animate	aquatic	seahorse	3	0	1	boats	3	incorrect	2.70047598960809
213131	1	stim114_inanimate_clothing_shirt_2.png	114	inanimate	clothing	shirt	2	0	1	boats	3	incorrect	2.70047598960809
213331	1	stim113_inanimate_clothing_shirt_1.png	113	inanimate	clothing	shirt	1	0	1	boats	3	incorrect	2.70047598960809
213531	1	stim024_animate_bird_chicken_4.png	24	animate	bird	chicken	4	0	1	boats	3	incorrect	2.70047598960809
213731	1	stim033_animate_bird_peacock_1.png	33	animate	bird	peacock	1	0	1	boats	3	incorrect	2.70047598960809
213931	1	stim189_inanimate_tools_pan_1.png	189	inanimate	tools	pan	1	0	1	boats	3	incorrect	2.70047598960809
214131	1	stim179_inanimate_plants_tulip_3.png	179	inanimate	plants	tulip	3	0	1	boats	3	incorrect	2.70047598960809
214331	1	stim091_animate_mammal_kangaroo_3.png	91	animate	mammal	kangaroo	3	0	1	boats	3	incorrect	2.70047598960809
214531	1	stim106_inanimate_clothing_hat_2.png	106	inanimate	clothing	hat	2	0	1	boats	3	incorrect	2.70047598960809
214731	1	stim001_animate_aquatic_crab_1.png	1	animate	aquatic	crab	1	0	1	boats	3	incorrect	2.70047598960809
214931	1	stim044_animate_human_baby_4.png	44	animate	human	baby	4	0	1	boats	3	incorrect	2.70047598960809
215131	1	stim056_animate_human_faces_4.png	56	animate	human	faces	4	0	1	boats	3	incorrect	2.70047598960809
215331	1	stim172_inanimate_plants_sunflower_4.png	172	inanimate	plants	sunflower	4	0	1	boats	3	incorrect	2.70047598960809
215531	1	stim145_inanimate_furniture_chair_1.png	145	inanimate	furniture	chair	1	0	1	boats	3	incorrect	2.70047598960809
215731	1	stim043_animate_human_baby_3.png	43	animate	human	baby	3	0	1	boats	3	incorrect	2.70047598960809
215931	1	stim094_animate_mammal_monkey_2.png	94	animate	mammal	monkey	2	0	1	boats	3	incorrect	2.70047598960809
216131	1	stim111_inanimate_clothing_jeans_3.png	111	inanimate	clothing	jeans	3	0	1	boats	3	incorrect	2.70047598960809
216331	1	stim186_inanimate_tools_hammer_2.png	186	inanimate	tools	hammer	2	0	1	boats	3	incorrect	2.70047598960809
216531	1	stim082_animate_mammal_cow_2.png	82	animate	mammal	cow	2	0	1	boats	3	incorrect	2.70047598960809
216731	1	stim014_animate_aquatic_shark_2.png	14	animate	aquatic	shark	2	0	1	boats	3	incorrect	2.70047598960809
216931	1	stim070_animate_insect_butterfly_2.png	70	animate	insect	butterfly	2	0	1	boats	3	incorrect	2.70047598960809
217131	1	stim194_inanimate_tools_scissors_2.png	194	inanimate	tools	scissors	2	0	1	boats	3	incorrect	2.70047598960809
217331	1	stim165_inanimate_plants_cactus_1.png	165	inanimate	plants	cactus	1	0	1	boats	3	incorrect	2.70047598960809
217531	1	stim073_animate_insect_dragonfly_1.png	73	animate	insect	dragonfly	1	0	1	boats	3	incorrect	2.70047598960809
217731	1	stim169_inanimate_plants_sunflower_1.png	169	inanimate	plants	sunflower	1	0	1	boats	3	incorrect	2.70047598960809
217931	1	stim027_animate_bird_duck_3.png	27	animate	bird	duck	3	0	1	boats	3	incorrect	2.70047598960809
218131	1	stim193_inanimate_tools_scissors_1.png	193	inanimate	tools	scissors	1	0	1	boats	3	incorrect	2.70047598960809
218331	1	stim204_targets_object_boats_4.png	204	targets	object	boats	4	1	1	boats	3	incorrect	2.70047598960809
218531	1	stim018_animate_aquatic_shrimp_2.png	18	animate	aquatic	shrimp	2	0	1	boats	3	incorrect	2.70047598960809
218731	1	stim127_inanimate_fruits_banana_3.png	127	inanimate	fruits	banana	3	0	1	boats	3	incorrect	2.70047598960809
218931	1	stim039_animate_bird_penguin_3.png	39	animate	bird	penguin	3	0	1	boats	3	incorrect	2.70047598960809
219131	1	stim137_inanimate_fruits_strawberry_1.png	137	inanimate	fruits	strawberry	1	0	1	boats	3	incorrect	2.70047598960809
219331	1	stim068_animate_insect_bug_4.png	68	animate	insect	bug	4	0	1	boats	3	incorrect	2.70047598960809
219531	1	stim067_animate_insect_bug_3.png	67	animate	insect	bug	3	0	1	boats	3	incorrect	2.70047598960809
219731	1	stim200_inanimate_tools_wrench_4.png	200	inanimate	tools	wrench	4	0	1	boats	3	incorrect	2.70047598960809
219931	1	stim164_inanimate_plants_bush_4.png	164	inanimate	plants	bush	4	0	1	boats	3	incorrect	2.70047598960809
220131	1	stim129_inanimate_fruits_grape_1.png	129	inanimate	fruits	grape	1	0	1	boats	3	incorrect	2.70047598960809
220331	1	stim118_inanimate_clothing_socks_2.png	118	inanimate	clothing	socks	2	0	1	boats	3	incorrect	2.70047598960809
220532	1	stim031_animate_bird_parrot_3.png	31	animate	bird	parrot	3	0	1	boats	3	incorrect	2.70047598960809
220732	1	stim042_animate_human_baby_2.png	42	animate	human	baby	2	0	1	boats	3	incorrect	2.70047598960809
220932	1	stim054_animate_human_faces_2.png	54	animate	human	faces	2	0	1	boats	3	incorrect	2.70047598960809
221132	1	stim002_animate_aquatic_crab_2.png	2	animate	aquatic	crab	2	0	1	boats	3	incorrect	2.70047598960809
221332	1	stim192_inanimate_tools_pan_4.png	192	inanimate	tools	pan	4	0	1	boats	3	incorrect	2.70047598960809
221532	1	stim088_animate_mammal_giraffe_4.png	88	animate	mammal	giraffe	4	0	1	boats	3	incorrect	2.70047598960809
221732	1	stim188_inanimate_tools_hammer_4.png	188	inanimate	tools	hammer	4	0	1	boats	3	incorrect	2.70047598960809
221932	1	stim076_animate_insect_dragonfly_4.png	76	animate	insect	dragonfly	4	0	1	boats	3	incorrect	2.70047598960809
222132	1	stim051_animate_human_clown_3.png	51	animate	human	clown	3	0	1	boats	3	incorrect	2.70047598960809
222332	1	stim097_animate_mammal_rhino_1.png	97	animate	mammal	rhino	1	0	1	boats	3	incorrect	2.70047598960809
222532	1	stim205_targets_object_boats_1.png	205	targets	object	boats	1	1	1	boats	3	incorrect	2.70047598960809
222732	1	stim153_inanimate_furniture_sofa_1.png	153	inanimate	furniture	sofa	1	0	1	boats	3	incorrect	2.70047598960809
222932	1	stim185_inanimate_tools_hammer_1.png	185	inanimate	tools	hammer	1	0	1	boats	3	incorrect	2.70047598960809
223132	1	stim032_animate_bird_parrot_4.png	32	animate	bird	parrot	4	0	1	boats	3	incorrect	2.70047598960809
223332	1	stim148_inanimate_furniture_chair_4.png	148	inanimate	furniture	chair	4	0	1	boats	3	incorrect	2.70047598960809
223532	1	stim096_animate_mammal_monkey_4.png	96	animate	mammal	monkey	4	0	1	boats	3	incorrect	2.70047598960809
223732	1	stim037_animate_bird_penguin_1.png	37	animate	bird	penguin	1	0	1	boats	3	incorrect	2.70047598960809
223932	1	stim016_animate_aquatic_shark_4.png	16	animate	aquatic	shark	4	0	1	boats	3	incorrect	2.70047598960809
224132	1	stim092_animate_mammal_kangaroo_4.png	92	animate	mammal	kangaroo	4	0	1	boats	3	incorrect	2.70047598960809
224332	1	stim158_inanimate_furniture_table_2.png	158	inanimate	furniture	table	2	0	1	boats	3	incorrect	2.70047598960809
224532	1	stim177_inanimate_plants_tulip_1.png	177	inanimate	plants	tulip	1	0	1	boats	3	incorrect	2.70047598960809
224732	1	stim047_animate_human_child_3.png	47	animate	human	child	3	0	1	boats	3	incorrect	2.70047598960809
224932	1	stim125_inanimate_fruits_banana_1.png	125	inanimate	fruits	banana	1	0	1	boats	3	incorrect	2.70047598960809
225132	1	stim149_inanimate_furniture_closet_1.png	149	inanimate	furniture	closet	1	0	1	boats	3	incorrect	2.70047598960809
225332	1	stim142_inanimate_furniture_bed_2.png	142	inanimate	furniture	bed	2	0	1	boats	3	incorrect	2.70047598960809
225532	1	stim140_inanimate_fruits_strawberry_4.png	140	inanimate	fruits	strawberry	4	0	1	boats	3	incorrect	2.70047598960809
225732	1	stim175_inanimate_plants_tree_3.png	175	inanimate	plants	tree	3	0	1	boats	3	incorrect	2.70047598960809
225932	1	stim006_animate_aquatic_fish_2.png	6	animate	aquatic	fish	2	0	1	boats	3	incorrect	2.70047598960809
226132	1	stim135_inanimate_fruits_pineapple_3.png	135	inanimate	fruits	pineapple	3	0	1	boats	3	incorrect	2.70047598960809
226332	1	stim046_animate_human_child_2.png	46	animate	human	child	2	0	1	boats	3	incorrect	2.70047598960809
226532	1	stim195_inanimate_tools_scissors_3.png	195	inanimate	tools	scissors	3	0	1	boats	3	incorrect	2.70047598960809
226732	1	stim028_animate_bird_duck_4.png	28	animate	bird	duck	4	0	1	boats	3	incorrect	2.70047598960809
226932	1	stim095_animate_mammal_monkey_3.png	95	animate	mammal	monkey	3	0	1	boats	3	incorrect	2.70047598960809
227132	1	stim053_animate_human_faces_1.png	53	animate	human	faces	1	0	1	boats	3	incorrect	2.70047598960809
227332	1	stim156_inanimate_furniture_sofa_4.png	156	inanimate	furniture	sofa	4	0	1	boats	3	incorrect	2.70047598960809
227532	1	stim199_inanimate_tools_wrench_3.png	199	inanimate	tools	wrench	3	0	1	boats	3	incorrect	2.70047598960809
227732	1	stim075_animate_insect_dragonfly_3.png	75	animate	insect	dragonfly	3	0	1	boats	3	incorrect	2.70047598960809
227932	1	stim163_inanimate_plants_bush_3.png	163	inanimate	plants	bush	3	0	1	boats	3	incorrect	2.70047598960809
228132	1	stim166_inanimate_plants_cactus_2.png	166	inanimate	plants	cactus	2	0	1	boats	3	incorrect	2.70047598960809
228332	1	stim143_inanimate_furniture_bed_3.png	143	inanimate	furniture	bed	3	0	1	boats	3	incorrect	2.70047598960809
228532	1	stim005_animate_aquatic_fish_1.png	5	animate	aquatic	fish	1	0	1	boats	3	incorrect	2.70047598960809
228732	1	stim049_animate_human_clown_1.png	49	animate	human	clown	1	0	1	boats	3	incorrect	2.70047598960809
228932	1	stim117_inanimate_clothing_socks_1.png	117	inanimate	clothing	socks	1	0	1	boats	3	incorrect	2.70047598960809
229132	1	stim180_inanimate_plants_tulip_4.png	180	inanimate	plants	tulip	4	0	1	boats	3	incorrect	2.70047598960809
229332	1	stim064_animate_insect_ant_4.png	64	animate	insect	ant	4	0	1	boats	3	incorrect	2.70047598960809
229532	1	stim101_inanimate_clothing_gloves_1.png	101	inanimate	clothing	gloves	1	0	1	boats	3	incorrect	2.70047598960809
229732	1	stim115_inanimate_clothing_shirt_3.png	115	inanimate	clothing	shirt	3	0	1	boats	3	incorrect	2.70047598960809
229932	1	stim206_targets_object_boats_2.png	206	targets	object	boats	2	1	1	boats	3	incorrect	2.70047598960809
230132	1	stim098_animate_mammal_rhino_2.png	98	animate	mammal	rhino	2	0	1	boats	3	incorrect	2.70047598960809
230332	1	stim161_inanimate_plants_bush_1.png	161	inanimate	plants	bush	1	0	1	boats	3	incorrect	2.70047598960809
230532	1	stim012_animate_aquatic_seahorse_4.png	12	animate	aquatic	seahorse	4	0	1	boats	3	incorrect	2.70047598960809
230732	1	stim168_inanimate_plants_cactus_4.png	168	inanimate	plants	cactus	4	0	1	boats	3	incorrect	2.70047598960809
230932	1	stim160_inanimate_furniture_table_4.png	160	inanimate	furniture	table	4	0	1	boats	3	incorrect	2.70047598960809
231132	1	stim055_animate_human_faces_3.png	55	animate	human	faces	3	0	1	boats	3	incorrect	2.70047598960809
231332	1	stim102_inanimate_clothing_gloves_2.png	102	inanimate	clothing	gloves	2	0	1	boats	3	incorrect	2.70047598960809
231532	1	stim041_animate_human_baby_1.png	41	animate	human	baby	1	0	1	boats	3	incorrect	2.70047598960809
231732	1	stim069_animate_insect_butterfly_1.png	69	animate	insect	butterfly	1	0	1	boats	3	incorrect	2.70047598960809
231932	1	stim138_inanimate_fruits_strawberry_2.png	138	inanimate	fruits	strawberry	2	0	1	boats	3	incorrect	2.70047598960809
232132	1	stim072_animate_insect_butterfly_4.png	72	animate	insect	butterfly	4	0	1	boats	3	incorrect	2.70047598960809
232332	1	stim089_animate_mammal_kangaroo_1.png	89	animate	mammal	kangaroo	1	0	1	boats	3	incorrect	2.70047598960809
232532	1	stim144_inanimate_furniture_bed_4.png	144	inanimate	furniture	bed	4	0	1	boats	3	incorrect	2.70047598960809
232732	1	stim170_inanimate_plants_sunflower_2.png	170	inanimate	plants	sunflower	2	0	1	boats	3	incorrect	2.70047598960809
232932	1	stim045_animate_human_child_1.png	45	animate	human	child	1	0	1	boats	3	incorrect	2.70047598960809
233132	1	stim146_inanimate_furniture_chair_2.png	146	inanimate	furniture	chair	2	0	1	boats	3	incorrect	2.70047598960809
233332	1	stim110_inanimate_clothing_jeans_2.png	110	inanimate	clothing	jeans	2	0	1	boats	3	incorrect	2.70047598960809
233532	1	stim124_inanimate_fruits_apple_4.png	124	inanimate	fruits	apple	4	0	1	boats	3	incorrect	2.70047598960809
233732	1	stim120_inanimate_clothing_socks_4.png	120	inanimate	clothing	socks	4	0	1	boats	3	incorrect	2.70047598960809
233932	1	stim147_inanimate_furniture_chair_3.png	147	inanimate	furniture	chair	3	0	1	boats	3	incorrect	2.70047598960809
234132	1	stim084_animate_mammal_cow_4.png	84	animate	mammal	cow	4	0	1	boats	3	incorrect	2.70047598960809
234332	1	stim079_animate_insect_grasshopper_3.png	79	animate	insect	grasshopper	3	0	1	boats	3	incorrect	2.70047598960809
234532	1	stim029_animate_bird_parrot_1.png	29	animate	bird	parrot	1	0	1	boats	3	incorrect	2.70047598960809
234732	1	stim167_inanimate_plants_cactus_3.png	167	inanimate	plants	cactus	3	0	1	boats	3	incorrect	2.70047598960809
234932	1	stim157_inanimate_furniture_table_1.png	157	inanimate	furniture	table	1	0	1	boats	3	incorrect	2.70047598960809
235132	1	stim162_inanimate_plants_bush_2.png	162	inanimate	plants	bush	2	0	1	boats	3	incorrect	2.70047598960809
235332	1	stim176_inanimate_plants_tree_4.png	176	inanimate	plants	tree	4	0	1	boats	3	incorrect	2.70047598960809
235532	1	stim008_animate_aquatic_fish_4.png	8	animate	aquatic	fish	4	0	1	boats	3	incorrect	2.70047598960809
235732	1	stim130_inanimate_fruits_grape_2.png	130	inanimate	fruits	grape	2	0	1	boats	3	incorrect	2.70047598960809
235932	1	stim191_inanimate_tools_pan_3.png	191	inanimate	tools	pan	3	0	1	boats	3	incorrect	2.70047598960809
236132	1	stim057_animate_human_sports_1.png	57	animate	human	sports	1	0	1	boats	3	incorrect	2.70047598960809
236332	1	stim023_animate_bird_chicken_3.png	23	animate	bird	chicken	3	0	1	boats	3	incorrect	2.70047598960809
236532	1	stim034_animate_bird_peacock_2.png	34	animate	bird	peacock	2	0	1	boats	3	incorrect	2.70047598960809
236732	1	stim093_animate_mammal_monkey_1.png	93	animate	mammal	monkey	1	0	1	boats	3	incorrect	2.70047598960809
236932	1	stim040_animate_bird_penguin_4.png	40	animate	bird	penguin	4	0	1	boats	3	incorrect	2.70047598960809
237132	1	stim007_animate_aquatic_fish_3.png	7	animate	aquatic	fish	3	0	1	boats	3	incorrect	2.70047598960809
237332	1	stim083_animate_mammal_cow_3.png	83	animate	mammal	cow	3	0	1	boats	3	incorrect	2.70047598960809
237532	1	stim105_inanimate_clothing_hat_1.png	105	inanimate	clothing	hat	1	0	1	boats	3	incorrect	2.70047598960809
237732	1	stim136_inanimate_fruits_pineapple_4.png	136	inanimate	fruits	pineapple	4	0	1	boats	3	incorrect	2.70047598960809
237932	1	stim171_inanimate_plants_sunflower_3.png	171	inanimate	plants	sunflower	3	0	1	boats	3	incorrect	2.70047598960809
238132	1	stim126_inanimate_fruits_banana_2.png	126	inanimate	fruits	banana	2	0	1	boats	3	incorrect	2.70047598960809
238332	1	stim052_animate_human_clown_4.png	52	animate	human	clown	4	0	1	boats	3	incorrect	2.70047598960809
238532	1	stim077_animate_insect_grasshopper_1.png	77	animate	insect	grasshopper	1	0	1	boats	3	incorrect	2.70047598960809
238732	1	stim187_inanimate_tools_hammer_3.png	187	inanimate	tools	hammer	3	0	1	boats	3	incorrect	2.70047598960809
238932	1	stim086_animate_mammal_giraffe_2.png	86	animate	mammal	giraffe	2	0	1	boats	3	incorrect	2.70047598960809
239132	1	stim017_animate_aquatic_shrimp_1.png	17	animate	aquatic	shrimp	1	0	1	boats	3	incorrect	2.70047598960809
239332	1	stim128_inanimate_fruits_banana_4.png	128	inanimate	fruits	banana	4	0	1	boats	3	incorrect	2.70047598960809
239532	1	stim058_animate_human_sports_2.png	58	animate	human	sports	2	0	1	boats	3	incorrect	2.70047598960809
239732	1	stim085_animate_mammal_giraffe_1.png	85	animate	mammal	giraffe	1	0	1	boats	3	incorrect	2.70047598960809
239932	1	stim059_animate_human_sports_3.png	59	animate	human	sports	3	0	1	boats	3	incorrect	2.70047598960809
240132	1	stim152_inanimate_furniture_closet_4.png	152	inanimate	furniture	closet	4	0	1	boats	3	incorrect	2.70047598960809
240332	1	stim099_animate_mammal_rhino_3.png	99	animate	mammal	rhino	3	0	1	boats	3	incorrect	2.70047598960809
252132	1	stim141_inanimate_furniture_bed_1.png	141	inanimate	furniture	bed	1	0	2	boats	3	correct	3.13272507709917
252332	1	stim148_inanimate_furniture_chair_4.png	148	inanimate	furniture	chair	4	0	2	boats	3	correct	3.13272507709917
252532	1	stim179_inanimate_plants_tulip_3.png	179	inanimate	plants	tulip	3	0	2	boats	3	correct	3.13272507709917
252732	1	stim045_animate_human_child_1.png	45	animate	human	child	1	0	2	boats	3	correct	3.13272507709917
252932	1	stim197_inanimate_tools_wrench_1.png	197	inanimate	tools	wrench	1	0	2	boats	3	correct	3.13272507709917
253132	1	stim142_inanimate_furniture_bed_2.png	142	inanimate	furniture	bed	2	0	2	boats	3	correct	3.13272507709917
253332	1	stim028_animate_bird_duck_4.png	28	animate	bird	duck	4	0	2	boats	3	correct	3.13272507709917
253532	1	stim118_inanimate_clothing_socks_2.png	118	inanimate	clothing	socks	2	0	2	boats	3	correct	3.13272507709917
253732	1	stim024_animate_bird_chicken_4.png	24	animate	bird	chicken	4	0	2	boats	3	correct	3.13272507709917
253932	1	stim035_animate_bird_peacock_3.png	35	animate	bird	peacock	3	0	2	boats	3	correct	3.13272507709917
254132	1	stim184_inanimate_tools_broom_4.png	184	inanimate	tools	broom	4	0	2	boats	3	correct	3.13272507709917
254332	1	stim121_inanimate_fruits_apple_1.png	121	inanimate	fruits	apple	1	0	2	boats	3	correct	3.13272507709917
254532	1	stim085_animate_mammal_giraffe_1.png	85	animate	mammal	giraffe	1	0	2	boats	3	correct	3.13272507709917
254732	1	stim048_animate_human_child_4.png	48	animate	human	child	4	0	2	boats	3	correct	3.13272507709917
254932	1	stim150_inanimate_furniture_closet_2.png	150	inanimate	furniture	closet	2	0	2	boats	3	correct	3.13272507709917
255132	1	stim011_animate_aquatic_seahorse_3.png	11	animate	aquatic	seahorse	3	0	2	boats	3	correct	3.13272507709917
255332	1	stim193_inanimate_tools_scissors_1.png	193	inanimate	tools	scissors	1	0	2	boats	3	correct	3.13272507709917
255532	1	stim114_inanimate_clothing_shirt_2.png	114	inanimate	clothing	shirt	2	0	2	boats	3	correct	3.13272507709917
255732	1	stim088_animate_mammal_giraffe_4.png	88	animate	mammal	giraffe	4	0	2	boats	3	correct	3.13272507709917
255932	1	stim047_animate_human_child_3.png	47	animate	human	child	3	0	2	boats	3	correct	3.13272507709917
256132	1	stim061_animate_insect_ant_1.png	61	animate	insect	ant	1	0	2	boats	3	correct	3.13272507709917
256332	1	stim169_inanimate_plants_sunflower_1.png	169	inanimate	plants	sunflower	1	0	2	boats	3	correct	3.13272507709917
256532	1	stim174_inanimate_plants_tree_2.png	174	inanimate	plants	tree	2	0	2	boats	3	correct	3.13272507709917
256732	1	stim004_animate_aquatic_crab_4.png	4	animate	aquatic	crab	4	0	2	boats	3	correct	3.13272507709917
256932	1	stim123_inanimate_fruits_apple_3.png	123	inanimate	fruits	apple	3	0	2	boats	3	correct	3.13272507709917
257132	1	stim168_inanimate_plants_cactus_4.png	168	inanimate	plants	cactus	4	0	2	boats	3	correct	3.13272507709917
257332	1	stim095_animate_mammal_monkey_3.png	95	animate	mammal	monkey	3	0	2	boats	3	correct	3.13272507709917
257532	1	stim032_animate_bird_parrot_4.png	32	animate	bird	parrot	4	0	2	boats	3	correct	3.13272507709917
257732	1	stim065_animate_insect_bug_1.png	65	animate	insect	bug	1	0	2	boats	3	correct	3.13272507709917
257932	1	stim113_inanimate_clothing_shirt_1.png	113	inanimate	clothing	shirt	1	0	2	boats	3	correct	3.13272507709917
258132	1	stim119_inanimate_clothing_socks_3.png	119	inanimate	clothing	socks	3	0	2	boats	3	correct	3.13272507709917
258332	1	stim126_inanimate_fruits_banana_2.png	126	inanimate	fruits	banana	2	0	2	boats	3	correct	3.13272507709917
258532	1	stim152_inanimate_furniture_closet_4.png	152	inanimate	furniture	closet	4	0	2	boats	3	correct	3.13272507709917
258732	1	stim007_animate_aquatic_fish_3.png	7	animate	aquatic	fish	3	0	2	boats	3	correct	3.13272507709917
258932	1	stim161_inanimate_plants_bush_1.png	161	inanimate	plants	bush	1	0	2	boats	3	correct	3.13272507709917
259132	1	stim136_inanimate_fruits_pineapple_4.png	136	inanimate	fruits	pineapple	4	0	2	boats	3	correct	3.13272507709917
259332	1	stim018_animate_aquatic_shrimp_2.png	18	animate	aquatic	shrimp	2	0	2	boats	3	correct	3.13272507709917
259532	1	stim084_animate_mammal_cow_4.png	84	animate	mammal	cow	4	0	2	boats	3	correct	3.13272507709917
259732	1	stim191_inanimate_tools_pan_3.png	191	inanimate	tools	pan	3	0	2	boats	3	correct	3.13272507709917
259932	1	stim068_animate_insect_bug_4.png	68	animate	insect	bug	4	0	2	boats	3	correct	3.13272507709917
260132	1	stim110_inanimate_clothing_jeans_2.png	110	inanimate	clothing	jeans	2	0	2	boats	3	correct	3.13272507709917
260332	1	stim092_animate_mammal_kangaroo_4.png	92	animate	mammal	kangaroo	4	0	2	boats	3	correct	3.13272507709917
260532	1	stim149_inanimate_furniture_closet_1.png	149	inanimate	furniture	closet	1	0	2	boats	3	correct	3.13272507709917
260732	1	stim074_animate_insect_dragonfly_2.png	74	animate	insect	dragonfly	2	0	2	boats	3	correct	3.13272507709917
260932	1	stim080_animate_insect_grasshopper_4.png	80	animate	insect	grasshopper	4	0	2	boats	3	correct	3.13272507709917
261132	1	stim046_animate_human_child_2.png	46	animate	human	child	2	0	2	boats	3	correct	3.13272507709917
261332	1	stim072_animate_insect_butterfly_4.png	72	animate	insect	butterfly	4	0	2	boats	3	correct	3.13272507709917
261532	1	stim162_inanimate_plants_bush_2.png	162	inanimate	plants	bush	2	0	2	boats	3	correct	3.13272507709917
261732	1	stim105_inanimate_clothing_hat_1.png	105	inanimate	clothing	hat	1	0	2	boats	3	correct	3.13272507709917
261932	1	stim109_inanimate_clothing_jeans_1.png	109	inanimate	clothing	jeans	1	0	2	boats	3	correct	3.13272507709917
262132	1	stim066_animate_insect_bug_2.png	66	animate	insect	bug	2	0	2	boats	3	correct	3.13272507709917
262332	1	stim022_animate_bird_chicken_2.png	22	animate	bird	chicken	2	0	2	boats	3	correct	3.13272507709917
262532	1	stim033_animate_bird_peacock_1.png	33	animate	bird	peacock	1	0	2	boats	3	correct	3.13272507709917
262732	1	stim056_animate_human_faces_4.png	56	animate	human	faces	4	0	2	boats	3	correct	3.13272507709917
262932	1	stim031_animate_bird_parrot_3.png	31	animate	bird	parrot	3	0	2	boats	3	correct	3.13272507709917
263132	1	stim076_animate_insect_dragonfly_4.png	76	animate	insect	dragonfly	4	0	2	boats	3	correct	3.13272507709917
263332	1	stim040_animate_bird_penguin_4.png	40	animate	bird	penguin	4	0	2	boats	3	correct	3.13272507709917
263532	1	stim075_animate_insect_dragonfly_3.png	75	animate	insect	dragonfly	3	0	2	boats	3	correct	3.13272507709917
263732	1	stim041_animate_human_baby_1.png	41	animate	human	baby	1	0	2	boats	3	correct	3.13272507709917
263932	1	stim133_inanimate_fruits_pineapple_1.png	133	inanimate	fruits	pineapple	1	0	2	boats	3	correct	3.13272507709917
264132	1	stim129_inanimate_fruits_grape_1.png	129	inanimate	fruits	grape	1	0	2	boats	3	correct	3.13272507709917
264332	1	stim170_inanimate_plants_sunflower_2.png	170	inanimate	plants	sunflower	2	0	2	boats	3	correct	3.13272507709917
264533	1	stim156_inanimate_furniture_sofa_4.png	156	inanimate	furniture	sofa	4	0	2	boats	3	correct	3.13272507709917
264732	1	stim171_inanimate_plants_sunflower_3.png	171	inanimate	plants	sunflower	3	0	2	boats	3	correct	3.13272507709917
264932	1	stim089_animate_mammal_kangaroo_1.png	89	animate	mammal	kangaroo	1	0	2	boats	3	correct	3.13272507709917
265132	1	stim128_inanimate_fruits_banana_4.png	128	inanimate	fruits	banana	4	0	2	boats	3	correct	3.13272507709917
265332	1	stim195_inanimate_tools_scissors_3.png	195	inanimate	tools	scissors	3	0	2	boats	3	correct	3.13272507709917
265533	1	stim019_animate_aquatic_shrimp_3.png	19	animate	aquatic	shrimp	3	0	2	boats	3	correct	3.13272507709917
265733	1	stim070_animate_insect_butterfly_2.png	70	animate	insect	butterfly	2	0	2	boats	3	correct	3.13272507709917
265933	1	stim205_targets_object_boats_1.png	205	targets	object	boats	1	1	2	boats	3	correct	3.13272507709917
266133	1	stim073_animate_insect_dragonfly_1.png	73	animate	insect	dragonfly	1	0	2	boats	3	correct	3.13272507709917
266333	1	stim060_animate_human_sports_4.png	60	animate	human	sports	4	0	2	boats	3	correct	3.13272507709917
266533	1	stim138_inanimate_fruits_strawberry_2.png	138	inanimate	fruits	strawberry	2	0	2	boats	3	correct	3.13272507709917
266733	1	stim050_animate_human_clown_2.png	50	animate	human	clown	2	0	2	boats	3	correct	3.13272507709917
266933	1	stim175_inanimate_plants_tree_3.png	175	inanimate	plants	tree	3	0	2	boats	3	correct	3.13272507709917
267133	1	stim067_animate_insect_bug_3.png	67	animate	insect	bug	3	0	2	boats	3	correct	3.13272507709917
267333	1	stim145_inanimate_furniture_chair_1.png	145	inanimate	furniture	chair	1	0	2	boats	3	correct	3.13272507709917
267533	1	stim086_animate_mammal_giraffe_2.png	86	animate	mammal	giraffe	2	0	2	boats	3	correct	3.13272507709917
267733	1	stim104_inanimate_clothing_gloves_4.png	104	inanimate	clothing	gloves	4	0	2	boats	3	correct	3.13272507709917
267933	1	stim057_animate_human_sports_1.png	57	animate	human	sports	1	0	2	boats	3	correct	3.13272507709917
268133	1	stim157_inanimate_furniture_table_1.png	157	inanimate	furniture	table	1	0	2	boats	3	correct	3.13272507709917
268333	1	stim029_animate_bird_parrot_1.png	29	animate	bird	parrot	1	0	2	boats	3	correct	3.13272507709917
268533	1	stim044_animate_human_baby_4.png	44	animate	human	baby	4	0	2	boats	3	correct	3.13272507709917
268733	1	stim078_animate_insect_grasshopper_2.png	78	animate	insect	grasshopper	2	0	2	boats	3	correct	3.13272507709917
268933	1	stim178_inanimate_plants_tulip_2.png	178	inanimate	plants	tulip	2	0	2	boats	3	correct	3.13272507709917
269133	1	stim172_inanimate_plants_sunflower_4.png	172	inanimate	plants	sunflower	4	0	2	boats	3	correct	3.13272507709917
269333	1	stim013_animate_aquatic_shark_1.png	13	animate	aquatic	shark	1	0	2	boats	3	correct	3.13272507709917
269533	1	stim122_inanimate_fruits_apple_2.png	122	inanimate	fruits	apple	2	0	2	boats	3	correct	3.13272507709917
269733	1	stim037_animate_bird_penguin_1.png	37	animate	bird	penguin	1	0	2	boats	3	correct	3.13272507709917
269933	1	stim181_inanimate_tools_broom_1.png	181	inanimate	tools	broom	1	0	2	boats	3	correct	3.13272507709917
270133	1	stim140_inanimate_fruits_strawberry_4.png	140	inanimate	fruits	strawberry	4	0	2	boats	3	correct	3.13272507709917
270333	1	stim100_animate_mammal_rhino_4.png	100	animate	mammal	rhino	4	0	2	boats	3	correct	3.13272507709917
270533	1	stim027_animate_bird_duck_3.png	27	animate	bird	duck	3	0	2	boats	3	correct	3.13272507709917
270733	1	stim115_inanimate_clothing_shirt_3.png	115	inanimate	clothing	shirt	3	0	2	boats	3	correct	3.13272507709917
270933	1	stim103_inanimate_clothing_gloves_3.png	103	inanimate	clothing	gloves	3	0	2	boats	3	correct	3.13272507709917
271133	1	stim006_animate_aquatic_fish_2.png	6	animate	aquatic	fish	2	0	2	boats	3	correct	3.13272507709917
271333	1	stim159_inanimate_furniture_table_3.png	159	inanimate	furniture	table	3	0	2	boats	3	correct	3.13272507709917
271533	1	stim064_animate_insect_ant_4.png	64	animate	insect	ant	4	0	2	boats	3	correct	3.13272507709917
271733	1	stim199_inanimate_tools_wrench_3.png	199	inanimate	tools	wrench	3	0	2	boats	3	correct	3.13272507709917
271933	1	stim196_inanimate_tools_scissors_4.png	196	inanimate	tools	scissors	4	0	2	boats	3	correct	3.13272507709917
272133	1	stim144_inanimate_furniture_bed_4.png	144	inanimate	furniture	bed	4	0	2	boats	3	correct	3.13272507709917
272333	1	stim081_animate_mammal_cow_1.png	81	animate	mammal	cow	1	0	2	boats	3	correct	3.13272507709917
272533	1	stim155_inanimate_furniture_sofa_3.png	155	inanimate	furniture	sofa	3	0	2	boats	3	correct	3.13272507709917
272733	1	stim146_inanimate_furniture_chair_2.png	146	inanimate	furniture	chair	2	0	2	boats	3	correct	3.13272507709917
272933	1	stim099_animate_mammal_rhino_3.png	99	animate	mammal	rhino	3	0	2	boats	3	correct	3.13272507709917
273133	1	stim202_targets_object_boats_2.png	202	targets	object	boats	2	1	2	boats	3	correct	3.13272507709917
273333	1	stim063_animate_insect_ant_3.png	63	animate	insect	ant	3	0	2	boats	3	correct	3.13272507709917
273533	1	stim116_inanimate_clothing_shirt_4.png	116	inanimate	clothing	shirt	4	0	2	boats	3	correct	3.13272507709917
273733	1	stim177_inanimate_plants_tulip_1.png	177	inanimate	plants	tulip	1	0	2	boats	3	correct	3.13272507709917
273933	1	stim039_animate_bird_penguin_3.png	39	animate	bird	penguin	3	0	2	boats	3	correct	3.13272507709917
274133	1	stim091_animate_mammal_kangaroo_3.png	91	animate	mammal	kangaroo	3	0	2	boats	3	correct	3.13272507709917
274333	1	stim111_inanimate_clothing_jeans_3.png	111	inanimate	clothing	jeans	3	0	2	boats	3	correct	3.13272507709917
274533	1	stim120_inanimate_clothing_socks_4.png	120	inanimate	clothing	socks	4	0	2	boats	3	correct	3.13272507709917
274733	1	stim055_animate_human_faces_3.png	55	animate	human	faces	3	0	2	boats	3	correct	3.13272507709917
274933	1	stim014_animate_aquatic_shark_2.png	14	animate	aquatic	shark	2	0	2	boats	3	correct	3.13272507709917
275133	1	stim187_inanimate_tools_hammer_3.png	187	inanimate	tools	hammer	3	0	2	boats	3	correct	3.13272507709917
275333	1	stim077_animate_insect_grasshopper_1.png	77	animate	insect	grasshopper	1	0	2	boats	3	correct	3.13272507709917
275533	1	stim107_inanimate_clothing_hat_3.png	107	inanimate	clothing	hat	3	0	2	boats	3	correct	3.13272507709917
275733	1	stim101_inanimate_clothing_gloves_1.png	101	inanimate	clothing	gloves	1	0	2	boats	3	correct	3.13272507709917
275933	1	stim127_inanimate_fruits_banana_3.png	127	inanimate	fruits	banana	3	0	2	boats	3	correct	3.13272507709917
276133	1	stim062_animate_insect_ant_2.png	62	animate	insect	ant	2	0	2	boats	3	correct	3.13272507709917
276333	1	stim009_animate_aquatic_seahorse_1.png	9	animate	aquatic	seahorse	1	0	2	boats	3	correct	3.13272507709917
276533	1	stim139_inanimate_fruits_strawberry_3.png	139	inanimate	fruits	strawberry	3	0	2	boats	3	correct	3.13272507709917
276733	1	stim166_inanimate_plants_cactus_2.png	166	inanimate	plants	cactus	2	0	2	boats	3	correct	3.13272507709917
276933	1	stim090_animate_mammal_kangaroo_2.png	90	animate	mammal	kangaroo	2	0	2	boats	3	correct	3.13272507709917
277133	1	stim190_inanimate_tools_pan_2.png	190	inanimate	tools	pan	2	0	2	boats	3	correct	3.13272507709917
277333	1	stim125_inanimate_fruits_banana_1.png	125	inanimate	fruits	banana	1	0	2	boats	3	correct	3.13272507709917
277533	1	stim167_inanimate_plants_cactus_3.png	167	inanimate	plants	cactus	3	0	2	boats	3	correct	3.13272507709917
277733	1	stim194_inanimate_tools_scissors_2.png	194	inanimate	tools	scissors	2	0	2	boats	3	correct	3.13272507709917
277933	1	stim008_animate_aquatic_fish_4.png	8	animate	aquatic	fish	4	0	2	boats	3	correct	3.13272507709917
278133	1	stim025_animate_bird_duck_1.png	25	animate	bird	duck	1	0	2	boats	3	correct	3.13272507709917
278333	1	stim188_inanimate_tools_hammer_4.png	188	inanimate	tools	hammer	4	0	2	boats	3	correct	3.13272507709917
278533	1	stim106_inanimate_clothing_hat_2.png	106	inanimate	clothing	hat	2	0	2	boats	3	correct	3.13272507709917
278733	1	stim052_animate_human_clown_4.png	52	animate	human	clown	4	0	2	boats	3	correct	3.13272507709917
278933	1	stim180_inanimate_plants_tulip_4.png	180	inanimate	plants	tulip	4	0	2	boats	3	correct	3.13272507709917
279133	1	stim131_inanimate_fruits_grape_3.png	131	inanimate	fruits	grape	3	0	2	boats	3	correct	3.13272507709917
279333	1	stim053_animate_human_faces_1.png	53	animate	human	faces	1	0	2	boats	3	correct	3.13272507709917
279533	1	stim185_inanimate_tools_hammer_1.png	185	inanimate	tools	hammer	1	0	2	boats	3	correct	3.13272507709917
279733	1	stim093_animate_mammal_monkey_1.png	93	animate	mammal	monkey	1	0	2	boats	3	correct	3.13272507709917
279933	1	stim183_inanimate_tools_broom_3.png	183	inanimate	tools	broom	3	0	2	boats	3	correct	3.13272507709917
280133	1	stim043_animate_human_baby_3.png	43	animate	human	baby	3	0	2	boats	3	correct	3.13272507709917
280333	1	stim208_targets_object_boats_4.png	208	targets	object	boats	4	1	2	boats	3	correct	3.13272507709917
280533	1	stim147_inanimate_furniture_chair_3.png	147	inanimate	furniture	chair	3	0	2	boats	3	correct	3.13272507709917
280733	1	stim082_animate_mammal_cow_2.png	82	animate	mammal	cow	2	0	2	boats	3	correct	3.13272507709917
280933	1	stim098_animate_mammal_rhino_2.png	98	animate	mammal	rhino	2	0	2	boats	3	correct	3.13272507709917
281133	1	stim010_animate_aquatic_seahorse_2.png	10	animate	aquatic	seahorse	2	0	2	boats	3	correct	3.13272507709917
281333	1	stim143_inanimate_furniture_bed_3.png	143	inanimate	furniture	bed	3	0	2	boats	3	correct	3.13272507709917
281533	1	stim003_animate_aquatic_crab_3.png	3	animate	aquatic	crab	3	0	2	boats	3	correct	3.13272507709917
281733	1	stim130_inanimate_fruits_grape_2.png	130	inanimate	fruits	grape	2	0	2	boats	3	correct	3.13272507709917
281933	1	stim051_animate_human_clown_3.png	51	animate	human	clown	3	0	2	boats	3	correct	3.13272507709917
282133	1	stim163_inanimate_plants_bush_3.png	163	inanimate	plants	bush	3	0	2	boats	3	correct	3.13272507709917
282333	1	stim026_animate_bird_duck_2.png	26	animate	bird	duck	2	0	2	boats	3	correct	3.13272507709917
282533	1	stim083_animate_mammal_cow_3.png	83	animate	mammal	cow	3	0	2	boats	3	correct	3.13272507709917
282733	1	stim186_inanimate_tools_hammer_2.png	186	inanimate	tools	hammer	2	0	2	boats	3	correct	3.13272507709917
282933	1	stim198_inanimate_tools_wrench_2.png	198	inanimate	tools	wrench	2	0	2	boats	3	correct	3.13272507709917
283133	1	stim049_animate_human_clown_1.png	49	animate	human	clown	1	0	2	boats	3	correct	3.13272507709917
283333	1	stim094_animate_mammal_monkey_2.png	94	animate	mammal	monkey	2	0	2	boats	3	correct	3.13272507709917
283533	1	stim108_inanimate_clothing_hat_4.png	108	inanimate	clothing	hat	4	0	2	boats	3	correct	3.13272507709917
283733	1	stim124_inanimate_fruits_apple_4.png	124	inanimate	fruits	apple	4	0	2	boats	3	correct	3.13272507709917
283933	1	stim020_animate_aquatic_shrimp_4.png	20	animate	aquatic	shrimp	4	0	2	boats	3	correct	3.13272507709917
284133	1	stim200_inanimate_tools_wrench_4.png	200	inanimate	tools	wrench	4	0	2	boats	3	correct	3.13272507709917
284333	1	stim058_animate_human_sports_2.png	58	animate	human	sports	2	0	2	boats	3	correct	3.13272507709917
284533	1	stim153_inanimate_furniture_sofa_1.png	153	inanimate	furniture	sofa	1	0	2	boats	3	correct	3.13272507709917
284733	1	stim079_animate_insect_grasshopper_3.png	79	animate	insect	grasshopper	3	0	2	boats	3	correct	3.13272507709917
284933	1	stim137_inanimate_fruits_strawberry_1.png	137	inanimate	fruits	strawberry	1	0	2	boats	3	correct	3.13272507709917
285133	1	stim005_animate_aquatic_fish_1.png	5	animate	aquatic	fish	1	0	2	boats	3	correct	3.13272507709917
285333	1	stim154_inanimate_furniture_sofa_2.png	154	inanimate	furniture	sofa	2	0	2	boats	3	correct	3.13272507709917
285533	1	stim096_animate_mammal_monkey_4.png	96	animate	mammal	monkey	4	0	2	boats	3	correct	3.13272507709917
285733	1	stim069_animate_insect_butterfly_1.png	69	animate	insect	butterfly	1	0	2	boats	3	correct	3.13272507709917
285933	1	stim071_animate_insect_butterfly_3.png	71	animate	insect	butterfly	3	0	2	boats	3	correct	3.13272507709917
286133	1	stim182_inanimate_tools_broom_2.png	182	inanimate	tools	broom	2	0	2	boats	3	correct	3.13272507709917
286333	1	stim135_inanimate_fruits_pineapple_3.png	135	inanimate	fruits	pineapple	3	0	2	boats	3	correct	3.13272507709917
286533	1	stim038_animate_bird_penguin_2.png	38	animate	bird	penguin	2	0	2	boats	3	correct	3.13272507709917
286733	1	stim012_animate_aquatic_seahorse_4.png	12	animate	aquatic	seahorse	4	0	2	boats	3	correct	3.13272507709917
286933	1	stim015_animate_aquatic_shark_3.png	15	animate	aquatic	shark	3	0	2	boats	3	correct	3.13272507709917
287133	1	stim097_animate_mammal_rhino_1.png	97	animate	mammal	rhino	1	0	2	boats	3	correct	3.13272507709917
287333	1	stim164_inanimate_plants_bush_4.png	164	inanimate	plants	bush	4	0	2	boats	3	correct	3.13272507709917
287533	1	stim042_animate_human_baby_2.png	42	animate	human	baby	2	0	2	boats	3	correct	3.13272507709917
287733	1	stim112_inanimate_clothing_jeans_4.png	112	inanimate	clothing	jeans	4	0	2	boats	3	correct	3.13272507709917
287933	1	stim030_animate_bird_parrot_2.png	30	animate	bird	parrot	2	0	2	boats	3	correct	3.13272507709917
288133	1	stim054_animate_human_faces_2.png	54	animate	human	faces	2	0	2	boats	3	correct	3.13272507709917
288333	1	stim117_inanimate_clothing_socks_1.png	117	inanimate	clothing	socks	1	0	2	boats	3	correct	3.13272507709917
288533	1	stim176_inanimate_plants_tree_4.png	176	inanimate	plants	tree	4	0	2	boats	3	correct	3.13272507709917
288733	1	stim192_inanimate_tools_pan_4.png	192	inanimate	tools	pan	4	0	2	boats	3	correct	3.13272507709917
288933	1	stim017_animate_aquatic_shrimp_1.png	17	animate	aquatic	shrimp	1	0	2	boats	3	correct	3.13272507709917
289133	1	stim021_animate_bird_chicken_1.png	21	animate	bird	chicken	1	0	2	boats	3	correct	3.13272507709917
289333	1	stim173_inanimate_plants_tree_1.png	173	inanimate	plants	tree	1	0	2	boats	3	correct	3.13272507709917
289533	1	stim151_inanimate_furniture_closet_3.png	151	inanimate	furniture	closet	3	0	2	boats	3	correct	3.13272507709917
289733	1	stim016_animate_aquatic_shark_4.png	16	animate	aquatic	shark	4	0	2	boats	3	correct	3.13272507709917
289933	1	stim059_animate_human_sports_3.png	59	animate	human	sports	3	0	2	boats	3	correct	3.13272507709917
290133	1	stim023_animate_bird_chicken_3.png	23	animate	bird	chicken	3	0	2	boats	3	correct	3.13272507709917
290333	1	stim132_inanimate_fruits_grape_4.png	132	inanimate	fruits	grape	4	0	2	boats	3	correct	3.13272507709917
290533	1	stim160_inanimate_furniture_table_4.png	160	inanimate	furniture	table	4	0	2	boats	3	correct	3.13272507709917
290733	1	stim036_animate_bird_peacock_4.png	36	animate	bird	peacock	4	0	2	boats	3	correct	3.13272507709917
290933	1	stim034_animate_bird_peacock_2.png	34	animate	bird	peacock	2	0	2	boats	3	correct	3.13272507709917
291133	1	stim189_inanimate_tools_pan_1.png	189	inanimate	tools	pan	1	0	2	boats	3	correct	3.13272507709917
291333	1	stim134_inanimate_fruits_pineapple_2.png	134	inanimate	fruits	pineapple	2	0	2	boats	3	correct	3.13272507709917
291533	1	stim158_inanimate_furniture_table_2.png	158	inanimate	furniture	table	2	0	2	boats	3	correct	3.13272507709917
291733	1	stim087_animate_mammal_giraffe_3.png	87	animate	mammal	giraffe	3	0	2	boats	3	correct	3.13272507709917
291933	1	stim001_animate_aquatic_crab_1.png	1	animate	aquatic	crab	1	0	2	boats	3	correct	3.13272507709917
292133	1	stim165_inanimate_plants_cactus_1.png	165	inanimate	plants	cactus	1	0	2	boats	3	correct	3.13272507709917
292333	1	stim002_animate_aquatic_crab_2.png	2	animate	aquatic	crab	2	0	2	boats	3	correct	3.13272507709917
292533	1	stim102_inanimate_clothing_gloves_2.png	102	inanimate	clothing	gloves	2	0	2	boats	3	correct	3.13272507709917
302817	1	stim028_animate_bird_duck_4.png	28	animate	bird	duck	4	0	3	stars	2	correct	2.27282003115397
303017	1	stim003_animate_aquatic_crab_3.png	3	animate	aquatic	crab	3	0	3	stars	2	correct	2.27282003115397
303217	1	stim167_inanimate_plants_cactus_3.png	167	inanimate	plants	cactus	3	0	3	stars	2	correct	2.27282003115397
303417	1	stim056_animate_human_faces_4.png	56	animate	human	faces	4	0	3	stars	2	correct	2.27282003115397
303617	1	stim062_animate_insect_ant_2.png	62	animate	insect	ant	2	0	3	stars	2	correct	2.27282003115397
303817	1	stim166_inanimate_plants_cactus_2.png	166	inanimate	plants	cactus	2	0	3	stars	2	correct	2.27282003115397
304017	1	stim100_animate_mammal_rhino_4.png	100	animate	mammal	rhino	4	0	3	stars	2	correct	2.27282003115397
304217	1	stim057_animate_human_sports_1.png	57	animate	human	sports	1	0	3	stars	2	correct	2.27282003115397
304417	1	stim041_animate_human_baby_1.png	41	animate	human	baby	1	0	3	stars	2	correct	2.27282003115397
304617	1	stim101_inanimate_clothing_gloves_1.png	101	inanimate	clothing	gloves	1	0	3	stars	2	correct	2.27282003115397
304817	1	stim117_inanimate_clothing_socks_1.png	117	inanimate	clothing	socks	1	0	3	stars	2	correct	2.27282003115397
305017	1	stim105_inanimate_clothing_hat_1.png	105	inanimate	clothing	hat	1	0	3	stars	2	correct	2.27282003115397
305217	1	stim119_inanimate_clothing_socks_3.png	119	inanimate	clothing	socks	3	0	3	stars	2	correct	2.27282003115397
305417	1	stim015_animate_aquatic_shark_3.png	15	animate	aquatic	shark	3	0	3	stars	2	correct	2.27282003115397
305617	1	stim075_animate_insect_dragonfly_3.png	75	animate	insect	dragonfly	3	0	3	stars	2	correct	2.27282003115397
305817	1	stim061_animate_insect_ant_1.png	61	animate	insect	ant	1	0	3	stars	2	correct	2.27282003115397
306017	1	stim181_inanimate_tools_broom_1.png	181	inanimate	tools	broom	1	0	3	stars	2	correct	2.27282003115397
306217	1	stim065_animate_insect_bug_1.png	65	animate	insect	bug	1	0	3	stars	2	correct	2.27282003115397
306417	1	stim103_inanimate_clothing_gloves_3.png	103	inanimate	clothing	gloves	3	0	3	stars	2	correct	2.27282003115397
306617	1	stim161_inanimate_plants_bush_1.png	161	inanimate	plants	bush	1	0	3	stars	2	correct	2.27282003115397
306817	1	stim048_animate_human_child_4.png	48	animate	human	child	4	0	3	stars	2	correct	2.27282003115397
307017	1	stim164_inanimate_plants_bush_4.png	164	inanimate	plants	bush	4	0	3	stars	2	correct	2.27282003115397
307217	1	stim106_inanimate_clothing_hat_2.png	106	inanimate	clothing	hat	2	0	3	stars	2	correct	2.27282003115397
307417	1	stim022_animate_bird_chicken_2.png	22	animate	bird	chicken	2	0	3	stars	2	correct	2.27282003115397
307617	1	stim081_animate_mammal_cow_1.png	81	animate	mammal	cow	1	0	3	stars	2	correct	2.27282003115397
307817	1	stim066_animate_insect_bug_2.png	66	animate	insect	bug	2	0	3	stars	2	correct	2.27282003115397
308017	1	stim116_inanimate_clothing_shirt_4.png	116	inanimate	clothing	shirt	4	0	3	stars	2	correct	2.27282003115397
308217	1	stim005_animate_aquatic_fish_1.png	5	animate	aquatic	fish	1	0	3	stars	2	correct	2.27282003115397
308417	1	stim084_animate_mammal_cow_4.png	84	animate	mammal	cow	4	0	3	stars	2	correct	2.27282003115397
308617	1	stim032_animate_bird_parrot_4.png	32	animate	bird	parrot	4	0	3	stars	2	correct	2.27282003115397
308817	1	stim019_animate_aquatic_shrimp_3.png	19	animate	aquatic	shrimp	3	0	3	stars	2	correct	2.27282003115397
309017	1	stim071_animate_insect_butterfly_3.png	71	animate	insect	butterfly	3	0	3	stars	2	correct	2.27282003115397
309217	1	stim155_inanimate_furniture_sofa_3.png	155	inanimate	furniture	sofa	3	0	3	stars	2	correct	2.27282003115397
309417	1	stim102_inanimate_clothing_gloves_2.png	102	inanimate	clothing	gloves	2	0	3	stars	2	correct	2.27282003115397
309617	1	stim112_inanimate_clothing_jeans_4.png	112	inanimate	clothing	jeans	4	0	3	stars	2	correct	2.27282003115397
309817	1	stim043_animate_human_baby_3.png	43	animate	human	baby	3	0	3	stars	2	correct	2.27282003115397
310017	1	stim010_animate_aquatic_seahorse_2.png	10	animate	aquatic	seahorse	2	0	3	stars	2	correct	2.27282003115397
310217	1	stim195_inanimate_tools_scissors_3.png	195	inanimate	tools	scissors	3	0	3	stars	2	correct	2.27282003115397
310417	1	stim198_inanimate_tools_wrench_2.png	198	inanimate	tools	wrench	2	0	3	stars	2	correct	2.27282003115397
310617	1	stim054_animate_human_faces_2.png	54	animate	human	faces	2	0	3	stars	2	correct	2.27282003115397
310817	1	stim040_animate_bird_penguin_4.png	40	animate	bird	penguin	4	0	3	stars	2	correct	2.27282003115397
311017	1	stim052_animate_human_clown_4.png	52	animate	human	clown	4	0	3	stars	2	correct	2.27282003115397
311217	1	stim046_animate_human_child_2.png	46	animate	human	child	2	0	3	stars	2	correct	2.27282003115397
311417	1	stim183_inanimate_tools_broom_3.png	183	inanimate	tools	broom	3	0	3	stars	2	correct	2.27282003115397
311617	1	stim169_inanimate_plants_sunflower_1.png	169	inanimate	plants	sunflower	1	0	3	stars	2	correct	2.27282003115397
311817	1	stim174_inanimate_plants_tree_2.png	174	inanimate	plants	tree	2	0	3	stars	2	correct	2.27282003115397
312017	1	stim070_animate_insect_butterfly_2.png	70	animate	insect	butterfly	2	0	3	stars	2	correct	2.27282003115397
312217	1	stim184_inanimate_tools_broom_4.png	184	inanimate	tools	broom	4	0	3	stars	2	correct	2.27282003115397
312417	1	stim017_animate_aquatic_shrimp_1.png	17	animate	aquatic	shrimp	1	0	3	stars	2	correct	2.27282003115397
312617	1	stim196_inanimate_tools_scissors_4.png	196	inanimate	tools	scissors	4	0	3	stars	2	correct	2.27282003115397
312817	1	stim013_animate_aquatic_shark_1.png	13	animate	aquatic	shark	1	0	3	stars	2	correct	2.27282003115397
313017	1	stim058_animate_human_sports_2.png	58	animate	human	sports	2	0	3	stars	2	correct	2.27282003115397
313217	1	stim074_animate_insect_dragonfly_2.png	74	animate	insect	dragonfly	2	0	3	stars	2	correct	2.27282003115397
313417	1	stim153_inanimate_furniture_sofa_1.png	153	inanimate	furniture	sofa	1	0	3	stars	2	correct	2.27282003115397
313617	1	stim141_inanimate_furniture_bed_1.png	141	inanimate	furniture	bed	1	0	3	stars	2	correct	2.27282003115397
313817	1	stim156_inanimate_furniture_sofa_4.png	156	inanimate	furniture	sofa	4	0	3	stars	2	correct	2.27282003115397
314017	1	stim012_animate_aquatic_seahorse_4.png	12	animate	aquatic	seahorse	4	0	3	stars	2	correct	2.27282003115397
314217	1	stim051_animate_human_clown_3.png	51	animate	human	clown	3	0	3	stars	2	correct	2.27282003115397
314417	1	stim125_inanimate_fruits_banana_1.png	125	inanimate	fruits	banana	1	0	3	stars	2	correct	2.27282003115397
314617	1	stim050_animate_human_clown_2.png	50	animate	human	clown	2	0	3	stars	2	correct	2.27282003115397
314817	1	stim020_animate_aquatic_shrimp_4.png	20	animate	aquatic	shrimp	4	0	3	stars	2	correct	2.27282003115397
315017	1	stim067_animate_insect_bug_3.png	67	animate	insect	bug	3	0	3	stars	2	correct	2.27282003115397
315217	1	stim009_animate_aquatic_seahorse_1.png	9	animate	aquatic	seahorse	1	0	3	stars	2	correct	2.27282003115397
315417	1	stim068_animate_insect_bug_4.png	68	animate	insect	bug	4	0	3	stars	2	correct	2.27282003115397
315617	1	stim008_animate_aquatic_fish_4.png	8	animate	aquatic	fish	4	0	3	stars	2	correct	2.27282003115397
315817	1	stim133_inanimate_fruits_pineapple_1.png	133	inanimate	fruits	pineapple	1	0	3	stars	2	correct	2.27282003115397
316017	1	stim128_inanimate_fruits_banana_4.png	128	inanimate	fruits	banana	4	0	3	stars	2	correct	2.27282003115397
316217	1	stim083_animate_mammal_cow_3.png	83	animate	mammal	cow	3	0	3	stars	2	correct	2.27282003115397
316417	1	stim213_targets_shapes_star_1.png	213	targets	shapes	star	1	1	3	stars	2	correct	2.27282003115397
316617	1	stim129_inanimate_fruits_grape_1.png	129	inanimate	fruits	grape	1	0	3	stars	2	correct	2.27282003115397
316817	1	stim069_animate_insect_butterfly_1.png	69	animate	insect	butterfly	1	0	3	stars	2	correct	2.27282003115397
317017	1	stim099_animate_mammal_rhino_3.png	99	animate	mammal	rhino	3	0	3	stars	2	correct	2.27282003115397
317217	1	stim115_inanimate_clothing_shirt_3.png	115	inanimate	clothing	shirt	3	0	3	stars	2	correct	2.27282003115397
317417	1	stim185_inanimate_tools_hammer_1.png	185	inanimate	tools	hammer	1	0	3	stars	2	correct	2.27282003115397
317617	1	stim108_inanimate_clothing_hat_4.png	108	inanimate	clothing	hat	4	0	3	stars	2	correct	2.27282003115397
317817	1	stim160_inanimate_furniture_table_4.png	160	inanimate	furniture	table	4	0	3	stars	2	correct	2.27282003115397
318017	1	stim034_animate_bird_peacock_2.png	34	animate	bird	peacock	2	0	3	stars	2	correct	2.27282003115397
318217	1	stim088_animate_mammal_giraffe_4.png	88	animate	mammal	giraffe	4	0	3	stars	2	correct	2.27282003115397
318417	1	stim030_animate_bird_parrot_2.png	30	animate	bird	parrot	2	0	3	stars	2	correct	2.27282003115397
318617	1	stim076_animate_insect_dragonfly_4.png	76	animate	insect	dragonfly	4	0	3	stars	2	correct	2.27282003115397
318817	1	stim162_inanimate_plants_bush_2.png	162	inanimate	plants	bush	2	0	3	stars	2	correct	2.27282003115397
319017	1	stim188_inanimate_tools_hammer_4.png	188	inanimate	tools	hammer	4	0	3	stars	2	correct	2.27282003115397
319217	1	stim049_animate_human_clown_1.png	49	animate	human	clown	1	0	3	stars	2	correct	2.27282003115397
319417	1	stim023_animate_bird_chicken_3.png	23	animate	bird	chicken	3	0	3	stars	2	correct	2.27282003115397
319617	1	stim094_animate_mammal_monkey_2.png	94	animate	mammal	monkey	2	0	3	stars	2	correct	2.27282003115397
319817	1	stim031_animate_bird_parrot_3.png	31	animate	bird	parrot	3	0	3	stars	2	correct	2.27282003115397
320017	1	stim114_inanimate_clothing_shirt_2.png	114	inanimate	clothing	shirt	2	0	3	stars	2	correct	2.27282003115397
320217	1	stim021_animate_bird_chicken_1.png	21	animate	bird	chicken	1	0	3	stars	2	correct	2.27282003115397
320417	1	stim150_inanimate_furniture_closet_2.png	150	inanimate	furniture	closet	2	0	3	stars	2	correct	2.27282003115397
320617	1	stim004_animate_aquatic_crab_4.png	4	animate	aquatic	crab	4	0	3	stars	2	correct	2.27282003115397
320817	1	stim016_animate_aquatic_shark_4.png	16	animate	aquatic	shark	4	0	3	stars	2	correct	2.27282003115397
321017	1	stim158_inanimate_furniture_table_2.png	158	inanimate	furniture	table	2	0	3	stars	2	correct	2.27282003115397
321217	1	stim113_inanimate_clothing_shirt_1.png	113	inanimate	clothing	shirt	1	0	3	stars	2	correct	2.27282003115397
321417	1	stim096_animate_mammal_monkey_4.png	96	animate	mammal	monkey	4	0	3	stars	2	correct	2.27282003115397
321617	1	stim171_inanimate_plants_sunflower_3.png	171	inanimate	plants	sunflower	3	0	3	stars	2	correct	2.27282003115397
321817	1	stim165_inanimate_plants_cactus_1.png	165	inanimate	plants	cactus	1	0	3	stars	2	correct	2.27282003115397
322017	1	stim168_inanimate_plants_cactus_4.png	168	inanimate	plants	cactus	4	0	3	stars	2	correct	2.27282003115397
322217	1	stim029_animate_bird_parrot_1.png	29	animate	bird	parrot	1	0	3	stars	2	correct	2.27282003115397
322417	1	stim089_animate_mammal_kangaroo_1.png	89	animate	mammal	kangaroo	1	0	3	stars	2	correct	2.27282003115397
322617	1	stim176_inanimate_plants_tree_4.png	176	inanimate	plants	tree	4	0	3	stars	2	correct	2.27282003115397
322817	1	stim104_inanimate_clothing_gloves_4.png	104	inanimate	clothing	gloves	4	0	3	stars	2	correct	2.27282003115397
323017	1	stim001_animate_aquatic_crab_1.png	1	animate	aquatic	crab	1	0	3	stars	2	correct	2.27282003115397
323217	1	stim177_inanimate_plants_tulip_1.png	177	inanimate	plants	tulip	1	0	3	stars	2	correct	2.27282003115397
323417	1	stim130_inanimate_fruits_grape_2.png	130	inanimate	fruits	grape	2	0	3	stars	2	correct	2.27282003115397
323617	1	stim045_animate_human_child_1.png	45	animate	human	child	1	0	3	stars	2	correct	2.27282003115397
323817	1	stim127_inanimate_fruits_banana_3.png	127	inanimate	fruits	banana	3	0	3	stars	2	correct	2.27282003115397
324017	1	stim187_inanimate_tools_hammer_3.png	187	inanimate	tools	hammer	3	0	3	stars	2	correct	2.27282003115397
324217	1	stim059_animate_human_sports_3.png	59	animate	human	sports	3	0	3	stars	2	correct	2.27282003115397
324417	1	stim142_inanimate_furniture_bed_2.png	142	inanimate	furniture	bed	2	0	3	stars	2	correct	2.27282003115397
324617	1	stim007_animate_aquatic_fish_3.png	7	animate	aquatic	fish	3	0	3	stars	2	correct	2.27282003115397
324817	1	stim157_inanimate_furniture_table_1.png	157	inanimate	furniture	table	1	0	3	stars	2	correct	2.27282003115397
325017	1	stim126_inanimate_fruits_banana_2.png	126	inanimate	fruits	banana	2	0	3	stars	2	correct	2.27282003115397
325217	1	stim154_inanimate_furniture_sofa_2.png	154	inanimate	furniture	sofa	2	0	3	stars	2	correct	2.27282003115397
325417	1	stim179_inanimate_plants_tulip_3.png	179	inanimate	plants	tulip	3	0	3	stars	2	correct	2.27282003115397
325617	1	stim042_animate_human_baby_2.png	42	animate	human	baby	2	0	3	stars	2	correct	2.27282003115397
325817	1	stim118_inanimate_clothing_socks_2.png	118	inanimate	clothing	socks	2	0	3	stars	2	correct	2.27282003115397
326017	1	stim090_animate_mammal_kangaroo_2.png	90	animate	mammal	kangaroo	2	0	3	stars	2	correct	2.27282003115397
326217	1	stim186_inanimate_tools_hammer_2.png	186	inanimate	tools	hammer	2	0	3	stars	2	correct	2.27282003115397
326417	1	stim136_inanimate_fruits_pineapple_4.png	136	inanimate	fruits	pineapple	4	0	3	stars	2	correct	2.27282003115397
326617	1	stim148_inanimate_furniture_chair_4.png	148	inanimate	furniture	chair	4	0	3	stars	2	correct	2.27282003115397
326817	1	stim033_animate_bird_peacock_1.png	33	animate	bird	peacock	1	0	3	stars	2	correct	2.27282003115397
327017	1	stim189_inanimate_tools_pan_1.png	189	inanimate	tools	pan	1	0	3	stars	2	correct	2.27282003115397
327217	1	stim143_inanimate_furniture_bed_3.png	143	inanimate	furniture	bed	3	0	3	stars	2	correct	2.27282003115397
327417	1	stim018_animate_aquatic_shrimp_2.png	18	animate	aquatic	shrimp	2	0	3	stars	2	correct	2.27282003115397
327617	1	stim047_animate_human_child_3.png	47	animate	human	child	3	0	3	stars	2	correct	2.27282003115397
327817	1	stim025_animate_bird_duck_1.png	25	animate	bird	duck	1	0	3	stars	2	correct	2.27282003115397
328017	1	stim091_animate_mammal_kangaroo_3.png	91	animate	mammal	kangaroo	3	0	3	stars	2	correct	2.27282003115397
328217	1	stim170_inanimate_plants_sunflower_2.png	170	inanimate	plants	sunflower	2	0	3	stars	2	correct	2.27282003115397
328417	1	stim151_inanimate_furniture_closet_3.png	151	inanimate	furniture	closet	3	0	3	stars	2	correct	2.27282003115397
328617	1	stim191_inanimate_tools_pan_3.png	191	inanimate	tools	pan	3	0	3	stars	2	correct	2.27282003115397
328817	1	stim011_animate_aquatic_seahorse_3.png	11	animate	aquatic	seahorse	3	0	3	stars	2	correct	2.27282003115397
329017	1	stim093_animate_mammal_monkey_1.png	93	animate	mammal	monkey	1	0	3	stars	2	correct	2.27282003115397
329217	1	stim086_animate_mammal_giraffe_2.png	86	animate	mammal	giraffe	2	0	3	stars	2	correct	2.27282003115397
329417	1	stim215_targets_shapes_star_3.png	215	targets	shapes	star	3	1	3	stars	2	correct	2.27282003115397
329617	1	stim121_inanimate_fruits_apple_1.png	121	inanimate	fruits	apple	1	0	3	stars	2	correct	2.27282003115397
329817	1	stim137_inanimate_fruits_strawberry_1.png	137	inanimate	fruits	strawberry	1	0	3	stars	2	correct	2.27282003115397
330017	1	stim173_inanimate_plants_tree_1.png	173	inanimate	plants	tree	1	0	3	stars	2	correct	2.27282003115397
330217	1	stim120_inanimate_clothing_socks_4.png	120	inanimate	clothing	socks	4	0	3	stars	2	correct	2.27282003115397
330417	1	stim095_animate_mammal_monkey_3.png	95	animate	mammal	monkey	3	0	3	stars	2	correct	2.27282003115397
330617	1	stim098_animate_mammal_rhino_2.png	98	animate	mammal	rhino	2	0	3	stars	2	correct	2.27282003115397
330817	1	stim060_animate_human_sports_4.png	60	animate	human	sports	4	0	3	stars	2	correct	2.27282003115397
331017	1	stim087_animate_mammal_giraffe_3.png	87	animate	mammal	giraffe	3	0	3	stars	2	correct	2.27282003115397
331217	1	stim006_animate_aquatic_fish_2.png	6	animate	aquatic	fish	2	0	3	stars	2	correct	2.27282003115397
331417	1	stim014_animate_aquatic_shark_2.png	14	animate	aquatic	shark	2	0	3	stars	2	correct	2.27282003115397
331617	1	stim109_inanimate_clothing_jeans_1.png	109	inanimate	clothing	jeans	1	0	3	stars	2	correct	2.27282003115397
331817	1	stim123_inanimate_fruits_apple_3.png	123	inanimate	fruits	apple	3	0	3	stars	2	correct	2.27282003115397
332017	1	stim147_inanimate_furniture_chair_3.png	147	inanimate	furniture	chair	3	0	3	stars	2	correct	2.27282003115397
332217	1	stim073_animate_insect_dragonfly_1.png	73	animate	insect	dragonfly	1	0	3	stars	2	correct	2.27282003115397
332417	1	stim039_animate_bird_penguin_3.png	39	animate	bird	penguin	3	0	3	stars	2	correct	2.27282003115397
332617	1	stim144_inanimate_furniture_bed_4.png	144	inanimate	furniture	bed	4	0	3	stars	2	correct	2.27282003115397
332817	1	stim035_animate_bird_peacock_3.png	35	animate	bird	peacock	3	0	3	stars	2	correct	2.27282003115397
333017	1	stim111_inanimate_clothing_jeans_3.png	111	inanimate	clothing	jeans	3	0	3	stars	2	correct	2.27282003115397
333217	1	stim085_animate_mammal_giraffe_1.png	85	animate	mammal	giraffe	1	0	3	stars	2	correct	2.27282003115397
333417	1	stim145_inanimate_furniture_chair_1.png	145	inanimate	furniture	chair	1	0	3	stars	2	correct	2.27282003115397
333617	1	stim026_animate_bird_duck_2.png	26	animate	bird	duck	2	0	3	stars	2	correct	2.27282003115397
333817	1	stim078_animate_insect_grasshopper_2.png	78	animate	insect	grasshopper	2	0	3	stars	2	correct	2.27282003115397
334017	1	stim175_inanimate_plants_tree_3.png	175	inanimate	plants	tree	3	0	3	stars	2	correct	2.27282003115397
334217	1	stim180_inanimate_plants_tulip_4.png	180	inanimate	plants	tulip	4	0	3	stars	2	correct	2.27282003115397
334417	1	stim124_inanimate_fruits_apple_4.png	124	inanimate	fruits	apple	4	0	3	stars	2	correct	2.27282003115397
334617	1	stim159_inanimate_furniture_table_3.png	159	inanimate	furniture	table	3	0	3	stars	2	correct	2.27282003115397
334817	1	stim152_inanimate_furniture_closet_4.png	152	inanimate	furniture	closet	4	0	3	stars	2	correct	2.27282003115397
335017	1	stim110_inanimate_clothing_jeans_2.png	110	inanimate	clothing	jeans	2	0	3	stars	2	correct	2.27282003115397
335217	1	stim107_inanimate_clothing_hat_3.png	107	inanimate	clothing	hat	3	0	3	stars	2	correct	2.27282003115397
335417	1	stim055_animate_human_faces_3.png	55	animate	human	faces	3	0	3	stars	2	correct	2.27282003115397
335617	1	stim079_animate_insect_grasshopper_3.png	79	animate	insect	grasshopper	3	0	3	stars	2	correct	2.27282003115397
335817	1	stim037_animate_bird_penguin_1.png	37	animate	bird	penguin	1	0	3	stars	2	correct	2.27282003115397
336017	1	stim178_inanimate_plants_tulip_2.png	178	inanimate	plants	tulip	2	0	3	stars	2	correct	2.27282003115397
336217	1	stim134_inanimate_fruits_pineapple_2.png	134	inanimate	fruits	pineapple	2	0	3	stars	2	correct	2.27282003115397
336417	1	stim149_inanimate_furniture_closet_1.png	149	inanimate	furniture	closet	1	0	3	stars	2	correct	2.27282003115397
336617	1	stim092_animate_mammal_kangaroo_4.png	92	animate	mammal	kangaroo	4	0	3	stars	2	correct	2.27282003115397
336817	1	stim140_inanimate_fruits_strawberry_4.png	140	inanimate	fruits	strawberry	4	0	3	stars	2	correct	2.27282003115397
337017	1	stim072_animate_insect_butterfly_4.png	72	animate	insect	butterfly	4	0	3	stars	2	correct	2.27282003115397
337218	1	stim194_inanimate_tools_scissors_2.png	194	inanimate	tools	scissors	2	0	3	stars	2	correct	2.27282003115397
337417	1	stim122_inanimate_fruits_apple_2.png	122	inanimate	fruits	apple	2	0	3	stars	2	correct	2.27282003115397
337618	1	stim027_animate_bird_duck_3.png	27	animate	bird	duck	3	0	3	stars	2	correct	2.27282003115397
337818	1	stim172_inanimate_plants_sunflower_4.png	172	inanimate	plants	sunflower	4	0	3	stars	2	correct	2.27282003115397
338018	1	stim064_animate_insect_ant_4.png	64	animate	insect	ant	4	0	3	stars	2	correct	2.27282003115397
338218	1	stim024_animate_bird_chicken_4.png	24	animate	bird	chicken	4	0	3	stars	2	correct	2.27282003115397
338418	1	stim138_inanimate_fruits_strawberry_2.png	138	inanimate	fruits	strawberry	2	0	3	stars	2	correct	2.27282003115397
338618	1	stim163_inanimate_plants_bush_3.png	163	inanimate	plants	bush	3	0	3	stars	2	correct	2.27282003115397
338818	1	stim146_inanimate_furniture_chair_2.png	146	inanimate	furniture	chair	2	0	3	stars	2	correct	2.27282003115397
339018	1	stim044_animate_human_baby_4.png	44	animate	human	baby	4	0	3	stars	2	correct	2.27282003115397
339218	1	stim182_inanimate_tools_broom_2.png	182	inanimate	tools	broom	2	0	3	stars	2	correct	2.27282003115397
339418	1	stim036_animate_bird_peacock_4.png	36	animate	bird	peacock	4	0	3	stars	2	correct	2.27282003115397
339618	1	stim097_animate_mammal_rhino_1.png	97	animate	mammal	rhino	1	0	3	stars	2	correct	2.27282003115397
339818	1	stim190_inanimate_tools_pan_2.png	190	inanimate	tools	pan	2	0	3	stars	2	correct	2.27282003115397
340018	1	stim131_inanimate_fruits_grape_3.png	131	inanimate	fruits	grape	3	0	3	stars	2	correct	2.27282003115397
340218	1	stim053_animate_human_faces_1.png	53	animate	human	faces	1	0	3	stars	2	correct	2.27282003115397
340418	1	stim135_inanimate_fruits_pineapple_3.png	135	inanimate	fruits	pineapple	3	0	3	stars	2	correct	2.27282003115397
340618	1	stim197_inanimate_tools_wrench_1.png	197	inanimate	tools	wrench	1	0	3	stars	2	correct	2.27282003115397
340818	1	stim199_inanimate_tools_wrench_3.png	199	inanimate	tools	wrench	3	0	3	stars	2	correct	2.27282003115397
341018	1	stim192_inanimate_tools_pan_4.png	192	inanimate	tools	pan	4	0	3	stars	2	correct	2.27282003115397
341218	1	stim063_animate_insect_ant_3.png	63	animate	insect	ant	3	0	3	stars	2	correct	2.27282003115397
341418	1	stim080_animate_insect_grasshopper_4.png	80	animate	insect	grasshopper	4	0	3	stars	2	correct	2.27282003115397
341618	1	stim082_animate_mammal_cow_2.png	82	animate	mammal	cow	2	0	3	stars	2	correct	2.27282003115397
341818	1	stim200_inanimate_tools_wrench_4.png	200	inanimate	tools	wrench	4	0	3	stars	2	correct	2.27282003115397
342018	1	stim077_animate_insect_grasshopper_1.png	77	animate	insect	grasshopper	1	0	3	stars	2	correct	2.27282003115397
342218	1	stim139_inanimate_fruits_strawberry_3.png	139	inanimate	fruits	strawberry	3	0	3	stars	2	correct	2.27282003115397
342418	1	stim038_animate_bird_penguin_2.png	38	animate	bird	penguin	2	0	3	stars	2	correct	2.27282003115397
342618	1	stim193_inanimate_tools_scissors_1.png	193	inanimate	tools	scissors	1	0	3	stars	2	correct	2.27282003115397
342818	1	stim132_inanimate_fruits_grape_4.png	132	inanimate	fruits	grape	4	0	3	stars	2	correct	2.27282003115397
343018	1	stim002_animate_aquatic_crab_2.png	2	animate	aquatic	crab	2	0	3	stars	2	correct	2.27282003115397
358951	1	stim046_animate_human_child_2.png	46	animate	human	child	2	0	4	stars	4	correct	2.07104977837298
359151	1	stim060_animate_human_sports_4.png	60	animate	human	sports	4	0	4	stars	4	correct	2.07104977837298
359351	1	stim044_animate_human_baby_4.png	44	animate	human	baby	4	0	4	stars	4	correct	2.07104977837298
359551	1	stim018_animate_aquatic_shrimp_2.png	18	animate	aquatic	shrimp	2	0	4	stars	4	correct	2.07104977837298
359751	1	stim009_animate_aquatic_seahorse_1.png	9	animate	aquatic	seahorse	1	0	4	stars	4	correct	2.07104977837298
359951	1	stim159_inanimate_furniture_table_3.png	159	inanimate	furniture	table	3	0	4	stars	4	correct	2.07104977837298
360151	1	stim183_inanimate_tools_broom_3.png	183	inanimate	tools	broom	3	0	4	stars	4	correct	2.07104977837298
360351	1	stim134_inanimate_fruits_pineapple_2.png	134	inanimate	fruits	pineapple	2	0	4	stars	4	correct	2.07104977837298
360551	1	stim178_inanimate_plants_tulip_2.png	178	inanimate	plants	tulip	2	0	4	stars	4	correct	2.07104977837298
360751	1	stim100_animate_mammal_rhino_4.png	100	animate	mammal	rhino	4	0	4	stars	4	correct	2.07104977837298
360951	1	stim156_inanimate_furniture_sofa_4.png	156	inanimate	furniture	sofa	4	0	4	stars	4	correct	2.07104977837298
361151	1	stim096_animate_mammal_monkey_4.png	96	animate	mammal	monkey	4	0	4	stars	4	correct	2.07104977837298
361351	1	stim193_inanimate_tools_scissors_1.png	193	inanimate	tools	scissors	1	0	4	stars	4	correct	2.07104977837298
361551	1	stim121_inanimate_fruits_apple_1.png	121	inanimate	fruits	apple	1	0	4	stars	4	correct	2.07104977837298
361751	1	stim180_inanimate_plants_tulip_4.png	180	inanimate	plants	tulip	4	0	4	stars	4	correct	2.07104977837298
361951	1	stim186_inanimate_tools_hammer_2.png	186	inanimate	tools	hammer	2	0	4	stars	4	correct	2.07104977837298
362151	1	stim113_inanimate_clothing_shirt_1.png	113	inanimate	clothing	shirt	1	0	4	stars	4	correct	2.07104977837298
362351	1	stim014_animate_aquatic_shark_2.png	14	animate	aquatic	shark	2	0	4	stars	4	correct	2.07104977837298
362551	1	stim109_inanimate_clothing_jeans_1.png	109	inanimate	clothing	jeans	1	0	4	stars	4	correct	2.07104977837298
362751	1	stim093_animate_mammal_monkey_1.png	93	animate	mammal	monkey	1	0	4	stars	4	correct	2.07104977837298
362951	1	stim002_animate_aquatic_crab_2.png	2	animate	aquatic	crab	2	0	4	stars	4	correct	2.07104977837298
363151	1	stim061_animate_insect_ant_1.png	61	animate	insect	ant	1	0	4	stars	4	correct	2.07104977837298
363351	1	stim188_inanimate_tools_hammer_4.png	188	inanimate	tools	hammer	4	0	4	stars	4	correct	2.07104977837298
363551	1	stim086_animate_mammal_giraffe_2.png	86	animate	mammal	giraffe	2	0	4	stars	4	correct	2.07104977837298
363751	1	stim043_animate_human_baby_3.png	43	animate	human	baby	3	0	4	stars	4	correct	2.07104977837298
363951	1	stim038_animate_bird_penguin_2.png	38	animate	bird	penguin	2	0	4	stars	4	correct	2.07104977837298
364151	1	stim070_animate_insect_butterfly_2.png	70	animate	insect	butterfly	2	0	4	stars	4	correct	2.07104977837298
364351	1	stim101_inanimate_clothing_gloves_1.png	101	inanimate	clothing	gloves	1	0	4	stars	4	correct	2.07104977837298
364551	1	stim130_inanimate_fruits_grape_2.png	130	inanimate	fruits	grape	2	0	4	stars	4	correct	2.07104977837298
364751	1	stim143_inanimate_furniture_bed_3.png	143	inanimate	furniture	bed	3	0	4	stars	4	correct	2.07104977837298
364951	1	stim171_inanimate_plants_sunflower_3.png	171	inanimate	plants	sunflower	3	0	4	stars	4	correct	2.07104977837298
365151	1	stim022_animate_bird_chicken_2.png	22	animate	bird	chicken	2	0	4	stars	4	correct	2.07104977837298
365351	1	stim116_inanimate_clothing_shirt_4.png	116	inanimate	clothing	shirt	4	0	4	stars	4	correct	2.07104977837298
365551	1	stim106_inanimate_clothing_hat_2.png	106	inanimate	clothing	hat	2	0	4	stars	4	correct	2.07104977837298
365751	1	stim136_inanimate_fruits_pineapple_4.png	136	inanimate	fruits	pineapple	4	0	4	stars	4	correct	2.07104977837298
365951	1	stim131_inanimate_fruits_grape_3.png	131	inanimate	fruits	grape	3	0	4	stars	4	correct	2.07104977837298
366152	1	stim197_inanimate_tools_wrench_1.png	197	inanimate	tools	wrench	1	0	4	stars	4	correct	2.07104977837298
366351	1	stim004_animate_aquatic_crab_4.png	4	animate	aquatic	crab	4	0	4	stars	4	correct	2.07104977837298
366551	1	stim139_inanimate_fruits_strawberry_3.png	139	inanimate	fruits	strawberry	3	0	4	stars	4	correct	2.07104977837298
366751	1	stim177_inanimate_plants_tulip_1.png	177	inanimate	plants	tulip	1	0	4	stars	4	correct	2.07104977837298
366951	1	stim117_inanimate_clothing_socks_1.png	117	inanimate	clothing	socks	1	0	4	stars	4	correct	2.07104977837298
367151	1	stim015_animate_aquatic_shark_3.png	15	animate	aquatic	shark	3	0	4	stars	4	correct	2.07104977837298
367352	1	stim107_inanimate_clothing_hat_3.png	107	inanimate	clothing	hat	3	0	4	stars	4	correct	2.07104977837298
367552	1	stim090_animate_mammal_kangaroo_2.png	90	animate	mammal	kangaroo	2	0	4	stars	4	correct	2.07104977837298
367752	1	stim105_inanimate_clothing_hat_1.png	105	inanimate	clothing	hat	1	0	4	stars	4	correct	2.07104977837298
367951	1	stim078_animate_insect_grasshopper_2.png	78	animate	insect	grasshopper	2	0	4	stars	4	correct	2.07104977837298
368152	1	stim214_targets_shapes_star_2.png	214	targets	shapes	star	2	1	4	stars	4	correct	2.07104977837298
368352	1	stim068_animate_insect_bug_4.png	68	animate	insect	bug	4	0	4	stars	4	correct	2.07104977837298
368552	1	stim168_inanimate_plants_cactus_4.png	168	inanimate	plants	cactus	4	0	4	stars	4	correct	2.07104977837298
368752	1	stim190_inanimate_tools_pan_2.png	190	inanimate	tools	pan	2	0	4	stars	4	correct	2.07104977837298
368952	1	stim158_inanimate_furniture_table_2.png	158	inanimate	furniture	table	2	0	4	stars	4	correct	2.07104977837298
369152	1	stim124_inanimate_fruits_apple_4.png	124	inanimate	fruits	apple	4	0	4	stars	4	correct	2.07104977837298
369352	1	stim010_animate_aquatic_seahorse_2.png	10	animate	aquatic	seahorse	2	0	4	stars	4	correct	2.07104977837298
369552	1	stim049_animate_human_clown_1.png	49	animate	human	clown	1	0	4	stars	4	correct	2.07104977837298
369752	1	stim075_animate_insect_dragonfly_3.png	75	animate	insect	dragonfly	3	0	4	stars	4	correct	2.07104977837298
369952	1	stim154_inanimate_furniture_sofa_2.png	154	inanimate	furniture	sofa	2	0	4	stars	4	correct	2.07104977837298
370152	1	stim110_inanimate_clothing_jeans_2.png	110	inanimate	clothing	jeans	2	0	4	stars	4	correct	2.07104977837298
370352	1	stim148_inanimate_furniture_chair_4.png	148	inanimate	furniture	chair	4	0	4	stars	4	correct	2.07104977837298
370552	1	stim005_animate_aquatic_fish_1.png	5	animate	aquatic	fish	1	0	4	stars	4	correct	2.07104977837298
370752	1	stim166_inanimate_plants_cactus_2.png	166	inanimate	plants	cactus	2	0	4	stars	4	correct	2.07104977837298
370952	1	stim155_inanimate_furniture_sofa_3.png	155	inanimate	furniture	sofa	3	0	4	stars	4	correct	2.07104977837298
371152	1	stim067_animate_insect_bug_3.png	67	animate	insect	bug	3	0	4	stars	4	correct	2.07104977837298
371352	1	stim088_animate_mammal_giraffe_4.png	88	animate	mammal	giraffe	4	0	4	stars	4	correct	2.07104977837298
371552	1	stim184_inanimate_tools_broom_4.png	184	inanimate	tools	broom	4	0	4	stars	4	correct	2.07104977837298
371752	1	stim097_animate_mammal_rhino_1.png	97	animate	mammal	rhino	1	0	4	stars	4	correct	2.07104977837298
371952	1	stim050_animate_human_clown_2.png	50	animate	human	clown	2	0	4	stars	4	correct	2.07104977837298
372152	1	stim091_animate_mammal_kangaroo_3.png	91	animate	mammal	kangaroo	3	0	4	stars	4	correct	2.07104977837298
372352	1	stim126_inanimate_fruits_banana_2.png	126	inanimate	fruits	banana	2	0	4	stars	4	correct	2.07104977837298
372552	1	stim129_inanimate_fruits_grape_1.png	129	inanimate	fruits	grape	1	0	4	stars	4	correct	2.07104977837298
372752	1	stim032_animate_bird_parrot_4.png	32	animate	bird	parrot	4	0	4	stars	4	correct	2.07104977837298
372952	1	stim054_animate_human_faces_2.png	54	animate	human	faces	2	0	4	stars	4	correct	2.07104977837298
373152	1	stim007_animate_aquatic_fish_3.png	7	animate	aquatic	fish	3	0	4	stars	4	correct	2.07104977837298
373352	1	stim175_inanimate_plants_tree_3.png	175	inanimate	plants	tree	3	0	4	stars	4	correct	2.07104977837298
373552	1	stim013_animate_aquatic_shark_1.png	13	animate	aquatic	shark	1	0	4	stars	4	correct	2.07104977837298
373752	1	stim209_targets_shapes_star_1.png	209	targets	shapes	star	1	1	4	stars	4	correct	2.07104977837298
373952	1	stim161_inanimate_plants_bush_1.png	161	inanimate	plants	bush	1	0	4	stars	4	correct	2.07104977837298
374152	1	stim039_animate_bird_penguin_3.png	39	animate	bird	penguin	3	0	4	stars	4	correct	2.07104977837298
374352	1	stim164_inanimate_plants_bush_4.png	164	inanimate	plants	bush	4	0	4	stars	4	correct	2.07104977837298
374552	1	stim115_inanimate_clothing_shirt_3.png	115	inanimate	clothing	shirt	3	0	4	stars	4	correct	2.07104977837298
374752	1	stim174_inanimate_plants_tree_2.png	174	inanimate	plants	tree	2	0	4	stars	4	correct	2.07104977837298
374952	1	stim187_inanimate_tools_hammer_3.png	187	inanimate	tools	hammer	3	0	4	stars	4	correct	2.07104977837298
375152	1	stim024_animate_bird_chicken_4.png	24	animate	bird	chicken	4	0	4	stars	4	correct	2.07104977837298
375352	1	stim057_animate_human_sports_1.png	57	animate	human	sports	1	0	4	stars	4	correct	2.07104977837298
375552	1	stim059_animate_human_sports_3.png	59	animate	human	sports	3	0	4	stars	4	correct	2.07104977837298
375752	1	stim163_inanimate_plants_bush_3.png	163	inanimate	plants	bush	3	0	4	stars	4	correct	2.07104977837298
375952	1	stim053_animate_human_faces_1.png	53	animate	human	faces	1	0	4	stars	4	correct	2.07104977837298
376152	1	stim098_animate_mammal_rhino_2.png	98	animate	mammal	rhino	2	0	4	stars	4	correct	2.07104977837298
376352	1	stim029_animate_bird_parrot_1.png	29	animate	bird	parrot	1	0	4	stars	4	correct	2.07104977837298
376552	1	stim112_inanimate_clothing_jeans_4.png	112	inanimate	clothing	jeans	4	0	4	stars	4	correct	2.07104977837298
376752	1	stim118_inanimate_clothing_socks_2.png	118	inanimate	clothing	socks	2	0	4	stars	4	correct	2.07104977837298
376952	1	stim108_inanimate_clothing_hat_4.png	108	inanimate	clothing	hat	4	0	4	stars	4	correct	2.07104977837298
377152	1	stim125_inanimate_fruits_banana_1.png	125	inanimate	fruits	banana	1	0	4	stars	4	correct	2.07104977837298
377352	1	stim045_animate_human_child_1.png	45	animate	human	child	1	0	4	stars	4	correct	2.07104977837298
377552	1	stim003_animate_aquatic_crab_3.png	3	animate	aquatic	crab	3	0	4	stars	4	correct	2.07104977837298
377752	1	stim023_animate_bird_chicken_3.png	23	animate	bird	chicken	3	0	4	stars	4	correct	2.07104977837298
377952	1	stim095_animate_mammal_monkey_3.png	95	animate	mammal	monkey	3	0	4	stars	4	correct	2.07104977837298
378152	1	stim157_inanimate_furniture_table_1.png	157	inanimate	furniture	table	1	0	4	stars	4	correct	2.07104977837298
378352	1	stim016_animate_aquatic_shark_4.png	16	animate	aquatic	shark	4	0	4	stars	4	correct	2.07104977837298
378552	1	stim062_animate_insect_ant_2.png	62	animate	insect	ant	2	0	4	stars	4	correct	2.07104977837298
378752	1	stim030_animate_bird_parrot_2.png	30	animate	bird	parrot	2	0	4	stars	4	correct	2.07104977837298
378952	1	stim198_inanimate_tools_wrench_2.png	198	inanimate	tools	wrench	2	0	4	stars	4	correct	2.07104977837298
379152	1	stim181_inanimate_tools_broom_1.png	181	inanimate	tools	broom	1	0	4	stars	4	correct	2.07104977837298
379352	1	stim141_inanimate_furniture_bed_1.png	141	inanimate	furniture	bed	1	0	4	stars	4	correct	2.07104977837298
379552	1	stim114_inanimate_clothing_shirt_2.png	114	inanimate	clothing	shirt	2	0	4	stars	4	correct	2.07104977837298
379752	1	stim149_inanimate_furniture_closet_1.png	149	inanimate	furniture	closet	1	0	4	stars	4	correct	2.07104977837298
379952	1	stim042_animate_human_baby_2.png	42	animate	human	baby	2	0	4	stars	4	correct	2.07104977837298
380152	1	stim012_animate_aquatic_seahorse_4.png	12	animate	aquatic	seahorse	4	0	4	stars	4	correct	2.07104977837298
380352	1	stim036_animate_bird_peacock_4.png	36	animate	bird	peacock	4	0	4	stars	4	correct	2.07104977837298
380552	1	stim128_inanimate_fruits_banana_4.png	128	inanimate	fruits	banana	4	0	4	stars	4	correct	2.07104977837298
380752	1	stim011_animate_aquatic_seahorse_3.png	11	animate	aquatic	seahorse	3	0	4	stars	4	correct	2.07104977837298
380952	1	stim066_animate_insect_bug_2.png	66	animate	insect	bug	2	0	4	stars	4	correct	2.07104977837298
381152	1	stim135_inanimate_fruits_pineapple_3.png	135	inanimate	fruits	pineapple	3	0	4	stars	4	correct	2.07104977837298
381352	1	stim076_animate_insect_dragonfly_4.png	76	animate	insect	dragonfly	4	0	4	stars	4	correct	2.07104977837298
381552	1	stim137_inanimate_fruits_strawberry_1.png	137	inanimate	fruits	strawberry	1	0	4	stars	4	correct	2.07104977837298
381752	1	stim099_animate_mammal_rhino_3.png	99	animate	mammal	rhino	3	0	4	stars	4	correct	2.07104977837298
381952	1	stim008_animate_aquatic_fish_4.png	8	animate	aquatic	fish	4	0	4	stars	4	correct	2.07104977837298
382152	1	stim019_animate_aquatic_shrimp_3.png	19	animate	aquatic	shrimp	3	0	4	stars	4	correct	2.07104977837298
382352	1	stim052_animate_human_clown_4.png	52	animate	human	clown	4	0	4	stars	4	correct	2.07104977837298
382552	1	stim025_animate_bird_duck_1.png	25	animate	bird	duck	1	0	4	stars	4	correct	2.07104977837298
382752	1	stim132_inanimate_fruits_grape_4.png	132	inanimate	fruits	grape	4	0	4	stars	4	correct	2.07104977837298
382952	1	stim179_inanimate_plants_tulip_3.png	179	inanimate	plants	tulip	3	0	4	stars	4	correct	2.07104977837298
383152	1	stim215_targets_shapes_star_3.png	215	targets	shapes	star	3	1	4	stars	4	correct	2.07104977837298
383352	1	stim040_animate_bird_penguin_4.png	40	animate	bird	penguin	4	0	4	stars	4	correct	2.07104977837298
383552	1	stim169_inanimate_plants_sunflower_1.png	169	inanimate	plants	sunflower	1	0	4	stars	4	correct	2.07104977837298
383752	1	stim147_inanimate_furniture_chair_3.png	147	inanimate	furniture	chair	3	0	4	stars	4	correct	2.07104977837298
383952	1	stim027_animate_bird_duck_3.png	27	animate	bird	duck	3	0	4	stars	4	correct	2.07104977837298
384152	1	stim064_animate_insect_ant_4.png	64	animate	insect	ant	4	0	4	stars	4	correct	2.07104977837298
384352	1	stim146_inanimate_furniture_chair_2.png	146	inanimate	furniture	chair	2	0	4	stars	4	correct	2.07104977837298
384552	1	stim103_inanimate_clothing_gloves_3.png	103	inanimate	clothing	gloves	3	0	4	stars	4	correct	2.07104977837298
384752	1	stim084_animate_mammal_cow_4.png	84	animate	mammal	cow	4	0	4	stars	4	correct	2.07104977837298
384952	1	stim069_animate_insect_butterfly_1.png	69	animate	insect	butterfly	1	0	4	stars	4	correct	2.07104977837298
385152	1	stim142_inanimate_furniture_bed_2.png	142	inanimate	furniture	bed	2	0	4	stars	4	correct	2.07104977837298
385352	1	stim173_inanimate_plants_tree_1.png	173	inanimate	plants	tree	1	0	4	stars	4	correct	2.07104977837298
385552	1	stim065_animate_insect_bug_1.png	65	animate	insect	bug	1	0	4	stars	4	correct	2.07104977837298
385752	1	stim140_inanimate_fruits_strawberry_4.png	140	inanimate	fruits	strawberry	4	0	4	stars	4	correct	2.07104977837298
385952	1	stim167_inanimate_plants_cactus_3.png	167	inanimate	plants	cactus	3	0	4	stars	4	correct	2.07104977837298
386152	1	stim034_animate_bird_peacock_2.png	34	animate	bird	peacock	2	0	4	stars	4	correct	2.07104977837298
386352	1	stim087_animate_mammal_giraffe_3.png	87	animate	mammal	giraffe	3	0	4	stars	4	correct	2.07104977837298
386552	1	stim176_inanimate_plants_tree_4.png	176	inanimate	plants	tree	4	0	4	stars	4	correct	2.07104977837298
386752	1	stim185_inanimate_tools_hammer_1.png	185	inanimate	tools	hammer	1	0	4	stars	4	correct	2.07104977837298
386952	1	stim041_animate_human_baby_1.png	41	animate	human	baby	1	0	4	stars	4	correct	2.07104977837298
387152	1	stim083_animate_mammal_cow_3.png	83	animate	mammal	cow	3	0	4	stars	4	correct	2.07104977837298
387352	1	stim170_inanimate_plants_sunflower_2.png	170	inanimate	plants	sunflower	2	0	4	stars	4	correct	2.07104977837298
387552	1	stim081_animate_mammal_cow_1.png	81	animate	mammal	cow	1	0	4	stars	4	correct	2.07104977837298
387752	1	stim152_inanimate_furniture_closet_4.png	152	inanimate	furniture	closet	4	0	4	stars	4	correct	2.07104977837298
387952	1	stim191_inanimate_tools_pan_3.png	191	inanimate	tools	pan	3	0	4	stars	4	correct	2.07104977837298
388152	1	stim133_inanimate_fruits_pineapple_1.png	133	inanimate	fruits	pineapple	1	0	4	stars	4	correct	2.07104977837298
388352	1	stim111_inanimate_clothing_jeans_3.png	111	inanimate	clothing	jeans	3	0	4	stars	4	correct	2.07104977837298
388552	1	stim165_inanimate_plants_cactus_1.png	165	inanimate	plants	cactus	1	0	4	stars	4	correct	2.07104977837298
388752	1	stim080_animate_insect_grasshopper_4.png	80	animate	insect	grasshopper	4	0	4	stars	4	correct	2.07104977837298
388952	1	stim151_inanimate_furniture_closet_3.png	151	inanimate	furniture	closet	3	0	4	stars	4	correct	2.07104977837298
389152	1	stim200_inanimate_tools_wrench_4.png	200	inanimate	tools	wrench	4	0	4	stars	4	correct	2.07104977837298
389352	1	stim072_animate_insect_butterfly_4.png	72	animate	insect	butterfly	4	0	4	stars	4	correct	2.07104977837298
389552	1	stim216_targets_shapes_star_4.png	216	targets	shapes	star	4	1	4	stars	4	correct	2.07104977837298
389752	1	stim192_inanimate_tools_pan_4.png	192	inanimate	tools	pan	4	0	4	stars	4	correct	2.07104977837298
389952	1	stim048_animate_human_child_4.png	48	animate	human	child	4	0	4	stars	4	correct	2.07104977837298
390152	1	stim037_animate_bird_penguin_1.png	37	animate	bird	penguin	1	0	4	stars	4	correct	2.07104977837298
390352	1	stim104_inanimate_clothing_gloves_4.png	104	inanimate	clothing	gloves	4	0	4	stars	4	correct	2.07104977837298
390552	1	stim160_inanimate_furniture_table_4.png	160	inanimate	furniture	table	4	0	4	stars	4	correct	2.07104977837298
390752	1	stim063_animate_insect_ant_3.png	63	animate	insect	ant	3	0	4	stars	4	correct	2.07104977837298
390952	1	stim194_inanimate_tools_scissors_2.png	194	inanimate	tools	scissors	2	0	4	stars	4	correct	2.07104977837298
391152	1	stim150_inanimate_furniture_closet_2.png	150	inanimate	furniture	closet	2	0	4	stars	4	correct	2.07104977837298
391352	1	stim189_inanimate_tools_pan_1.png	189	inanimate	tools	pan	1	0	4	stars	4	correct	2.07104977837298
391552	1	stim031_animate_bird_parrot_3.png	31	animate	bird	parrot	3	0	4	stars	4	correct	2.07104977837298
391752	1	stim127_inanimate_fruits_banana_3.png	127	inanimate	fruits	banana	3	0	4	stars	4	correct	2.07104977837298
391952	1	stim001_animate_aquatic_crab_1.png	1	animate	aquatic	crab	1	0	4	stars	4	correct	2.07104977837298
392152	1	stim089_animate_mammal_kangaroo_1.png	89	animate	mammal	kangaroo	1	0	4	stars	4	correct	2.07104977837298
392352	1	stim077_animate_insect_grasshopper_1.png	77	animate	insect	grasshopper	1	0	4	stars	4	correct	2.07104977837298
392552	1	stim145_inanimate_furniture_chair_1.png	145	inanimate	furniture	chair	1	0	4	stars	4	correct	2.07104977837298
392752	1	stim033_animate_bird_peacock_1.png	33	animate	bird	peacock	1	0	4	stars	4	correct	2.07104977837298
392952	1	stim085_animate_mammal_giraffe_1.png	85	animate	mammal	giraffe	1	0	4	stars	4	correct	2.07104977837298
393152	1	stim138_inanimate_fruits_strawberry_2.png	138	inanimate	fruits	strawberry	2	0	4	stars	4	correct	2.07104977837298
393352	1	stim144_inanimate_furniture_bed_4.png	144	inanimate	furniture	bed	4	0	4	stars	4	correct	2.07104977837298
393552	1	stim055_animate_human_faces_3.png	55	animate	human	faces	3	0	4	stars	4	correct	2.07104977837298
393752	1	stim051_animate_human_clown_3.png	51	animate	human	clown	3	0	4	stars	4	correct	2.07104977837298
393952	1	stim119_inanimate_clothing_socks_3.png	119	inanimate	clothing	socks	3	0	4	stars	4	correct	2.07104977837298
394152	1	stim020_animate_aquatic_shrimp_4.png	20	animate	aquatic	shrimp	4	0	4	stars	4	correct	2.07104977837298
394352	1	stim122_inanimate_fruits_apple_2.png	122	inanimate	fruits	apple	2	0	4	stars	4	correct	2.07104977837298
394552	1	stim182_inanimate_tools_broom_2.png	182	inanimate	tools	broom	2	0	4	stars	4	correct	2.07104977837298
394752	1	stim102_inanimate_clothing_gloves_2.png	102	inanimate	clothing	gloves	2	0	4	stars	4	correct	2.07104977837298
394952	1	stim199_inanimate_tools_wrench_3.png	199	inanimate	tools	wrench	3	0	4	stars	4	correct	2.07104977837298
395152	1	stim196_inanimate_tools_scissors_4.png	196	inanimate	tools	scissors	4	0	4	stars	4	correct	2.07104977837298
395352	1	stim172_inanimate_plants_sunflower_4.png	172	inanimate	plants	sunflower	4	0	4	stars	4	correct	2.07104977837298
395552	1	stim092_animate_mammal_kangaroo_4.png	92	animate	mammal	kangaroo	4	0	4	stars	4	correct	2.07104977837298
395752	1	stim021_animate_bird_chicken_1.png	21	animate	bird	chicken	1	0	4	stars	4	correct	2.07104977837298
395952	1	stim071_animate_insect_butterfly_3.png	71	animate	insect	butterfly	3	0	4	stars	4	correct	2.07104977837298
396152	1	stim162_inanimate_plants_bush_2.png	162	inanimate	plants	bush	2	0	4	stars	4	correct	2.07104977837298
396352	1	stim123_inanimate_fruits_apple_3.png	123	inanimate	fruits	apple	3	0	4	stars	4	correct	2.07104977837298
396552	1	stim082_animate_mammal_cow_2.png	82	animate	mammal	cow	2	0	4	stars	4	correct	2.07104977837298
396752	1	stim035_animate_bird_peacock_3.png	35	animate	bird	peacock	3	0	4	stars	4	correct	2.07104977837298
396952	1	stim195_inanimate_tools_scissors_3.png	195	inanimate	tools	scissors	3	0	4	stars	4	correct	2.07104977837298
397152	1	stim028_animate_bird_duck_4.png	28	animate	bird	duck	4	0	4	stars	4	correct	2.07104977837298
397352	1	stim026_animate_bird_duck_2.png	26	animate	bird	duck	2	0	4	stars	4	correct	2.07104977837298
397552	1	stim153_inanimate_furniture_sofa_1.png	153	inanimate	furniture	sofa	1	0	4	stars	4	correct	2.07104977837298
397752	1	stim120_inanimate_clothing_socks_4.png	120	inanimate	clothing	socks	4	0	4	stars	4	correct	2.07104977837298
397952	1	stim073_animate_insect_dragonfly_1.png	73	animate	insect	dragonfly	1	0	4	stars	4	correct	2.07104977837298
398152	1	stim017_animate_aquatic_shrimp_1.png	17	animate	aquatic	shrimp	1	0	4	stars	4	correct	2.07104977837298
398352	1	stim074_animate_insect_dragonfly_2.png	74	animate	insect	dragonfly	2	0	4	stars	4	correct	2.07104977837298
398552	1	stim056_animate_human_faces_4.png	56	animate	human	faces	4	0	4	stars	4	correct	2.07104977837298
398752	1	stim079_animate_insect_grasshopper_3.png	79	animate	insect	grasshopper	3	0	4	stars	4	correct	2.07104977837298
398952	1	stim047_animate_human_child_3.png	47	animate	human	child	3	0	4	stars	4	correct	2.07104977837298
399152	1	stim058_animate_human_sports_2.png	58	animate	human	sports	2	0	4	stars	4	correct	2.07104977837298
399352	1	stim006_animate_aquatic_fish_2.png	6	animate	aquatic	fish	2	0	4	stars	4	correct	2.07104977837298
399552	1	stim094_animate_mammal_monkey_2.png	94	animate	mammal	monkey	2	0	4	stars	4	correct	2.07104977837298
406869	1	stim190_inanimate_tools_pan_2.png	190	inanimate	tools	pan	2	0	5	stars	3	correct	2.26480088930111
407069	1	stim083_animate_mammal_cow_3.png	83	animate	mammal	cow	3	0	5	stars	3	correct	2.26480088930111
407269	1	stim137_inanimate_fruits_strawberry_1.png	137	inanimate	fruits	strawberry	1	0	5	stars	3	correct	2.26480088930111
407469	1	stim127_inanimate_fruits_banana_3.png	127	inanimate	fruits	banana	3	0	5	stars	3	correct	2.26480088930111
407669	1	stim079_animate_insect_grasshopper_3.png	79	animate	insect	grasshopper	3	0	5	stars	3	correct	2.26480088930111
407869	1	stim010_animate_aquatic_seahorse_2.png	10	animate	aquatic	seahorse	2	0	5	stars	3	correct	2.26480088930111
408069	1	stim053_animate_human_faces_1.png	53	animate	human	faces	1	0	5	stars	3	correct	2.26480088930111
408269	1	stim006_animate_aquatic_fish_2.png	6	animate	aquatic	fish	2	0	5	stars	3	correct	2.26480088930111
408469	1	stim141_inanimate_furniture_bed_1.png	141	inanimate	furniture	bed	1	0	5	stars	3	correct	2.26480088930111
408669	1	stim104_inanimate_clothing_gloves_4.png	104	inanimate	clothing	gloves	4	0	5	stars	3	correct	2.26480088930111
408869	1	stim044_animate_human_baby_4.png	44	animate	human	baby	4	0	5	stars	3	correct	2.26480088930111
409069	1	stim026_animate_bird_duck_2.png	26	animate	bird	duck	2	0	5	stars	3	correct	2.26480088930111
409269	1	stim200_inanimate_tools_wrench_4.png	200	inanimate	tools	wrench	4	0	5	stars	3	correct	2.26480088930111
409469	1	stim154_inanimate_furniture_sofa_2.png	154	inanimate	furniture	sofa	2	0	5	stars	3	correct	2.26480088930111
409669	1	stim094_animate_mammal_monkey_2.png	94	animate	mammal	monkey	2	0	5	stars	3	correct	2.26480088930111
409869	1	stim009_animate_aquatic_seahorse_1.png	9	animate	aquatic	seahorse	1	0	5	stars	3	correct	2.26480088930111
410069	1	stim121_inanimate_fruits_apple_1.png	121	inanimate	fruits	apple	1	0	5	stars	3	correct	2.26480088930111
410269	1	stim111_inanimate_clothing_jeans_3.png	111	inanimate	clothing	jeans	3	0	5	stars	3	correct	2.26480088930111
410469	1	stim132_inanimate_fruits_grape_4.png	132	inanimate	fruits	grape	4	0	5	stars	3	correct	2.26480088930111
410669	1	stim120_inanimate_clothing_socks_4.png	120	inanimate	clothing	socks	4	0	5	stars	3	correct	2.26480088930111
410869	1	stim138_inanimate_fruits_strawberry_2.png	138	inanimate	fruits	strawberry	2	0	5	stars	3	correct	2.26480088930111
411069	1	stim036_animate_bird_peacock_4.png	36	animate	bird	peacock	4	0	5	stars	3	correct	2.26480088930111
411269	1	stim187_inanimate_tools_hammer_3.png	187	inanimate	tools	hammer	3	0	5	stars	3	correct	2.26480088930111
411469	1	stim194_inanimate_tools_scissors_2.png	194	inanimate	tools	scissors	2	0	5	stars	3	correct	2.26480088930111
411669	1	stim118_inanimate_clothing_socks_2.png	118	inanimate	clothing	socks	2	0	5	stars	3	correct	2.26480088930111
411869	1	stim066_animate_insect_bug_2.png	66	animate	insect	bug	2	0	5	stars	3	correct	2.26480088930111
412069	1	stim086_animate_mammal_giraffe_2.png	86	animate	mammal	giraffe	2	0	5	stars	3	correct	2.26480088930111
412269	1	stim176_inanimate_plants_tree_4.png	176	inanimate	plants	tree	4	0	5	stars	3	correct	2.26480088930111
412469	1	stim003_animate_aquatic_crab_3.png	3	animate	aquatic	crab	3	0	5	stars	3	correct	2.26480088930111
412669	1	stim159_inanimate_furniture_table_3.png	159	inanimate	furniture	table	3	0	5	stars	3	correct	2.26480088930111
412869	1	stim029_animate_bird_parrot_1.png	29	animate	bird	parrot	1	0	5	stars	3	correct	2.26480088930111
413069	1	stim196_inanimate_tools_scissors_4.png	196	inanimate	tools	scissors	4	0	5	stars	3	correct	2.26480088930111
413269	1	stim067_animate_insect_bug_3.png	67	animate	insect	bug	3	0	5	stars	3	correct	2.26480088930111
413469	1	stim071_animate_insect_butterfly_3.png	71	animate	insect	butterfly	3	0	5	stars	3	correct	2.26480088930111
413669	1	stim081_animate_mammal_cow_1.png	81	animate	mammal	cow	1	0	5	stars	3	correct	2.26480088930111
413869	1	stim064_animate_insect_ant_4.png	64	animate	insect	ant	4	0	5	stars	3	correct	2.26480088930111
414069	1	stim116_inanimate_clothing_shirt_4.png	116	inanimate	clothing	shirt	4	0	5	stars	3	correct	2.26480088930111
414269	1	stim136_inanimate_fruits_pineapple_4.png	136	inanimate	fruits	pineapple	4	0	5	stars	3	correct	2.26480088930111
414469	1	stim056_animate_human_faces_4.png	56	animate	human	faces	4	0	5	stars	3	correct	2.26480088930111
414669	1	stim060_animate_human_sports_4.png	60	animate	human	sports	4	0	5	stars	3	correct	2.26480088930111
414869	1	stim130_inanimate_fruits_grape_2.png	130	inanimate	fruits	grape	2	0	5	stars	3	correct	2.26480088930111
415069	1	stim145_inanimate_furniture_chair_1.png	145	inanimate	furniture	chair	1	0	5	stars	3	correct	2.26480088930111
415269	1	stim115_inanimate_clothing_shirt_3.png	115	inanimate	clothing	shirt	3	0	5	stars	3	correct	2.26480088930111
415469	1	stim015_animate_aquatic_shark_3.png	15	animate	aquatic	shark	3	0	5	stars	3	correct	2.26480088930111
415669	1	stim128_inanimate_fruits_banana_4.png	128	inanimate	fruits	banana	4	0	5	stars	3	correct	2.26480088930111
415869	1	stim023_animate_bird_chicken_3.png	23	animate	bird	chicken	3	0	5	stars	3	correct	2.26480088930111
416069	1	stim045_animate_human_child_1.png	45	animate	human	child	1	0	5	stars	3	correct	2.26480088930111
416269	1	stim013_animate_aquatic_shark_1.png	13	animate	aquatic	shark	1	0	5	stars	3	correct	2.26480088930111
416469	1	stim037_animate_bird_penguin_1.png	37	animate	bird	penguin	1	0	5	stars	3	correct	2.26480088930111
416669	1	stim212_targets_shapes_star_4.png	212	targets	shapes	star	4	1	5	stars	3	correct	2.26480088930111
416869	1	stim052_animate_human_clown_4.png	52	animate	human	clown	4	0	5	stars	3	correct	2.26480088930111
417069	1	stim108_inanimate_clothing_hat_4.png	108	inanimate	clothing	hat	4	0	5	stars	3	correct	2.26480088930111
417269	1	stim175_inanimate_plants_tree_3.png	175	inanimate	plants	tree	3	0	5	stars	3	correct	2.26480088930111
417469	1	stim055_animate_human_faces_3.png	55	animate	human	faces	3	0	5	stars	3	correct	2.26480088930111
417669	1	stim025_animate_bird_duck_1.png	25	animate	bird	duck	1	0	5	stars	3	correct	2.26480088930111
417869	1	stim168_inanimate_plants_cactus_4.png	168	inanimate	plants	cactus	4	0	5	stars	3	correct	2.26480088930111
418069	1	stim069_animate_insect_butterfly_1.png	69	animate	insect	butterfly	1	0	5	stars	3	correct	2.26480088930111
418269	1	stim002_animate_aquatic_crab_2.png	2	animate	aquatic	crab	2	0	5	stars	3	correct	2.26480088930111
418469	1	stim148_inanimate_furniture_chair_4.png	148	inanimate	furniture	chair	4	0	5	stars	3	correct	2.26480088930111
418669	1	stim182_inanimate_tools_broom_2.png	182	inanimate	tools	broom	2	0	5	stars	3	correct	2.26480088930111
418869	1	stim155_inanimate_furniture_sofa_3.png	155	inanimate	furniture	sofa	3	0	5	stars	3	correct	2.26480088930111
419069	1	stim131_inanimate_fruits_grape_3.png	131	inanimate	fruits	grape	3	0	5	stars	3	correct	2.26480088930111
419269	1	stim032_animate_bird_parrot_4.png	32	animate	bird	parrot	4	0	5	stars	3	correct	2.26480088930111
419469	1	stim076_animate_insect_dragonfly_4.png	76	animate	insect	dragonfly	4	0	5	stars	3	correct	2.26480088930111
419669	1	stim091_animate_mammal_kangaroo_3.png	91	animate	mammal	kangaroo	3	0	5	stars	3	correct	2.26480088930111
419869	1	stim024_animate_bird_chicken_4.png	24	animate	bird	chicken	4	0	5	stars	3	correct	2.26480088930111
420069	1	stim078_animate_insect_grasshopper_2.png	78	animate	insect	grasshopper	2	0	5	stars	3	correct	2.26480088930111
420269	1	stim085_animate_mammal_giraffe_1.png	85	animate	mammal	giraffe	1	0	5	stars	3	correct	2.26480088930111
420469	1	stim160_inanimate_furniture_table_4.png	160	inanimate	furniture	table	4	0	5	stars	3	correct	2.26480088930111
420669	1	stim178_inanimate_plants_tulip_2.png	178	inanimate	plants	tulip	2	0	5	stars	3	correct	2.26480088930111
420869	1	stim152_inanimate_furniture_closet_4.png	152	inanimate	furniture	closet	4	0	5	stars	3	correct	2.26480088930111
421069	1	stim109_inanimate_clothing_jeans_1.png	109	inanimate	clothing	jeans	1	0	5	stars	3	correct	2.26480088930111
421269	1	stim096_animate_mammal_monkey_4.png	96	animate	mammal	monkey	4	0	5	stars	3	correct	2.26480088930111
421469	1	stim135_inanimate_fruits_pineapple_3.png	135	inanimate	fruits	pineapple	3	0	5	stars	3	correct	2.26480088930111
421669	1	stim017_animate_aquatic_shrimp_1.png	17	animate	aquatic	shrimp	1	0	5	stars	3	correct	2.26480088930111
421869	1	stim054_animate_human_faces_2.png	54	animate	human	faces	2	0	5	stars	3	correct	2.26480088930111
422069	1	stim189_inanimate_tools_pan_1.png	189	inanimate	tools	pan	1	0	5	stars	3	correct	2.26480088930111
422269	1	stim166_inanimate_plants_cactus_2.png	166	inanimate	plants	cactus	2	0	5	stars	3	correct	2.26480088930111
422469	1	stim021_animate_bird_chicken_1.png	21	animate	bird	chicken	1	0	5	stars	3	correct	2.26480088930111
422669	1	stim177_inanimate_plants_tulip_1.png	177	inanimate	plants	tulip	1	0	5	stars	3	correct	2.26480088930111
422869	1	stim153_inanimate_furniture_sofa_1.png	153	inanimate	furniture	sofa	1	0	5	stars	3	correct	2.26480088930111
