onset	duration	stimulusname	stimulusnumber	levelA	levelB	levelC	withinexemplarnumber	istarget	trialnumber	condition	response	correct	rt
18485	1	stim083_animate_mammal_cow_3.png	83	animate	mammal	cow	3	0	1	boats	1	correct	1.48736968373123
18535	1	stim048_animate_human_child_4.png	48	animate	human	child	4	0	1	boats	1	correct	1.48736968373123
18585	1	stim120_inanimate_clothing_socks_4.png	120	inanimate	clothing	socks	4	0	1	boats	1	correct	1.48736968373123
18635	1	stim141_inanimate_furniture_bed_1.png	141	inanimate	furniture	bed	1	0	1	boats	1	correct	1.48736968373123
18685	1	stim134_inanimate_fruits_pineapple_2.png	134	inanimate	fruits	pineapple	2	0	1	boats	1	correct	1.48736968373123
18735	1	stim113_inanimate_clothing_shirt_1.png	113	inanimate	clothing	shirt	1	0	1	boats	1	correct	1.48736968373123
18785	1	stim191_inanimate_tools_pan_3.png	191	inanimate	tools	pan	3	0	1	boats	1	correct	1.48736968373123
18835	1	stim002_animate_aquatic_crab_2.png	2	animate	aquatic	crab	2	0	1	boats	1	correct	1.48736968373123
18885	1	stim075_animate_insect_dragonfly_3.png	75	animate	insect	dragonfly	3	0	1	boats	1	correct	1.48736968373123
18935	1	stim047_animate_human_child_3.png	47	animate	human	child	3	0	1	boats	1	correct	1.48736968373123
18985	1	stim012_animate_aquatic_seahorse_4.png	12	animate	aquatic	seahorse	4	0	1	boats	1	correct	1.48736968373123
19035	1	stim121_inanimate_fruits_apple_1.png	121	inanimate	fruits	apple	1	0	1	boats	1	correct	1.48736968373123
19085	1	stim072_animate_insect_butterfly_4.png	72	animate	insect	butterfly	4	0	1	boats	1	correct	1.48736968373123
19135	1	stim200_inanimate_tools_wrench_4.png	200	inanimate	tools	wrench	4	0	1	boats	1	correct	1.48736968373123
19185	1	stim153_inanimate_furniture_sofa_1.png	153	inanimate	furniture	sofa	1	0	1	boats	1	correct	1.48736968373123
19235	1	stim118_inanimate_clothing_socks_2.png	118	inanimate	clothing	socks	2	0	1	boats	1	correct	1.48736968373123
19285	1	stim188_inanimate_tools_hammer_4.png	188	inanimate	tools	hammer	4	0	1	boats	1	correct	1.48736968373123
19335	1	stim169_inanimate_plants_sunflower_1.png	169	inanimate	plants	sunflower	1	0	1	boats	1	correct	1.48736968373123
19385	1	stim037_animate_bird_penguin_1.png	37	animate	bird	penguin	1	0	1	boats	1	correct	1.48736968373123
19435	1	stim197_inanimate_tools_wrench_1.png	197	inanimate	tools	wrench	1	0	1	boats	1	correct	1.48736968373123
19485	1	stim074_animate_insect_dragonfly_2.png	74	animate	insect	dragonfly	2	0	1	boats	1	correct	1.48736968373123
19535	1	stim198_inanimate_tools_wrench_2.png	198	inanimate	tools	wrench	2	0	1	boats	1	correct	1.48736968373123
19585	1	stim132_inanimate_fruits_grape_4.png	132	inanimate	fruits	grape	4	0	1	boats	1	correct	1.48736968373123
19635	1	stim133_inanimate_fruits_pineapple_1.png	133	inanimate	fruits	pineapple	1	0	1	boats	1	correct	1.48736968373123
19685	1	stim104_inanimate_clothing_gloves_4.png	104	inanimate	clothing	gloves	4	0	1	boats	1	correct	1.48736968373123
19735	1	stim032_animate_bird_parrot_4.png	32	animate	bird	parrot	4	0	1	boats	1	correct	1.48736968373123
19785	1	stim105_inanimate_clothing_hat_1.png	105	inanimate	clothing	hat	1	0	1	boats	1	correct	1.48736968373123
19835	1	stim024_animate_bird_chicken_4.png	24	animate	bird	chicken	4	0	1	boats	1	correct	1.48736968373123
19885	1	stim163_inanimate_plants_bush_3.png	163	inanimate	plants	bush	3	0	1	boats	1	correct	1.48736968373123
19935	1	stim061_animate_insect_ant_1.png	61	animate	insect	ant	1	0	1	boats	1	correct	1.48736968373123
19985	1	stim059_animate_human_sports_3.png	59	animate	human	sports	3	0	1	boats	1	correct	1.48736968373123
20035	1	stim004_animate_aquatic_crab_4.png	4	animate	aquatic	crab	4	0	1	boats	1	correct	1.48736968373123
20085	1	stim090_animate_mammal_kangaroo_2.png	90	animate	mammal	kangaroo	2	0	1	boats	1	correct	1.48736968373123
20135	1	stim130_inanimate_fruits_grape_2.png	130	inanimate	fruits	grape	2	0	1	boats	1	correct	1.48736968373123
20185	1	stim195_inanimate_tools_scissors_3.png	195	inanimate	tools	scissors	3	0	1	boats	1	correct	1.48736968373123
20235	1	stim184_inanimate_tools_broom_4.png	184	inanimate	tools	broom	4	0	1	boats	1	correct	1.48736968373123
20285	1	stim151_inanimate_furniture_closet_3.png	151	inanimate	furniture	closet	3	0	1	boats	1	correct	1.48736968373123
20335	1	stim165_inanimate_plants_cactus_1.png	165	inanimate	plants	cactus	1	0	1	boats	1	correct	1.48736968373123
20385	1	stim127_inanimate_fruits_banana_3.png	127	inanimate	fruits	banana	3	0	1	boats	1	correct	1.48736968373123
20435	1	stim020_animate_aquatic_shrimp_4.png	20	animate	aquatic	shrimp	4	0	1	boats	1	correct	1.48736968373123
20485	1	stim089_animate_mammal_kangaroo_1.png	89	animate	mammal	kangaroo	1	0	1	boats	1	correct	1.48736968373123
20535	1	stim175_inanimate_plants_tree_3.png	175	inanimate	plants	tree	3	0	1	boats	1	correct	1.48736968373123
20585	1	stim063_animate_insect_ant_3.png	63	animate	insect	ant	3	0	1	boats	1	correct	1.48736968373123
20635	1	stim148_inanimate_furniture_chair_4.png	148	inanimate	furniture	chair	4	0	1	boats	1	correct	1.48736968373123
20685	1	stim177_inanimate_plants_tulip_1.png	177	inanimate	plants	tulip	1	0	1	boats	1	correct	1.48736968373123
20735	1	stim161_inanimate_plants_bush_1.png	161	inanimate	plants	bush	1	0	1	boats	1	correct	1.48736968373123
20785	1	stim093_animate_mammal_monkey_1.png	93	animate	mammal	monkey	1	0	1	boats	1	correct	1.48736968373123
20835	1	stim164_inanimate_plants_bush_4.png	164	inanimate	plants	bush	4	0	1	boats	1	correct	1.48736968373123
20885	1	stim185_inanimate_tools_hammer_1.png	185	inanimate	tools	hammer	1	0	1	boats	1	correct	1.48736968373123
20935	1	stim196_inanimate_tools_scissors_4.png	196	inanimate	tools	scissors	4	0	1	boats	1	correct	1.48736968373123
20985	1	stim010_animate_aquatic_seahorse_2.png	10	animate	aquatic	seahorse	2	0	1	boats	1	correct	1.48736968373123
21035	1	stim073_animate_insect_dragonfly_1.png	73	animate	insect	dragonfly	1	0	1	boats	1	correct	1.48736968373123
21085	1	stim077_animate_insect_grasshopper_1.png	77	animate	insect	grasshopper	1	0	1	boats	1	correct	1.48736968373123
21135	1	stim028_animate_bird_duck_4.png	28	animate	bird	duck	4	0	1	boats	1	correct	1.48736968373123
21185	1	stim041_animate_human_baby_1.png	41	animate	human	baby	1	0	1	boats	1	correct	1.48736968373123
21235	1	stim035_animate_bird_peacock_3.png	35	animate	bird	peacock	3	0	1	boats	1	correct	1.48736968373123
21285	1	stim053_animate_human_faces_1.png	53	animate	human	faces	1	0	1	boats	1	correct	1.48736968373123
21335	1	stim078_animate_insect_grasshopper_2.png	78	animate	insect	grasshopper	2	0	1	boats	1	correct	1.48736968373123
21385	1	stim080_animate_insect_grasshopper_4.png	80	animate	insect	grasshopper	4	0	1	boats	1	correct	1.48736968373123
21435	1	stim107_inanimate_clothing_hat_3.png	107	inanimate	clothing	hat	3	0	1	boats	1	correct	1.48736968373123
21485	1	stim057_animate_human_sports_1.png	57	animate	human	sports	1	0	1	boats	1	correct	1.48736968373123
21535	1	stim192_inanimate_tools_pan_4.png	192	inanimate	tools	pan	4	0	1	boats	1	correct	1.48736968373123
21585	1	stim138_inanimate_fruits_strawberry_2.png	138	inanimate	fruits	strawberry	2	0	1	boats	1	correct	1.48736968373123
21635	1	stim131_inanimate_fruits_grape_3.png	131	inanimate	fruits	grape	3	0	1	boats	1	correct	1.48736968373123
21685	1	stim001_animate_aquatic_crab_1.png	1	animate	aquatic	crab	1	0	1	boats	1	correct	1.48736968373123
21735	1	stim044_animate_human_baby_4.png	44	animate	human	baby	4	0	1	boats	1	correct	1.48736968373123
21785	1	stim139_inanimate_fruits_strawberry_3.png	139	inanimate	fruits	strawberry	3	0	1	boats	1	correct	1.48736968373123
21835	1	stim092_animate_mammal_kangaroo_4.png	92	animate	mammal	kangaroo	4	0	1	boats	1	correct	1.48736968373123
21885	1	stim154_inanimate_furniture_sofa_2.png	154	inanimate	furniture	sofa	2	0	1	boats	1	correct	1.48736968373123
21935	1	stim190_inanimate_tools_pan_2.png	190	inanimate	tools	pan	2	0	1	boats	1	correct	1.48736968373123
21985	1	stim021_animate_bird_chicken_1.png	21	animate	bird	chicken	1	0	1	boats	1	correct	1.48736968373123
22035	1	stim174_inanimate_plants_tree_2.png	174	inanimate	plants	tree	2	0	1	boats	1	correct	1.48736968373123
22085	1	stim025_animate_bird_duck_1.png	25	animate	bird	duck	1	0	1	boats	1	correct	1.48736968373123
22135	1	stim045_animate_human_child_1.png	45	animate	human	child	1	0	1	boats	1	correct	1.48736968373123
22185	1	stim159_inanimate_furniture_table_3.png	159	inanimate	furniture	table	3	0	1	boats	1	correct	1.48736968373123
22235	1	stim173_inanimate_plants_tree_1.png	173	inanimate	plants	tree	1	0	1	boats	1	correct	1.48736968373123
22285	1	stim123_inanimate_fruits_apple_3.png	123	inanimate	fruits	apple	3	0	1	boats	1	correct	1.48736968373123
22335	1	stim187_inanimate_tools_hammer_3.png	187	inanimate	tools	hammer	3	0	1	boats	1	correct	1.48736968373123
22385	1	stim046_animate_human_child_2.png	46	animate	human	child	2	0	1	boats	1	correct	1.48736968373123
22435	1	stim070_animate_insect_butterfly_2.png	70	animate	insect	butterfly	2	0	1	boats	1	correct	1.48736968373123
22485	1	stim199_inanimate_tools_wrench_3.png	199	inanimate	tools	wrench	3	0	1	boats	1	correct	1.48736968373123
22535	1	stim115_inanimate_clothing_shirt_3.png	115	inanimate	clothing	shirt	3	0	1	boats	1	correct	1.48736968373123
22585	1	stim136_inanimate_fruits_pineapple_4.png	136	inanimate	fruits	pineapple	4	0	1	boats	1	correct	1.48736968373123
22635	1	stim019_animate_aquatic_shrimp_3.png	19	animate	aquatic	shrimp	3	0	1	boats	1	correct	1.48736968373123
22685	1	stim067_animate_insect_bug_3.png	67	animate	insect	bug	3	0	1	boats	1	correct	1.48736968373123
22735	1	stim146_inanimate_furniture_chair_2.png	146	inanimate	furniture	chair	2	0	1	boats	1	correct	1.48736968373123
22785	1	stim194_inanimate_tools_scissors_2.png	194	inanimate	tools	scissors	2	0	1	boats	1	correct	1.48736968373123
22835	1	stim147_inanimate_furniture_chair_3.png	147	inanimate	furniture	chair	3	0	1	boats	1	correct	1.48736968373123
22885	1	stim186_inanimate_tools_hammer_2.png	186	inanimate	tools	hammer	2	0	1	boats	1	correct	1.48736968373123
22935	1	stim097_animate_mammal_rhino_1.png	97	animate	mammal	rhino	1	0	1	boats	1	correct	1.48736968373123
22985	1	stim167_inanimate_plants_cactus_3.png	167	inanimate	plants	cactus	3	0	1	boats	1	correct	1.48736968373123
23035	1	stim108_inanimate_clothing_hat_4.png	108	inanimate	clothing	hat	4	0	1	boats	1	correct	1.48736968373123
23085	1	stim140_inanimate_fruits_strawberry_4.png	140	inanimate	fruits	strawberry	4	0	1	boats	1	correct	1.48736968373123
23135	1	stim085_animate_mammal_giraffe_1.png	85	animate	mammal	giraffe	1	0	1	boats	1	correct	1.48736968373123
23185	1	stim029_animate_bird_parrot_1.png	29	animate	bird	parrot	1	0	1	boats	1	correct	1.48736968373123
23235	1	stim071_animate_insect_butterfly_3.png	71	animate	insect	butterfly	3	0	1	boats	1	correct	1.48736968373123
23285	1	stim193_inanimate_tools_scissors_1.png	193	inanimate	tools	scissors	1	0	1	boats	1	correct	1.48736968373123
23335	1	stim208_targets_object_boats_4.png	208	targets	object	boats	4	1	1	boats	1	correct	1.48736968373123
23385	1	stim162_inanimate_plants_bush_2.png	162	inanimate	plants	bush	2	0	1	boats	1	correct	1.48736968373123
23435	1	stim036_animate_bird_peacock_4.png	36	animate	bird	peacock	4	0	1	boats	1	correct	1.48736968373123
23485	1	stim106_inanimate_clothing_hat_2.png	106	inanimate	clothing	hat	2	0	1	boats	1	correct	1.48736968373123
23535	1	stim110_inanimate_clothing_jeans_2.png	110	inanimate	clothing	jeans	2	0	1	boats	1	correct	1.48736968373123
23585	1	stim088_animate_mammal_giraffe_4.png	88	animate	mammal	giraffe	4	0	1	boats	1	correct	1.48736968373123
23635	1	stim112_inanimate_clothing_jeans_4.png	112	inanimate	clothing	jeans	4	0	1	boats	1	correct	1.48736968373123
23685	1	stim135_inanimate_fruits_pineapple_3.png	135	inanimate	fruits	pineapple	3	0	1	boats	1	correct	1.48736968373123
23735	1	stim038_animate_bird_penguin_2.png	38	animate	bird	penguin	2	0	1	boats	1	correct	1.48736968373123
23785	1	stim007_animate_aquatic_fish_3.png	7	animate	aquatic	fish	3	0	1	boats	1	correct	1.48736968373123
23835	1	stim081_animate_mammal_cow_1.png	81	animate	mammal	cow	1	0	1	boats	1	correct	1.48736968373123
23885	1	stim182_inanimate_tools_broom_2.png	182	inanimate	tools	broom	2	0	1	boats	1	correct	1.48736968373123
23935	1	stim178_inanimate_plants_tulip_2.png	178	inanimate	plants	tulip	2	0	1	boats	1	correct	1.48736968373123
23985	1	stim111_inanimate_clothing_jeans_3.png	111	inanimate	clothing	jeans	3	0	1	boats	1	correct	1.48736968373123
24035	1	stim052_animate_human_clown_4.png	52	animate	human	clown	4	0	1	boats	1	correct	1.48736968373123
24085	1	stim013_animate_aquatic_shark_1.png	13	animate	aquatic	shark	1	0	1	boats	1	correct	1.48736968373123
24135	1	stim099_animate_mammal_rhino_3.png	99	animate	mammal	rhino	3	0	1	boats	1	correct	1.48736968373123
24185	1	stim031_animate_bird_parrot_3.png	31	animate	bird	parrot	3	0	1	boats	1	correct	1.48736968373123
24235	1	stim183_inanimate_tools_broom_3.png	183	inanimate	tools	broom	3	0	1	boats	1	correct	1.48736968373123
24285	1	stim119_inanimate_clothing_socks_3.png	119	inanimate	clothing	socks	3	0	1	boats	1	correct	1.48736968373123
24335	1	stim098_animate_mammal_rhino_2.png	98	animate	mammal	rhino	2	0	1	boats	1	correct	1.48736968373123
24385	1	stim086_animate_mammal_giraffe_2.png	86	animate	mammal	giraffe	2	0	1	boats	1	correct	1.48736968373123
24435	1	stim171_inanimate_plants_sunflower_3.png	171	inanimate	plants	sunflower	3	0	1	boats	1	correct	1.48736968373123
24485	1	stim143_inanimate_furniture_bed_3.png	143	inanimate	furniture	bed	3	0	1	boats	1	correct	1.48736968373123
24535	1	stim145_inanimate_furniture_chair_1.png	145	inanimate	furniture	chair	1	0	1	boats	1	correct	1.48736968373123
24585	1	stim100_animate_mammal_rhino_4.png	100	animate	mammal	rhino	4	0	1	boats	1	correct	1.48736968373123
24635	1	stim152_inanimate_furniture_closet_4.png	152	inanimate	furniture	closet	4	0	1	boats	1	correct	1.48736968373123
24685	1	stim042_animate_human_baby_2.png	42	animate	human	baby	2	0	1	boats	1	correct	1.48736968373123
24735	1	stim126_inanimate_fruits_banana_2.png	126	inanimate	fruits	banana	2	0	1	boats	1	correct	1.48736968373123
24785	1	stim009_animate_aquatic_seahorse_1.png	9	animate	aquatic	seahorse	1	0	1	boats	1	correct	1.48736968373123
24835	1	stim096_animate_mammal_monkey_4.png	96	animate	mammal	monkey	4	0	1	boats	1	correct	1.48736968373123
24885	1	stim065_animate_insect_bug_1.png	65	animate	insect	bug	1	0	1	boats	1	correct	1.48736968373123
24935	1	stim062_animate_insect_ant_2.png	62	animate	insect	ant	2	0	1	boats	1	correct	1.48736968373123
24985	1	stim026_animate_bird_duck_2.png	26	animate	bird	duck	2	0	1	boats	1	correct	1.48736968373123
25035	1	stim084_animate_mammal_cow_4.png	84	animate	mammal	cow	4	0	1	boats	1	correct	1.48736968373123
25085	1	stim095_animate_mammal_monkey_3.png	95	animate	mammal	monkey	3	0	1	boats	1	correct	1.48736968373123
25135	1	stim015_animate_aquatic_shark_3.png	15	animate	aquatic	shark	3	0	1	boats	1	correct	1.48736968373123
25185	1	stim049_animate_human_clown_1.png	49	animate	human	clown	1	0	1	boats	1	correct	1.48736968373123
25235	1	stim056_animate_human_faces_4.png	56	animate	human	faces	4	0	1	boats	1	correct	1.48736968373123
25285	1	stim064_animate_insect_ant_4.png	64	animate	insect	ant	4	0	1	boats	1	correct	1.48736968373123
25335	1	stim125_inanimate_fruits_banana_1.png	125	inanimate	fruits	banana	1	0	1	boats	1	correct	1.48736968373123
25385	1	stim144_inanimate_furniture_bed_4.png	144	inanimate	furniture	bed	4	0	1	boats	1	correct	1.48736968373123
25435	1	stim129_inanimate_fruits_grape_1.png	129	inanimate	fruits	grape	1	0	1	boats	1	correct	1.48736968373123
25485	1	stim116_inanimate_clothing_shirt_4.png	116	inanimate	clothing	shirt	4	0	1	boats	1	correct	1.48736968373123
25535	1	stim149_inanimate_furniture_closet_1.png	149	inanimate	furniture	closet	1	0	1	boats	1	correct	1.48736968373123
25585	1	stim109_inanimate_clothing_jeans_1.png	109	inanimate	clothing	jeans	1	0	1	boats	1	correct	1.48736968373123
25635	1	stim005_animate_aquatic_fish_1.png	5	animate	aquatic	fish	1	0	1	boats	1	correct	1.48736968373123
25685	1	stim176_inanimate_plants_tree_4.png	176	inanimate	plants	tree	4	0	1	boats	1	correct	1.48736968373123
25735	1	stim055_animate_human_faces_3.png	55	animate	human	faces	3	0	1	boats	1	correct	1.48736968373123
25785	1	stim189_inanimate_tools_pan_1.png	189	inanimate	tools	pan	1	0	1	boats	1	correct	1.48736968373123
25835	1	stim030_animate_bird_parrot_2.png	30	animate	bird	parrot	2	0	1	boats	1	correct	1.48736968373123
25885	1	stim114_inanimate_clothing_shirt_2.png	114	inanimate	clothing	shirt	2	0	1	boats	1	correct	1.48736968373123
25935	1	stim082_animate_mammal_cow_2.png	82	animate	mammal	cow	2	0	1	boats	1	correct	1.48736968373123
25985	1	stim034_animate_bird_peacock_2.png	34	animate	bird	peacock	2	0	1	boats	1	correct	1.48736968373123
26035	1	stim142_inanimate_furniture_bed_2.png	142	inanimate	furniture	bed	2	0	1	boats	1	correct	1.48736968373123
26085	1	stim117_inanimate_clothing_socks_1.png	117	inanimate	clothing	socks	1	0	1	boats	1	correct	1.48736968373123
26135	1	stim137_inanimate_fruits_strawberry_1.png	137	inanimate	fruits	strawberry	1	0	1	boats	1	correct	1.48736968373123
26185	1	stim017_animate_aquatic_shrimp_1.png	17	animate	aquatic	shrimp	1	0	1	boats	1	correct	1.48736968373123
26235	1	stim066_animate_insect_bug_2.png	66	animate	insect	bug	2	0	1	boats	1	correct	1.48736968373123
26285	1	stim016_animate_aquatic_shark_4.png	16	animate	aquatic	shark	4	0	1	boats	1	correct	1.48736968373123
26335	1	stim079_animate_insect_grasshopper_3.png	79	animate	insect	grasshopper	3	0	1	boats	1	correct	1.48736968373123
26385	1	stim103_inanimate_clothing_gloves_3.png	103	inanimate	clothing	gloves	3	0	1	boats	1	correct	1.48736968373123
26435	1	stim043_animate_human_baby_3.png	43	animate	human	baby	3	0	1	boats	1	correct	1.48736968373123
26485	1	stim014_animate_aquatic_shark_2.png	14	animate	aquatic	shark	2	0	1	boats	1	correct	1.48736968373123
26535	1	stim018_animate_aquatic_shrimp_2.png	18	animate	aquatic	shrimp	2	0	1	boats	1	correct	1.48736968373123
26585	1	stim102_inanimate_clothing_gloves_2.png	102	inanimate	clothing	gloves	2	0	1	boats	1	correct	1.48736968373123
26635	1	stim040_animate_bird_penguin_4.png	40	animate	bird	penguin	4	0	1	boats	1	correct	1.48736968373123
26685	1	stim003_animate_aquatic_crab_3.png	3	animate	aquatic	crab	3	0	1	boats	1	correct	1.48736968373123
26735	1	stim094_animate_mammal_monkey_2.png	94	animate	mammal	monkey	2	0	1	boats	1	correct	1.48736968373123
26785	1	stim069_animate_insect_butterfly_1.png	69	animate	insect	butterfly	1	0	1	boats	1	correct	1.48736968373123
26835	1	stim181_inanimate_tools_broom_1.png	181	inanimate	tools	broom	1	0	1	boats	1	correct	1.48736968373123
26885	1	stim033_animate_bird_peacock_1.png	33	animate	bird	peacock	1	0	1	boats	1	correct	1.48736968373123
26935	1	stim039_animate_bird_penguin_3.png	39	animate	bird	penguin	3	0	1	boats	1	correct	1.48736968373123
26985	1	stim022_animate_bird_chicken_2.png	22	animate	bird	chicken	2	0	1	boats	1	correct	1.48736968373123
27035	1	stim050_animate_human_clown_2.png	50	animate	human	clown	2	0	1	boats	1	correct	1.48736968373123
27085	1	stim023_animate_bird_chicken_3.png	23	animate	bird	chicken	3	0	1	boats	1	correct	1.48736968373123
27135	1	stim157_inanimate_furniture_table_1.png	157	inanimate	furniture	table	1	0	1	boats	1	correct	1.48736968373123
27185	1	stim091_animate_mammal_kangaroo_3.png	91	animate	mammal	kangaroo	3	0	1	boats	1	correct	1.48736968373123
27235	1	stim124_inanimate_fruits_apple_4.png	124	inanimate	fruits	apple	4	0	1	boats	1	correct	1.48736968373123
27285	1	stim168_inanimate_plants_cactus_4.png	168	inanimate	plants	cactus	4	0	1	boats	1	correct	1.48736968373123
27335	1	stim008_animate_aquatic_fish_4.png	8	animate	aquatic	fish	4	0	1	boats	1	correct	1.48736968373123
27385	1	stim172_inanimate_plants_sunflower_4.png	172	inanimate	plants	sunflower	4	0	1	boats	1	correct	1.48736968373123
27435	1	stim170_inanimate_plants_sunflower_2.png	170	inanimate	plants	sunflower	2	0	1	boats	1	correct	1.48736968373123
27485	1	stim101_inanimate_clothing_gloves_1.png	101	inanimate	clothing	gloves	1	0	1	boats	1	correct	1.48736968373123
27535	1	stim122_inanimate_fruits_apple_2.png	122	inanimate	fruits	apple	2	0	1	boats	1	correct	1.48736968373123
27585	1	stim011_animate_aquatic_seahorse_3.png	11	animate	aquatic	seahorse	3	0	1	boats	1	correct	1.48736968373123
27635	1	stim156_inanimate_furniture_sofa_4.png	156	inanimate	furniture	sofa	4	0	1	boats	1	correct	1.48736968373123
27685	1	stim068_animate_insect_bug_4.png	68	animate	insect	bug	4	0	1	boats	1	correct	1.48736968373123
27735	1	stim179_inanimate_plants_tulip_3.png	179	inanimate	plants	tulip	3	0	1	boats	1	correct	1.48736968373123
27785	1	stim060_animate_human_sports_4.png	60	animate	human	sports	4	0	1	boats	1	correct	1.48736968373123
27835	1	stim076_animate_insect_dragonfly_4.png	76	animate	insect	dragonfly	4	0	1	boats	1	correct	1.48736968373123
27885	1	stim027_animate_bird_duck_3.png	27	animate	bird	duck	3	0	1	boats	1	correct	1.48736968373123
27935	1	stim087_animate_mammal_giraffe_3.png	87	animate	mammal	giraffe	3	0	1	boats	1	correct	1.48736968373123
27985	1	stim160_inanimate_furniture_table_4.png	160	inanimate	furniture	table	4	0	1	boats	1	correct	1.48736968373123
28035	1	stim006_animate_aquatic_fish_2.png	6	animate	aquatic	fish	2	0	1	boats	1	correct	1.48736968373123
28085	1	stim058_animate_human_sports_2.png	58	animate	human	sports	2	0	1	boats	1	correct	1.48736968373123
28135	1	stim155_inanimate_furniture_sofa_3.png	155	inanimate	furniture	sofa	3	0	1	boats	1	correct	1.48736968373123
28185	1	stim054_animate_human_faces_2.png	54	animate	human	faces	2	0	1	boats	1	correct	1.48736968373123
28235	1	stim150_inanimate_furniture_closet_2.png	150	inanimate	furniture	closet	2	0	1	boats	1	correct	1.48736968373123
28285	1	stim051_animate_human_clown_3.png	51	animate	human	clown	3	0	1	boats	1	correct	1.48736968373123
28335	1	stim166_inanimate_plants_cactus_2.png	166	inanimate	plants	cactus	2	0	1	boats	1	correct	1.48736968373123
28385	1	stim128_inanimate_fruits_banana_4.png	128	inanimate	fruits	banana	4	0	1	boats	1	correct	1.48736968373123
28435	1	stim158_inanimate_furniture_table_2.png	158	inanimate	furniture	table	2	0	1	boats	1	correct	1.48736968373123
28485	1	stim180_inanimate_plants_tulip_4.png	180	inanimate	plants	tulip	4	0	1	boats	1	correct	1.48736968373123
38118	1	stim165_inanimate_plants_cactus_1.png	165	inanimate	plants	cactus	1	0	2	stars	2	incorrect	1.2283011829677
38168	1	stim042_animate_human_baby_2.png	42	animate	human	baby	2	0	2	stars	2	incorrect	1.2283011829677
38218	1	stim052_animate_human_clown_4.png	52	animate	human	clown	4	0	2	stars	2	incorrect	1.2283011829677
38268	1	stim177_inanimate_plants_tulip_1.png	177	inanimate	plants	tulip	1	0	2	stars	2	incorrect	1.2283011829677
38318	1	stim056_animate_human_faces_4.png	56	animate	human	faces	4	0	2	stars	2	incorrect	1.2283011829677
38368	1	stim105_inanimate_clothing_hat_1.png	105	inanimate	clothing	hat	1	0	2	stars	2	incorrect	1.2283011829677
38418	1	stim017_animate_aquatic_shrimp_1.png	17	animate	aquatic	shrimp	1	0	2	stars	2	incorrect	1.2283011829677
38468	1	stim012_animate_aquatic_seahorse_4.png	12	animate	aquatic	seahorse	4	0	2	stars	2	incorrect	1.2283011829677
38518	1	stim046_animate_human_child_2.png	46	animate	human	child	2	0	2	stars	2	incorrect	1.2283011829677
38568	1	stim193_inanimate_tools_scissors_1.png	193	inanimate	tools	scissors	1	0	2	stars	2	incorrect	1.2283011829677
38618	1	stim001_animate_aquatic_crab_1.png	1	animate	aquatic	crab	1	0	2	stars	2	incorrect	1.2283011829677
38668	1	stim185_inanimate_tools_hammer_1.png	185	inanimate	tools	hammer	1	0	2	stars	2	incorrect	1.2283011829677
38718	1	stim015_animate_aquatic_shark_3.png	15	animate	aquatic	shark	3	0	2	stars	2	incorrect	1.2283011829677
38768	1	stim138_inanimate_fruits_strawberry_2.png	138	inanimate	fruits	strawberry	2	0	2	stars	2	incorrect	1.2283011829677
38818	1	stim135_inanimate_fruits_pineapple_3.png	135	inanimate	fruits	pineapple	3	0	2	stars	2	incorrect	1.2283011829677
38868	1	stim184_inanimate_tools_broom_4.png	184	inanimate	tools	broom	4	0	2	stars	2	incorrect	1.2283011829677
38918	1	stim092_animate_mammal_kangaroo_4.png	92	animate	mammal	kangaroo	4	0	2	stars	2	incorrect	1.2283011829677
38968	1	stim194_inanimate_tools_scissors_2.png	194	inanimate	tools	scissors	2	0	2	stars	2	incorrect	1.2283011829677
39018	1	stim129_inanimate_fruits_grape_1.png	129	inanimate	fruits	grape	1	0	2	stars	2	incorrect	1.2283011829677
39068	1	stim024_animate_bird_chicken_4.png	24	animate	bird	chicken	4	0	2	stars	2	incorrect	1.2283011829677
39118	1	stim127_inanimate_fruits_banana_3.png	127	inanimate	fruits	banana	3	0	2	stars	2	incorrect	1.2283011829677
39168	1	stim063_animate_insect_ant_3.png	63	animate	insect	ant	3	0	2	stars	2	incorrect	1.2283011829677
39218	1	stim100_animate_mammal_rhino_4.png	100	animate	mammal	rhino	4	0	2	stars	2	incorrect	1.2283011829677
39268	1	stim085_animate_mammal_giraffe_1.png	85	animate	mammal	giraffe	1	0	2	stars	2	incorrect	1.2283011829677
39318	1	stim122_inanimate_fruits_apple_2.png	122	inanimate	fruits	apple	2	0	2	stars	2	incorrect	1.2283011829677
39368	1	stim011_animate_aquatic_seahorse_3.png	11	animate	aquatic	seahorse	3	0	2	stars	2	incorrect	1.2283011829677
39418	1	stim139_inanimate_fruits_strawberry_3.png	139	inanimate	fruits	strawberry	3	0	2	stars	2	incorrect	1.2283011829677
39468	1	stim032_animate_bird_parrot_4.png	32	animate	bird	parrot	4	0	2	stars	2	incorrect	1.2283011829677
39518	1	stim178_inanimate_plants_tulip_2.png	178	inanimate	plants	tulip	2	0	2	stars	2	incorrect	1.2283011829677
39568	1	stim003_animate_aquatic_crab_3.png	3	animate	aquatic	crab	3	0	2	stars	2	incorrect	1.2283011829677
39618	1	stim023_animate_bird_chicken_3.png	23	animate	bird	chicken	3	0	2	stars	2	incorrect	1.2283011829677
39668	1	stim029_animate_bird_parrot_1.png	29	animate	bird	parrot	1	0	2	stars	2	incorrect	1.2283011829677
39718	1	stim066_animate_insect_bug_2.png	66	animate	insect	bug	2	0	2	stars	2	incorrect	1.2283011829677
39768	1	stim147_inanimate_furniture_chair_3.png	147	inanimate	furniture	chair	3	0	2	stars	2	incorrect	1.2283011829677
39818	1	stim197_inanimate_tools_wrench_1.png	197	inanimate	tools	wrench	1	0	2	stars	2	incorrect	1.2283011829677
39868	1	stim016_animate_aquatic_shark_4.png	16	animate	aquatic	shark	4	0	2	stars	2	incorrect	1.2283011829677
39918	1	stim103_inanimate_clothing_gloves_3.png	103	inanimate	clothing	gloves	3	0	2	stars	2	incorrect	1.2283011829677
39968	1	stim037_animate_bird_penguin_1.png	37	animate	bird	penguin	1	0	2	stars	2	incorrect	1.2283011829677
40018	1	stim101_inanimate_clothing_gloves_1.png	101	inanimate	clothing	gloves	1	0	2	stars	2	incorrect	1.2283011829677
40068	1	stim028_animate_bird_duck_4.png	28	animate	bird	duck	4	0	2	stars	2	incorrect	1.2283011829677
40118	1	stim061_animate_insect_ant_1.png	61	animate	insect	ant	1	0	2	stars	2	incorrect	1.2283011829677
40168	1	stim065_animate_insect_bug_1.png	65	animate	insect	bug	1	0	2	stars	2	incorrect	1.2283011829677
40218	1	stim137_inanimate_fruits_strawberry_1.png	137	inanimate	fruits	strawberry	1	0	2	stars	2	incorrect	1.2283011829677
40268	1	stim142_inanimate_furniture_bed_2.png	142	inanimate	furniture	bed	2	0	2	stars	2	incorrect	1.2283011829677
40318	1	stim118_inanimate_clothing_socks_2.png	118	inanimate	clothing	socks	2	0	2	stars	2	incorrect	1.2283011829677
40368	1	stim123_inanimate_fruits_apple_3.png	123	inanimate	fruits	apple	3	0	2	stars	2	incorrect	1.2283011829677
40418	1	stim013_animate_aquatic_shark_1.png	13	animate	aquatic	shark	1	0	2	stars	2	incorrect	1.2283011829677
40468	1	stim200_inanimate_tools_wrench_4.png	200	inanimate	tools	wrench	4	0	2	stars	2	incorrect	1.2283011829677
40518	1	stim145_inanimate_furniture_chair_1.png	145	inanimate	furniture	chair	1	0	2	stars	2	incorrect	1.2283011829677
40568	1	stim094_animate_mammal_monkey_2.png	94	animate	mammal	monkey	2	0	2	stars	2	incorrect	1.2283011829677
40618	1	stim064_animate_insect_ant_4.png	64	animate	insect	ant	4	0	2	stars	2	incorrect	1.2283011829677
40668	1	stim039_animate_bird_penguin_3.png	39	animate	bird	penguin	3	0	2	stars	2	incorrect	1.2283011829677
40718	1	stim048_animate_human_child_4.png	48	animate	human	child	4	0	2	stars	2	incorrect	1.2283011829677
40768	1	stim010_animate_aquatic_seahorse_2.png	10	animate	aquatic	seahorse	2	0	2	stars	2	incorrect	1.2283011829677
40818	1	stim077_animate_insect_grasshopper_1.png	77	animate	insect	grasshopper	1	0	2	stars	2	incorrect	1.2283011829677
40868	1	stim051_animate_human_clown_3.png	51	animate	human	clown	3	0	2	stars	2	incorrect	1.2283011829677
40918	1	stim078_animate_insect_grasshopper_2.png	78	animate	insect	grasshopper	2	0	2	stars	2	incorrect	1.2283011829677
40968	1	stim030_animate_bird_parrot_2.png	30	animate	bird	parrot	2	0	2	stars	2	incorrect	1.2283011829677
41018	1	stim140_inanimate_fruits_strawberry_4.png	140	inanimate	fruits	strawberry	4	0	2	stars	2	incorrect	1.2283011829677
41068	1	stim156_inanimate_furniture_sofa_4.png	156	inanimate	furniture	sofa	4	0	2	stars	2	incorrect	1.2283011829677
41118	1	stim216_targets_shapes_star_4.png	216	targets	shapes	star	4	1	2	stars	2	incorrect	1.2283011829677
41168	1	stim155_inanimate_furniture_sofa_3.png	155	inanimate	furniture	sofa	3	0	2	stars	2	incorrect	1.2283011829677
41218	1	stim189_inanimate_tools_pan_1.png	189	inanimate	tools	pan	1	0	2	stars	2	incorrect	1.2283011829677
41268	1	stim086_animate_mammal_giraffe_2.png	86	animate	mammal	giraffe	2	0	2	stars	2	incorrect	1.2283011829677
41318	1	stim022_animate_bird_chicken_2.png	22	animate	bird	chicken	2	0	2	stars	2	incorrect	1.2283011829677
41368	1	stim070_animate_insect_butterfly_2.png	70	animate	insect	butterfly	2	0	2	stars	2	incorrect	1.2283011829677
41418	1	stim060_animate_human_sports_4.png	60	animate	human	sports	4	0	2	stars	2	incorrect	1.2283011829677
41468	1	stim073_animate_insect_dragonfly_1.png	73	animate	insect	dragonfly	1	0	2	stars	2	incorrect	1.2283011829677
41518	1	stim111_inanimate_clothing_jeans_3.png	111	inanimate	clothing	jeans	3	0	2	stars	2	incorrect	1.2283011829677
41568	1	stim040_animate_bird_penguin_4.png	40	animate	bird	penguin	4	0	2	stars	2	incorrect	1.2283011829677
41618	1	stim026_animate_bird_duck_2.png	26	animate	bird	duck	2	0	2	stars	2	incorrect	1.2283011829677
41668	1	stim126_inanimate_fruits_banana_2.png	126	inanimate	fruits	banana	2	0	2	stars	2	incorrect	1.2283011829677
41718	1	stim132_inanimate_fruits_grape_4.png	132	inanimate	fruits	grape	4	0	2	stars	2	incorrect	1.2283011829677
41768	1	stim069_animate_insect_butterfly_1.png	69	animate	insect	butterfly	1	0	2	stars	2	incorrect	1.2283011829677
41818	1	stim114_inanimate_clothing_shirt_2.png	114	inanimate	clothing	shirt	2	0	2	stars	2	incorrect	1.2283011829677
41868	1	stim054_animate_human_faces_2.png	54	animate	human	faces	2	0	2	stars	2	incorrect	1.2283011829677
41918	1	stim187_inanimate_tools_hammer_3.png	187	inanimate	tools	hammer	3	0	2	stars	2	incorrect	1.2283011829677
41968	1	stim179_inanimate_plants_tulip_3.png	179	inanimate	plants	tulip	3	0	2	stars	2	incorrect	1.2283011829677
42018	1	stim215_targets_shapes_star_3.png	215	targets	shapes	star	3	1	2	stars	2	incorrect	1.2283011829677
42068	1	stim120_inanimate_clothing_socks_4.png	120	inanimate	clothing	socks	4	0	2	stars	2	incorrect	1.2283011829677
42118	1	stim020_animate_aquatic_shrimp_4.png	20	animate	aquatic	shrimp	4	0	2	stars	2	incorrect	1.2283011829677
42168	1	stim169_inanimate_plants_sunflower_1.png	169	inanimate	plants	sunflower	1	0	2	stars	2	incorrect	1.2283011829677
42218	1	stim049_animate_human_clown_1.png	49	animate	human	clown	1	0	2	stars	2	incorrect	1.2283011829677
42268	1	stim058_animate_human_sports_2.png	58	animate	human	sports	2	0	2	stars	2	incorrect	1.2283011829677
42318	1	stim144_inanimate_furniture_bed_4.png	144	inanimate	furniture	bed	4	0	2	stars	2	incorrect	1.2283011829677
42368	1	stim059_animate_human_sports_3.png	59	animate	human	sports	3	0	2	stars	2	incorrect	1.2283011829677
42418	1	stim150_inanimate_furniture_closet_2.png	150	inanimate	furniture	closet	2	0	2	stars	2	incorrect	1.2283011829677
42468	1	stim115_inanimate_clothing_shirt_3.png	115	inanimate	clothing	shirt	3	0	2	stars	2	incorrect	1.2283011829677
42518	1	stim191_inanimate_tools_pan_3.png	191	inanimate	tools	pan	3	0	2	stars	2	incorrect	1.2283011829677
42568	1	stim014_animate_aquatic_shark_2.png	14	animate	aquatic	shark	2	0	2	stars	2	incorrect	1.2283011829677
42618	1	stim109_inanimate_clothing_jeans_1.png	109	inanimate	clothing	jeans	1	0	2	stars	2	incorrect	1.2283011829677
42668	1	stim076_animate_insect_dragonfly_4.png	76	animate	insect	dragonfly	4	0	2	stars	2	incorrect	1.2283011829677
42718	1	stim143_inanimate_furniture_bed_3.png	143	inanimate	furniture	bed	3	0	2	stars	2	incorrect	1.2283011829677
42768	1	stim146_inanimate_furniture_chair_2.png	146	inanimate	furniture	chair	2	0	2	stars	2	incorrect	1.2283011829677
42818	1	stim174_inanimate_plants_tree_2.png	174	inanimate	plants	tree	2	0	2	stars	2	incorrect	1.2283011829677
42868	1	stim007_animate_aquatic_fish_3.png	7	animate	aquatic	fish	3	0	2	stars	2	incorrect	1.2283011829677
42918	1	stim062_animate_insect_ant_2.png	62	animate	insect	ant	2	0	2	stars	2	incorrect	1.2283011829677
42968	1	stim151_inanimate_furniture_closet_3.png	151	inanimate	furniture	closet	3	0	2	stars	2	incorrect	1.2283011829677
43018	1	stim099_animate_mammal_rhino_3.png	99	animate	mammal	rhino	3	0	2	stars	2	incorrect	1.2283011829677
43068	1	stim153_inanimate_furniture_sofa_1.png	153	inanimate	furniture	sofa	1	0	2	stars	2	incorrect	1.2283011829677
43118	1	stim055_animate_human_faces_3.png	55	animate	human	faces	3	0	2	stars	2	incorrect	1.2283011829677
43168	1	stim168_inanimate_plants_cactus_4.png	168	inanimate	plants	cactus	4	0	2	stars	2	incorrect	1.2283011829677
43218	1	stim106_inanimate_clothing_hat_2.png	106	inanimate	clothing	hat	2	0	2	stars	2	incorrect	1.2283011829677
43268	1	stim175_inanimate_plants_tree_3.png	175	inanimate	plants	tree	3	0	2	stars	2	incorrect	1.2283011829677
43318	1	stim116_inanimate_clothing_shirt_4.png	116	inanimate	clothing	shirt	4	0	2	stars	2	incorrect	1.2283011829677
43368	1	stim157_inanimate_furniture_table_1.png	157	inanimate	furniture	table	1	0	2	stars	2	incorrect	1.2283011829677
43418	1	stim088_animate_mammal_giraffe_4.png	88	animate	mammal	giraffe	4	0	2	stars	2	incorrect	1.2283011829677
43468	1	stim170_inanimate_plants_sunflower_2.png	170	inanimate	plants	sunflower	2	0	2	stars	2	incorrect	1.2283011829677
43518	1	stim171_inanimate_plants_sunflower_3.png	171	inanimate	plants	sunflower	3	0	2	stars	2	incorrect	1.2283011829677
43568	1	stim067_animate_insect_bug_3.png	67	animate	insect	bug	3	0	2	stars	2	incorrect	1.2283011829677
43618	1	stim050_animate_human_clown_2.png	50	animate	human	clown	2	0	2	stars	2	incorrect	1.2283011829677
43668	1	stim158_inanimate_furniture_table_2.png	158	inanimate	furniture	table	2	0	2	stars	2	incorrect	1.2283011829677
43718	1	stim188_inanimate_tools_hammer_4.png	188	inanimate	tools	hammer	4	0	2	stars	2	incorrect	1.2283011829677
43768	1	stim053_animate_human_faces_1.png	53	animate	human	faces	1	0	2	stars	2	incorrect	1.2283011829677
43818	1	stim045_animate_human_child_1.png	45	animate	human	child	1	0	2	stars	2	incorrect	1.2283011829677
43868	1	stim079_animate_insect_grasshopper_3.png	79	animate	insect	grasshopper	3	0	2	stars	2	incorrect	1.2283011829677
43918	1	stim068_animate_insect_bug_4.png	68	animate	insect	bug	4	0	2	stars	2	incorrect	1.2283011829677
43968	1	stim043_animate_human_baby_3.png	43	animate	human	baby	3	0	2	stars	2	incorrect	1.2283011829677
44018	1	stim084_animate_mammal_cow_4.png	84	animate	mammal	cow	4	0	2	stars	2	incorrect	1.2283011829677
44068	1	stim148_inanimate_furniture_chair_4.png	148	inanimate	furniture	chair	4	0	2	stars	2	incorrect	1.2283011829677
44118	1	stim093_animate_mammal_monkey_1.png	93	animate	mammal	monkey	1	0	2	stars	2	incorrect	1.2283011829677
44168	1	stim141_inanimate_furniture_bed_1.png	141	inanimate	furniture	bed	1	0	2	stars	2	incorrect	1.2283011829677
44218	1	stim006_animate_aquatic_fish_2.png	6	animate	aquatic	fish	2	0	2	stars	2	incorrect	1.2283011829677
44268	1	stim025_animate_bird_duck_1.png	25	animate	bird	duck	1	0	2	stars	2	incorrect	1.2283011829677
44318	1	stim019_animate_aquatic_shrimp_3.png	19	animate	aquatic	shrimp	3	0	2	stars	2	incorrect	1.2283011829677
44368	1	stim209_targets_shapes_star_1.png	209	targets	shapes	star	1	1	2	stars	2	incorrect	1.2283011829677
44418	1	stim104_inanimate_clothing_gloves_4.png	104	inanimate	clothing	gloves	4	0	2	stars	2	incorrect	1.2283011829677
44469	1	stim183_inanimate_tools_broom_3.png	183	inanimate	tools	broom	3	0	2	stars	2	incorrect	1.2283011829677
44518	1	stim112_inanimate_clothing_jeans_4.png	112	inanimate	clothing	jeans	4	0	2	stars	2	incorrect	1.2283011829677
44568	1	stim124_inanimate_fruits_apple_4.png	124	inanimate	fruits	apple	4	0	2	stars	2	incorrect	1.2283011829677
44618	1	stim110_inanimate_clothing_jeans_2.png	110	inanimate	clothing	jeans	2	0	2	stars	2	incorrect	1.2283011829677
44668	1	stim167_inanimate_plants_cactus_3.png	167	inanimate	plants	cactus	3	0	2	stars	2	incorrect	1.2283011829677
44718	1	stim190_inanimate_tools_pan_2.png	190	inanimate	tools	pan	2	0	2	stars	2	incorrect	1.2283011829677
44768	1	stim121_inanimate_fruits_apple_1.png	121	inanimate	fruits	apple	1	0	2	stars	2	incorrect	1.2283011829677
44818	1	stim057_animate_human_sports_1.png	57	animate	human	sports	1	0	2	stars	2	incorrect	1.2283011829677
44868	1	stim134_inanimate_fruits_pineapple_2.png	134	inanimate	fruits	pineapple	2	0	2	stars	2	incorrect	1.2283011829677
44918	1	stim004_animate_aquatic_crab_4.png	4	animate	aquatic	crab	4	0	2	stars	2	incorrect	1.2283011829677
44968	1	stim192_inanimate_tools_pan_4.png	192	inanimate	tools	pan	4	0	2	stars	2	incorrect	1.2283011829677
45018	1	stim198_inanimate_tools_wrench_2.png	198	inanimate	tools	wrench	2	0	2	stars	2	incorrect	1.2283011829677
45068	1	stim164_inanimate_plants_bush_4.png	164	inanimate	plants	bush	4	0	2	stars	2	incorrect	1.2283011829677
45118	1	stim199_inanimate_tools_wrench_3.png	199	inanimate	tools	wrench	3	0	2	stars	2	incorrect	1.2283011829677
45168	1	stim162_inanimate_plants_bush_2.png	162	inanimate	plants	bush	2	0	2	stars	2	incorrect	1.2283011829677
45219	1	stim035_animate_bird_peacock_3.png	35	animate	bird	peacock	3	0	2	stars	2	incorrect	1.2283011829677
45268	1	stim027_animate_bird_duck_3.png	27	animate	bird	duck	3	0	2	stars	2	incorrect	1.2283011829677
45318	1	stim090_animate_mammal_kangaroo_2.png	90	animate	mammal	kangaroo	2	0	2	stars	2	incorrect	1.2283011829677
45369	1	stim186_inanimate_tools_hammer_2.png	186	inanimate	tools	hammer	2	0	2	stars	2	incorrect	1.2283011829677
45419	1	stim083_animate_mammal_cow_3.png	83	animate	mammal	cow	3	0	2	stars	2	incorrect	1.2283011829677
45469	1	stim095_animate_mammal_monkey_3.png	95	animate	mammal	monkey	3	0	2	stars	2	incorrect	1.2283011829677
45519	1	stim091_animate_mammal_kangaroo_3.png	91	animate	mammal	kangaroo	3	0	2	stars	2	incorrect	1.2283011829677
45569	1	stim008_animate_aquatic_fish_4.png	8	animate	aquatic	fish	4	0	2	stars	2	incorrect	1.2283011829677
45619	1	stim130_inanimate_fruits_grape_2.png	130	inanimate	fruits	grape	2	0	2	stars	2	incorrect	1.2283011829677
45669	1	stim082_animate_mammal_cow_2.png	82	animate	mammal	cow	2	0	2	stars	2	incorrect	1.2283011829677
45719	1	stim159_inanimate_furniture_table_3.png	159	inanimate	furniture	table	3	0	2	stars	2	incorrect	1.2283011829677
45769	1	stim180_inanimate_plants_tulip_4.png	180	inanimate	plants	tulip	4	0	2	stars	2	incorrect	1.2283011829677
45819	1	stim166_inanimate_plants_cactus_2.png	166	inanimate	plants	cactus	2	0	2	stars	2	incorrect	1.2283011829677
45869	1	stim173_inanimate_plants_tree_1.png	173	inanimate	plants	tree	1	0	2	stars	2	incorrect	1.2283011829677
45919	1	stim213_targets_shapes_star_1.png	213	targets	shapes	star	1	1	2	stars	2	incorrect	1.2283011829677
45968	1	stim018_animate_aquatic_shrimp_2.png	18	animate	aquatic	shrimp	2	0	2	stars	2	incorrect	1.2283011829677
46019	1	stim136_inanimate_fruits_pineapple_4.png	136	inanimate	fruits	pineapple	4	0	2	stars	2	incorrect	1.2283011829677
46069	1	stim172_inanimate_plants_sunflower_4.png	172	inanimate	plants	sunflower	4	0	2	stars	2	incorrect	1.2283011829677
46119	1	stim149_inanimate_furniture_closet_1.png	149	inanimate	furniture	closet	1	0	2	stars	2	incorrect	1.2283011829677
46169	1	stim160_inanimate_furniture_table_4.png	160	inanimate	furniture	table	4	0	2	stars	2	incorrect	1.2283011829677
46219	1	stim087_animate_mammal_giraffe_3.png	87	animate	mammal	giraffe	3	0	2	stars	2	incorrect	1.2283011829677
46269	1	stim196_inanimate_tools_scissors_4.png	196	inanimate	tools	scissors	4	0	2	stars	2	incorrect	1.2283011829677
46319	1	stim128_inanimate_fruits_banana_4.png	128	inanimate	fruits	banana	4	0	2	stars	2	incorrect	1.2283011829677
46369	1	stim131_inanimate_fruits_grape_3.png	131	inanimate	fruits	grape	3	0	2	stars	2	incorrect	1.2283011829677
46419	1	stim108_inanimate_clothing_hat_4.png	108	inanimate	clothing	hat	4	0	2	stars	2	incorrect	1.2283011829677
46469	1	stim117_inanimate_clothing_socks_1.png	117	inanimate	clothing	socks	1	0	2	stars	2	incorrect	1.2283011829677
46519	1	stim154_inanimate_furniture_sofa_2.png	154	inanimate	furniture	sofa	2	0	2	stars	2	incorrect	1.2283011829677
46569	1	stim031_animate_bird_parrot_3.png	31	animate	bird	parrot	3	0	2	stars	2	incorrect	1.2283011829677
46619	1	stim125_inanimate_fruits_banana_1.png	125	inanimate	fruits	banana	1	0	2	stars	2	incorrect	1.2283011829677
46669	1	stim097_animate_mammal_rhino_1.png	97	animate	mammal	rhino	1	0	2	stars	2	incorrect	1.2283011829677
46719	1	stim181_inanimate_tools_broom_1.png	181	inanimate	tools	broom	1	0	2	stars	2	incorrect	1.2283011829677
46769	1	stim005_animate_aquatic_fish_1.png	5	animate	aquatic	fish	1	0	2	stars	2	incorrect	1.2283011829677
46819	1	stim182_inanimate_tools_broom_2.png	182	inanimate	tools	broom	2	0	2	stars	2	incorrect	1.2283011829677
46869	1	stim071_animate_insect_butterfly_3.png	71	animate	insect	butterfly	3	0	2	stars	2	incorrect	1.2283011829677
46919	1	stim096_animate_mammal_monkey_4.png	96	animate	mammal	monkey	4	0	2	stars	2	incorrect	1.2283011829677
46969	1	stim072_animate_insect_butterfly_4.png	72	animate	insect	butterfly	4	0	2	stars	2	incorrect	1.2283011829677
47019	1	stim075_animate_insect_dragonfly_3.png	75	animate	insect	dragonfly	3	0	2	stars	2	incorrect	1.2283011829677
47069	1	stim009_animate_aquatic_seahorse_1.png	9	animate	aquatic	seahorse	1	0	2	stars	2	incorrect	1.2283011829677
47119	1	stim113_inanimate_clothing_shirt_1.png	113	inanimate	clothing	shirt	1	0	2	stars	2	incorrect	1.2283011829677
47169	1	stim195_inanimate_tools_scissors_3.png	195	inanimate	tools	scissors	3	0	2	stars	2	incorrect	1.2283011829677
47219	1	stim044_animate_human_baby_4.png	44	animate	human	baby	4	0	2	stars	2	incorrect	1.2283011829677
47269	1	stim163_inanimate_plants_bush_3.png	163	inanimate	plants	bush	3	0	2	stars	2	incorrect	1.2283011829677
47319	1	stim089_animate_mammal_kangaroo_1.png	89	animate	mammal	kangaroo	1	0	2	stars	2	incorrect	1.2283011829677
47369	1	stim033_animate_bird_peacock_1.png	33	animate	bird	peacock	1	0	2	stars	2	incorrect	1.2283011829677
47419	1	stim036_animate_bird_peacock_4.png	36	animate	bird	peacock	4	0	2	stars	2	incorrect	1.2283011829677
47469	1	stim102_inanimate_clothing_gloves_2.png	102	inanimate	clothing	gloves	2	0	2	stars	2	incorrect	1.2283011829677
47519	1	stim041_animate_human_baby_1.png	41	animate	human	baby	1	0	2	stars	2	incorrect	1.2283011829677
47569	1	stim080_animate_insect_grasshopper_4.png	80	animate	insect	grasshopper	4	0	2	stars	2	incorrect	1.2283011829677
47619	1	stim002_animate_aquatic_crab_2.png	2	animate	aquatic	crab	2	0	2	stars	2	incorrect	1.2283011829677
47669	1	stim152_inanimate_furniture_closet_4.png	152	inanimate	furniture	closet	4	0	2	stars	2	incorrect	1.2283011829677
47719	1	stim074_animate_insect_dragonfly_2.png	74	animate	insect	dragonfly	2	0	2	stars	2	incorrect	1.2283011829677
47769	1	stim047_animate_human_child_3.png	47	animate	human	child	3	0	2	stars	2	incorrect	1.2283011829677
47819	1	stim107_inanimate_clothing_hat_3.png	107	inanimate	clothing	hat	3	0	2	stars	2	incorrect	1.2283011829677
47869	1	stim021_animate_bird_chicken_1.png	21	animate	bird	chicken	1	0	2	stars	2	incorrect	1.2283011829677
47919	1	stim133_inanimate_fruits_pineapple_1.png	133	inanimate	fruits	pineapple	1	0	2	stars	2	incorrect	1.2283011829677
47969	1	stim034_animate_bird_peacock_2.png	34	animate	bird	peacock	2	0	2	stars	2	incorrect	1.2283011829677
48019	1	stim081_animate_mammal_cow_1.png	81	animate	mammal	cow	1	0	2	stars	2	incorrect	1.2283011829677
48069	1	stim176_inanimate_plants_tree_4.png	176	inanimate	plants	tree	4	0	2	stars	2	incorrect	1.2283011829677
48119	1	stim119_inanimate_clothing_socks_3.png	119	inanimate	clothing	socks	3	0	2	stars	2	incorrect	1.2283011829677
48169	1	stim161_inanimate_plants_bush_1.png	161	inanimate	plants	bush	1	0	2	stars	2	incorrect	1.2283011829677
48219	1	stim098_animate_mammal_rhino_2.png	98	animate	mammal	rhino	2	0	2	stars	2	incorrect	1.2283011829677
48269	1	stim038_animate_bird_penguin_2.png	38	animate	bird	penguin	2	0	2	stars	2	incorrect	1.2283011829677
60086	1	stim074_animate_insect_dragonfly_2.png	74	animate	insect	dragonfly	2	0	3	boats	2	incorrect	1.37380898975243
60136	1	stim148_inanimate_furniture_chair_4.png	148	inanimate	furniture	chair	4	0	3	boats	2	incorrect	1.37380898975243
60185	1	stim176_inanimate_plants_tree_4.png	176	inanimate	plants	tree	4	0	3	boats	2	incorrect	1.37380898975243
60236	1	stim075_animate_insect_dragonfly_3.png	75	animate	insect	dragonfly	3	0	3	boats	2	incorrect	1.37380898975243
60286	1	stim027_animate_bird_duck_3.png	27	animate	bird	duck	3	0	3	boats	2	incorrect	1.37380898975243
60336	1	stim036_animate_bird_peacock_4.png	36	animate	bird	peacock	4	0	3	boats	2	incorrect	1.37380898975243
60386	1	stim035_animate_bird_peacock_3.png	35	animate	bird	peacock	3	0	3	boats	2	incorrect	1.37380898975243
60436	1	stim040_animate_bird_penguin_4.png	40	animate	bird	penguin	4	0	3	boats	2	incorrect	1.37380898975243
60486	1	stim034_animate_bird_peacock_2.png	34	animate	bird	peacock	2	0	3	boats	2	incorrect	1.37380898975243
60536	1	stim156_inanimate_furniture_sofa_4.png	156	inanimate	furniture	sofa	4	0	3	boats	2	incorrect	1.37380898975243
60586	1	stim151_inanimate_furniture_closet_3.png	151	inanimate	furniture	closet	3	0	3	boats	2	incorrect	1.37380898975243
60636	1	stim001_animate_aquatic_crab_1.png	1	animate	aquatic	crab	1	0	3	boats	2	incorrect	1.37380898975243
60686	1	stim178_inanimate_plants_tulip_2.png	178	inanimate	plants	tulip	2	0	3	boats	2	incorrect	1.37380898975243
60736	1	stim161_inanimate_plants_bush_1.png	161	inanimate	plants	bush	1	0	3	boats	2	incorrect	1.37380898975243
60786	1	stim043_animate_human_baby_3.png	43	animate	human	baby	3	0	3	boats	2	incorrect	1.37380898975243
60836	1	stim108_inanimate_clothing_hat_4.png	108	inanimate	clothing	hat	4	0	3	boats	2	incorrect	1.37380898975243
60886	1	stim120_inanimate_clothing_socks_4.png	120	inanimate	clothing	socks	4	0	3	boats	2	incorrect	1.37380898975243
60936	1	stim013_animate_aquatic_shark_1.png	13	animate	aquatic	shark	1	0	3	boats	2	incorrect	1.37380898975243
60986	1	stim042_animate_human_baby_2.png	42	animate	human	baby	2	0	3	boats	2	incorrect	1.37380898975243
61036	1	stim071_animate_insect_butterfly_3.png	71	animate	insect	butterfly	3	0	3	boats	2	incorrect	1.37380898975243
61086	1	stim100_animate_mammal_rhino_4.png	100	animate	mammal	rhino	4	0	3	boats	2	incorrect	1.37380898975243
61136	1	stim142_inanimate_furniture_bed_2.png	142	inanimate	furniture	bed	2	0	3	boats	2	incorrect	1.37380898975243
61186	1	stim079_animate_insect_grasshopper_3.png	79	animate	insect	grasshopper	3	0	3	boats	2	incorrect	1.37380898975243
61236	1	stim160_inanimate_furniture_table_4.png	160	inanimate	furniture	table	4	0	3	boats	2	incorrect	1.37380898975243
61286	1	stim126_inanimate_fruits_banana_2.png	126	inanimate	fruits	banana	2	0	3	boats	2	incorrect	1.37380898975243
61336	1	stim044_animate_human_baby_4.png	44	animate	human	baby	4	0	3	boats	2	incorrect	1.37380898975243
61386	1	stim032_animate_bird_parrot_4.png	32	animate	bird	parrot	4	0	3	boats	2	incorrect	1.37380898975243
61436	1	stim014_animate_aquatic_shark_2.png	14	animate	aquatic	shark	2	0	3	boats	2	incorrect	1.37380898975243
61486	1	stim053_animate_human_faces_1.png	53	animate	human	faces	1	0	3	boats	2	incorrect	1.37380898975243
61536	1	stim115_inanimate_clothing_shirt_3.png	115	inanimate	clothing	shirt	3	0	3	boats	2	incorrect	1.37380898975243
61586	1	stim065_animate_insect_bug_1.png	65	animate	insect	bug	1	0	3	boats	2	incorrect	1.37380898975243
61636	1	stim127_inanimate_fruits_banana_3.png	127	inanimate	fruits	banana	3	0	3	boats	2	incorrect	1.37380898975243
61686	1	stim187_inanimate_tools_hammer_3.png	187	inanimate	tools	hammer	3	0	3	boats	2	incorrect	1.37380898975243
61736	1	stim056_animate_human_faces_4.png	56	animate	human	faces	4	0	3	boats	2	incorrect	1.37380898975243
61786	1	stim089_animate_mammal_kangaroo_1.png	89	animate	mammal	kangaroo	1	0	3	boats	2	incorrect	1.37380898975243
61836	1	stim139_inanimate_fruits_strawberry_3.png	139	inanimate	fruits	strawberry	3	0	3	boats	2	incorrect	1.37380898975243
61886	1	stim076_animate_insect_dragonfly_4.png	76	animate	insect	dragonfly	4	0	3	boats	2	incorrect	1.37380898975243
61936	1	stim175_inanimate_plants_tree_3.png	175	inanimate	plants	tree	3	0	3	boats	2	incorrect	1.37380898975243
61986	1	stim048_animate_human_child_4.png	48	animate	human	child	4	0	3	boats	2	incorrect	1.37380898975243
62036	1	stim167_inanimate_plants_cactus_3.png	167	inanimate	plants	cactus	3	0	3	boats	2	incorrect	1.37380898975243
62086	1	stim087_animate_mammal_giraffe_3.png	87	animate	mammal	giraffe	3	0	3	boats	2	incorrect	1.37380898975243
62136	1	stim152_inanimate_furniture_closet_4.png	152	inanimate	furniture	closet	4	0	3	boats	2	incorrect	1.37380898975243
62186	1	stim021_animate_bird_chicken_1.png	21	animate	bird	chicken	1	0	3	boats	2	incorrect	1.37380898975243
62236	1	stim068_animate_insect_bug_4.png	68	animate	insect	bug	4	0	3	boats	2	incorrect	1.37380898975243
62286	1	stim098_animate_mammal_rhino_2.png	98	animate	mammal	rhino	2	0	3	boats	2	incorrect	1.37380898975243
62336	1	stim125_inanimate_fruits_banana_1.png	125	inanimate	fruits	banana	1	0	3	boats	2	incorrect	1.37380898975243
62386	1	stim153_inanimate_furniture_sofa_1.png	153	inanimate	furniture	sofa	1	0	3	boats	2	incorrect	1.37380898975243
62436	1	stim134_inanimate_fruits_pineapple_2.png	134	inanimate	fruits	pineapple	2	0	3	boats	2	incorrect	1.37380898975243
62486	1	stim171_inanimate_plants_sunflower_3.png	171	inanimate	plants	sunflower	3	0	3	boats	2	incorrect	1.37380898975243
62536	1	stim003_animate_aquatic_crab_3.png	3	animate	aquatic	crab	3	0	3	boats	2	incorrect	1.37380898975243
62586	1	stim123_inanimate_fruits_apple_3.png	123	inanimate	fruits	apple	3	0	3	boats	2	incorrect	1.37380898975243
62636	1	stim205_targets_object_boats_1.png	205	targets	object	boats	1	1	3	boats	2	incorrect	1.37380898975243
62686	1	stim114_inanimate_clothing_shirt_2.png	114	inanimate	clothing	shirt	2	0	3	boats	2	incorrect	1.37380898975243
62736	1	stim009_animate_aquatic_seahorse_1.png	9	animate	aquatic	seahorse	1	0	3	boats	2	incorrect	1.37380898975243
62786	1	stim060_animate_human_sports_4.png	60	animate	human	sports	4	0	3	boats	2	incorrect	1.37380898975243
62836	1	stim062_animate_insect_ant_2.png	62	animate	insect	ant	2	0	3	boats	2	incorrect	1.37380898975243
62886	1	stim011_animate_aquatic_seahorse_3.png	11	animate	aquatic	seahorse	3	0	3	boats	2	incorrect	1.37380898975243
62936	1	stim010_animate_aquatic_seahorse_2.png	10	animate	aquatic	seahorse	2	0	3	boats	2	incorrect	1.37380898975243
62986	1	stim049_animate_human_clown_1.png	49	animate	human	clown	1	0	3	boats	2	incorrect	1.37380898975243
63036	1	stim169_inanimate_plants_sunflower_1.png	169	inanimate	plants	sunflower	1	0	3	boats	2	incorrect	1.37380898975243
63086	1	stim038_animate_bird_penguin_2.png	38	animate	bird	penguin	2	0	3	boats	2	incorrect	1.37380898975243
63136	1	stim149_inanimate_furniture_closet_1.png	149	inanimate	furniture	closet	1	0	3	boats	2	incorrect	1.37380898975243
63186	1	stim186_inanimate_tools_hammer_2.png	186	inanimate	tools	hammer	2	0	3	boats	2	incorrect	1.37380898975243
63236	1	stim033_animate_bird_peacock_1.png	33	animate	bird	peacock	1	0	3	boats	2	incorrect	1.37380898975243
63286	1	stim155_inanimate_furniture_sofa_3.png	155	inanimate	furniture	sofa	3	0	3	boats	2	incorrect	1.37380898975243
63336	1	stim018_animate_aquatic_shrimp_2.png	18	animate	aquatic	shrimp	2	0	3	boats	2	incorrect	1.37380898975243
63386	1	stim016_animate_aquatic_shark_4.png	16	animate	aquatic	shark	4	0	3	boats	2	incorrect	1.37380898975243
63436	1	stim093_animate_mammal_monkey_1.png	93	animate	mammal	monkey	1	0	3	boats	2	incorrect	1.37380898975243
63486	1	stim008_animate_aquatic_fish_4.png	8	animate	aquatic	fish	4	0	3	boats	2	incorrect	1.37380898975243
63536	1	stim162_inanimate_plants_bush_2.png	162	inanimate	plants	bush	2	0	3	boats	2	incorrect	1.37380898975243
63586	1	stim117_inanimate_clothing_socks_1.png	117	inanimate	clothing	socks	1	0	3	boats	2	incorrect	1.37380898975243
63636	1	stim147_inanimate_furniture_chair_3.png	147	inanimate	furniture	chair	3	0	3	boats	2	incorrect	1.37380898975243
63686	1	stim019_animate_aquatic_shrimp_3.png	19	animate	aquatic	shrimp	3	0	3	boats	2	incorrect	1.37380898975243
63736	1	stim002_animate_aquatic_crab_2.png	2	animate	aquatic	crab	2	0	3	boats	2	incorrect	1.37380898975243
63786	1	stim144_inanimate_furniture_bed_4.png	144	inanimate	furniture	bed	4	0	3	boats	2	incorrect	1.37380898975243
63836	1	stim173_inanimate_plants_tree_1.png	173	inanimate	plants	tree	1	0	3	boats	2	incorrect	1.37380898975243
63886	1	stim084_animate_mammal_cow_4.png	84	animate	mammal	cow	4	0	3	boats	2	incorrect	1.37380898975243
63936	1	stim163_inanimate_plants_bush_3.png	163	inanimate	plants	bush	3	0	3	boats	2	incorrect	1.37380898975243
63986	1	stim119_inanimate_clothing_socks_3.png	119	inanimate	clothing	socks	3	0	3	boats	2	incorrect	1.37380898975243
64036	1	stim206_targets_object_boats_2.png	206	targets	object	boats	2	1	3	boats	2	incorrect	1.37380898975243
64086	1	stim198_inanimate_tools_wrench_2.png	198	inanimate	tools	wrench	2	0	3	boats	2	incorrect	1.37380898975243
64136	1	stim124_inanimate_fruits_apple_4.png	124	inanimate	fruits	apple	4	0	3	boats	2	incorrect	1.37380898975243
64186	1	stim183_inanimate_tools_broom_3.png	183	inanimate	tools	broom	3	0	3	boats	2	incorrect	1.37380898975243
64236	1	stim082_animate_mammal_cow_2.png	82	animate	mammal	cow	2	0	3	boats	2	incorrect	1.37380898975243
64286	1	stim190_inanimate_tools_pan_2.png	190	inanimate	tools	pan	2	0	3	boats	2	incorrect	1.37380898975243
64336	1	stim166_inanimate_plants_cactus_2.png	166	inanimate	plants	cactus	2	0	3	boats	2	incorrect	1.37380898975243
64386	1	stim095_animate_mammal_monkey_3.png	95	animate	mammal	monkey	3	0	3	boats	2	incorrect	1.37380898975243
64436	1	stim118_inanimate_clothing_socks_2.png	118	inanimate	clothing	socks	2	0	3	boats	2	incorrect	1.37380898975243
64486	1	stim174_inanimate_plants_tree_2.png	174	inanimate	plants	tree	2	0	3	boats	2	incorrect	1.37380898975243
64536	1	stim078_animate_insect_grasshopper_2.png	78	animate	insect	grasshopper	2	0	3	boats	2	incorrect	1.37380898975243
64586	1	stim104_inanimate_clothing_gloves_4.png	104	inanimate	clothing	gloves	4	0	3	boats	2	incorrect	1.37380898975243
64636	1	stim182_inanimate_tools_broom_2.png	182	inanimate	tools	broom	2	0	3	boats	2	incorrect	1.37380898975243
64686	1	stim077_animate_insect_grasshopper_1.png	77	animate	insect	grasshopper	1	0	3	boats	2	incorrect	1.37380898975243
64736	1	stim023_animate_bird_chicken_3.png	23	animate	bird	chicken	3	0	3	boats	2	incorrect	1.37380898975243
64786	1	stim189_inanimate_tools_pan_1.png	189	inanimate	tools	pan	1	0	3	boats	2	incorrect	1.37380898975243
64836	1	stim085_animate_mammal_giraffe_1.png	85	animate	mammal	giraffe	1	0	3	boats	2	incorrect	1.37380898975243
64886	1	stim130_inanimate_fruits_grape_2.png	130	inanimate	fruits	grape	2	0	3	boats	2	incorrect	1.37380898975243
64936	1	stim150_inanimate_furniture_closet_2.png	150	inanimate	furniture	closet	2	0	3	boats	2	incorrect	1.37380898975243
64986	1	stim109_inanimate_clothing_jeans_1.png	109	inanimate	clothing	jeans	1	0	3	boats	2	incorrect	1.37380898975243
65036	1	stim050_animate_human_clown_2.png	50	animate	human	clown	2	0	3	boats	2	incorrect	1.37380898975243
65086	1	stim113_inanimate_clothing_shirt_1.png	113	inanimate	clothing	shirt	1	0	3	boats	2	incorrect	1.37380898975243
65136	1	stim081_animate_mammal_cow_1.png	81	animate	mammal	cow	1	0	3	boats	2	incorrect	1.37380898975243
65186	1	stim193_inanimate_tools_scissors_1.png	193	inanimate	tools	scissors	1	0	3	boats	2	incorrect	1.37380898975243
65236	1	stim185_inanimate_tools_hammer_1.png	185	inanimate	tools	hammer	1	0	3	boats	2	incorrect	1.37380898975243
65286	1	stim196_inanimate_tools_scissors_4.png	196	inanimate	tools	scissors	4	0	3	boats	2	incorrect	1.37380898975243
65336	1	stim073_animate_insect_dragonfly_1.png	73	animate	insect	dragonfly	1	0	3	boats	2	incorrect	1.37380898975243
65386	1	stim028_animate_bird_duck_4.png	28	animate	bird	duck	4	0	3	boats	2	incorrect	1.37380898975243
65436	1	stim197_inanimate_tools_wrench_1.png	197	inanimate	tools	wrench	1	0	3	boats	2	incorrect	1.37380898975243
65486	1	stim135_inanimate_fruits_pineapple_3.png	135	inanimate	fruits	pineapple	3	0	3	boats	2	incorrect	1.37380898975243
65536	1	stim055_animate_human_faces_3.png	55	animate	human	faces	3	0	3	boats	2	incorrect	1.37380898975243
65586	1	stim101_inanimate_clothing_gloves_1.png	101	inanimate	clothing	gloves	1	0	3	boats	2	incorrect	1.37380898975243
65636	1	stim063_animate_insect_ant_3.png	63	animate	insect	ant	3	0	3	boats	2	incorrect	1.37380898975243
65686	1	stim057_animate_human_sports_1.png	57	animate	human	sports	1	0	3	boats	2	incorrect	1.37380898975243
65736	1	stim020_animate_aquatic_shrimp_4.png	20	animate	aquatic	shrimp	4	0	3	boats	2	incorrect	1.37380898975243
65786	1	stim037_animate_bird_penguin_1.png	37	animate	bird	penguin	1	0	3	boats	2	incorrect	1.37380898975243
65836	1	stim192_inanimate_tools_pan_4.png	192	inanimate	tools	pan	4	0	3	boats	2	incorrect	1.37380898975243
65886	1	stim045_animate_human_child_1.png	45	animate	human	child	1	0	3	boats	2	incorrect	1.37380898975243
65936	1	stim138_inanimate_fruits_strawberry_2.png	138	inanimate	fruits	strawberry	2	0	3	boats	2	incorrect	1.37380898975243
65986	1	stim054_animate_human_faces_2.png	54	animate	human	faces	2	0	3	boats	2	incorrect	1.37380898975243
66036	1	stim039_animate_bird_penguin_3.png	39	animate	bird	penguin	3	0	3	boats	2	incorrect	1.37380898975243
66086	1	stim146_inanimate_furniture_chair_2.png	146	inanimate	furniture	chair	2	0	3	boats	2	incorrect	1.37380898975243
66136	1	stim165_inanimate_plants_cactus_1.png	165	inanimate	plants	cactus	1	0	3	boats	2	incorrect	1.37380898975243
66186	1	stim099_animate_mammal_rhino_3.png	99	animate	mammal	rhino	3	0	3	boats	2	incorrect	1.37380898975243
66236	1	stim164_inanimate_plants_bush_4.png	164	inanimate	plants	bush	4	0	3	boats	2	incorrect	1.37380898975243
66286	1	stim061_animate_insect_ant_1.png	61	animate	insect	ant	1	0	3	boats	2	incorrect	1.37380898975243
66336	1	stim204_targets_object_boats_4.png	204	targets	object	boats	4	1	3	boats	2	incorrect	1.37380898975243
66386	1	stim137_inanimate_fruits_strawberry_1.png	137	inanimate	fruits	strawberry	1	0	3	boats	2	incorrect	1.37380898975243
66436	1	stim131_inanimate_fruits_grape_3.png	131	inanimate	fruits	grape	3	0	3	boats	2	incorrect	1.37380898975243
66486	1	stim031_animate_bird_parrot_3.png	31	animate	bird	parrot	3	0	3	boats	2	incorrect	1.37380898975243
66536	1	stim170_inanimate_plants_sunflower_2.png	170	inanimate	plants	sunflower	2	0	3	boats	2	incorrect	1.37380898975243
66586	1	stim070_animate_insect_butterfly_2.png	70	animate	insect	butterfly	2	0	3	boats	2	incorrect	1.37380898975243
66636	1	stim122_inanimate_fruits_apple_2.png	122	inanimate	fruits	apple	2	0	3	boats	2	incorrect	1.37380898975243
66686	1	stim080_animate_insect_grasshopper_4.png	80	animate	insect	grasshopper	4	0	3	boats	2	incorrect	1.37380898975243
66736	1	stim181_inanimate_tools_broom_1.png	181	inanimate	tools	broom	1	0	3	boats	2	incorrect	1.37380898975243
66786	1	stim143_inanimate_furniture_bed_3.png	143	inanimate	furniture	bed	3	0	3	boats	2	incorrect	1.37380898975243
66836	1	stim112_inanimate_clothing_jeans_4.png	112	inanimate	clothing	jeans	4	0	3	boats	2	incorrect	1.37380898975243
66886	1	stim116_inanimate_clothing_shirt_4.png	116	inanimate	clothing	shirt	4	0	3	boats	2	incorrect	1.37380898975243
66936	1	stim107_inanimate_clothing_hat_3.png	107	inanimate	clothing	hat	3	0	3	boats	2	incorrect	1.37380898975243
66986	1	stim005_animate_aquatic_fish_1.png	5	animate	aquatic	fish	1	0	3	boats	2	incorrect	1.37380898975243
67036	1	stim132_inanimate_fruits_grape_4.png	132	inanimate	fruits	grape	4	0	3	boats	2	incorrect	1.37380898975243
67086	1	stim088_animate_mammal_giraffe_4.png	88	animate	mammal	giraffe	4	0	3	boats	2	incorrect	1.37380898975243
67136	1	stim069_animate_insect_butterfly_1.png	69	animate	insect	butterfly	1	0	3	boats	2	incorrect	1.37380898975243
67186	1	stim157_inanimate_furniture_table_1.png	157	inanimate	furniture	table	1	0	3	boats	2	incorrect	1.37380898975243
67236	1	stim195_inanimate_tools_scissors_3.png	195	inanimate	tools	scissors	3	0	3	boats	2	incorrect	1.37380898975243
67286	1	stim067_animate_insect_bug_3.png	67	animate	insect	bug	3	0	3	boats	2	incorrect	1.37380898975243
67336	1	stim159_inanimate_furniture_table_3.png	159	inanimate	furniture	table	3	0	3	boats	2	incorrect	1.37380898975243
67386	1	stim140_inanimate_fruits_strawberry_4.png	140	inanimate	fruits	strawberry	4	0	3	boats	2	incorrect	1.37380898975243
67436	1	stim200_inanimate_tools_wrench_4.png	200	inanimate	tools	wrench	4	0	3	boats	2	incorrect	1.37380898975243
67486	1	stim111_inanimate_clothing_jeans_3.png	111	inanimate	clothing	jeans	3	0	3	boats	2	incorrect	1.37380898975243
67536	1	stim188_inanimate_tools_hammer_4.png	188	inanimate	tools	hammer	4	0	3	boats	2	incorrect	1.37380898975243
67586	1	stim201_targets_object_boats_1.png	201	targets	object	boats	1	1	3	boats	2	incorrect	1.37380898975243
67636	1	stim072_animate_insect_butterfly_4.png	72	animate	insect	butterfly	4	0	3	boats	2	incorrect	1.37380898975243
67686	1	stim141_inanimate_furniture_bed_1.png	141	inanimate	furniture	bed	1	0	3	boats	2	incorrect	1.37380898975243
67736	1	stim052_animate_human_clown_4.png	52	animate	human	clown	4	0	3	boats	2	incorrect	1.37380898975243
67786	1	stim094_animate_mammal_monkey_2.png	94	animate	mammal	monkey	2	0	3	boats	2	incorrect	1.37380898975243
67836	1	stim158_inanimate_furniture_table_2.png	158	inanimate	furniture	table	2	0	3	boats	2	incorrect	1.37380898975243
67886	1	stim103_inanimate_clothing_gloves_3.png	103	inanimate	clothing	gloves	3	0	3	boats	2	incorrect	1.37380898975243
67936	1	stim058_animate_human_sports_2.png	58	animate	human	sports	2	0	3	boats	2	incorrect	1.37380898975243
67986	1	stim180_inanimate_plants_tulip_4.png	180	inanimate	plants	tulip	4	0	3	boats	2	incorrect	1.37380898975243
68036	1	stim017_animate_aquatic_shrimp_1.png	17	animate	aquatic	shrimp	1	0	3	boats	2	incorrect	1.37380898975243
68086	1	stim051_animate_human_clown_3.png	51	animate	human	clown	3	0	3	boats	2	incorrect	1.37380898975243
68136	1	stim041_animate_human_baby_1.png	41	animate	human	baby	1	0	3	boats	2	incorrect	1.37380898975243
68186	1	stim064_animate_insect_ant_4.png	64	animate	insect	ant	4	0	3	boats	2	incorrect	1.37380898975243
68236	1	stim091_animate_mammal_kangaroo_3.png	91	animate	mammal	kangaroo	3	0	3	boats	2	incorrect	1.37380898975243
68286	1	stim177_inanimate_plants_tulip_1.png	177	inanimate	plants	tulip	1	0	3	boats	2	incorrect	1.37380898975243
68336	1	stim012_animate_aquatic_seahorse_4.png	12	animate	aquatic	seahorse	4	0	3	boats	2	incorrect	1.37380898975243
68386	1	stim024_animate_bird_chicken_4.png	24	animate	bird	chicken	4	0	3	boats	2	incorrect	1.37380898975243
68436	1	stim199_inanimate_tools_wrench_3.png	199	inanimate	tools	wrench	3	0	3	boats	2	incorrect	1.37380898975243
68486	1	stim090_animate_mammal_kangaroo_2.png	90	animate	mammal	kangaroo	2	0	3	boats	2	incorrect	1.37380898975243
68536	1	stim006_animate_aquatic_fish_2.png	6	animate	aquatic	fish	2	0	3	boats	2	incorrect	1.37380898975243
68586	1	stim105_inanimate_clothing_hat_1.png	105	inanimate	clothing	hat	1	0	3	boats	2	incorrect	1.37380898975243
68636	1	stim110_inanimate_clothing_jeans_2.png	110	inanimate	clothing	jeans	2	0	3	boats	2	incorrect	1.37380898975243
68686	1	stim030_animate_bird_parrot_2.png	30	animate	bird	parrot	2	0	3	boats	2	incorrect	1.37380898975243
68736	1	stim025_animate_bird_duck_1.png	25	animate	bird	duck	1	0	3	boats	2	incorrect	1.37380898975243
68786	1	stim179_inanimate_plants_tulip_3.png	179	inanimate	plants	tulip	3	0	3	boats	2	incorrect	1.37380898975243
68836	1	stim092_animate_mammal_kangaroo_4.png	92	animate	mammal	kangaroo	4	0	3	boats	2	incorrect	1.37380898975243
68886	1	stim015_animate_aquatic_shark_3.png	15	animate	aquatic	shark	3	0	3	boats	2	incorrect	1.37380898975243
68936	1	stim047_animate_human_child_3.png	47	animate	human	child	3	0	3	boats	2	incorrect	1.37380898975243
68986	1	stim133_inanimate_fruits_pineapple_1.png	133	inanimate	fruits	pineapple	1	0	3	boats	2	incorrect	1.37380898975243
69036	1	stim097_animate_mammal_rhino_1.png	97	animate	mammal	rhino	1	0	3	boats	2	incorrect	1.37380898975243
69086	1	stim083_animate_mammal_cow_3.png	83	animate	mammal	cow	3	0	3	boats	2	incorrect	1.37380898975243
69136	1	stim184_inanimate_tools_broom_4.png	184	inanimate	tools	broom	4	0	3	boats	2	incorrect	1.37380898975243
69186	1	stim145_inanimate_furniture_chair_1.png	145	inanimate	furniture	chair	1	0	3	boats	2	incorrect	1.37380898975243
69236	1	stim096_animate_mammal_monkey_4.png	96	animate	mammal	monkey	4	0	3	boats	2	incorrect	1.37380898975243
69286	1	stim102_inanimate_clothing_gloves_2.png	102	inanimate	clothing	gloves	2	0	3	boats	2	incorrect	1.37380898975243
69336	1	stim066_animate_insect_bug_2.png	66	animate	insect	bug	2	0	3	boats	2	incorrect	1.37380898975243
69386	1	stim194_inanimate_tools_scissors_2.png	194	inanimate	tools	scissors	2	0	3	boats	2	incorrect	1.37380898975243
69436	1	stim172_inanimate_plants_sunflower_4.png	172	inanimate	plants	sunflower	4	0	3	boats	2	incorrect	1.37380898975243
69486	1	stim154_inanimate_furniture_sofa_2.png	154	inanimate	furniture	sofa	2	0	3	boats	2	incorrect	1.37380898975243
69536	1	stim059_animate_human_sports_3.png	59	animate	human	sports	3	0	3	boats	2	incorrect	1.37380898975243
69586	1	stim168_inanimate_plants_cactus_4.png	168	inanimate	plants	cactus	4	0	3	boats	2	incorrect	1.37380898975243
69636	1	stim046_animate_human_child_2.png	46	animate	human	child	2	0	3	boats	2	incorrect	1.37380898975243
69686	1	stim007_animate_aquatic_fish_3.png	7	animate	aquatic	fish	3	0	3	boats	2	incorrect	1.37380898975243
69736	1	stim004_animate_aquatic_crab_4.png	4	animate	aquatic	crab	4	0	3	boats	2	incorrect	1.37380898975243
69786	1	stim129_inanimate_fruits_grape_1.png	129	inanimate	fruits	grape	1	0	3	boats	2	incorrect	1.37380898975243
69836	1	stim128_inanimate_fruits_banana_4.png	128	inanimate	fruits	banana	4	0	3	boats	2	incorrect	1.37380898975243
69886	1	stim026_animate_bird_duck_2.png	26	animate	bird	duck	2	0	3	boats	2	incorrect	1.37380898975243
69936	1	stim029_animate_bird_parrot_1.png	29	animate	bird	parrot	1	0	3	boats	2	incorrect	1.37380898975243
69986	1	stim136_inanimate_fruits_pineapple_4.png	136	inanimate	fruits	pineapple	4	0	3	boats	2	incorrect	1.37380898975243
70036	1	stim086_animate_mammal_giraffe_2.png	86	animate	mammal	giraffe	2	0	3	boats	2	incorrect	1.37380898975243
70086	1	stim106_inanimate_clothing_hat_2.png	106	inanimate	clothing	hat	2	0	3	boats	2	incorrect	1.37380898975243
70136	1	stim121_inanimate_fruits_apple_1.png	121	inanimate	fruits	apple	1	0	3	boats	2	incorrect	1.37380898975243
70186	1	stim022_animate_bird_chicken_2.png	22	animate	bird	chicken	2	0	3	boats	2	incorrect	1.37380898975243
70236	1	stim191_inanimate_tools_pan_3.png	191	inanimate	tools	pan	3	0	3	boats	2	incorrect	1.37380898975243
77619	1	stim126_inanimate_fruits_banana_2.png	126	inanimate	fruits	banana	2	0	4	stars	2	incorrect	1.38099893699109
77669	1	stim157_inanimate_furniture_table_1.png	157	inanimate	furniture	table	1	0	4	stars	2	incorrect	1.38099893699109
77719	1	stim149_inanimate_furniture_closet_1.png	149	inanimate	furniture	closet	1	0	4	stars	2	incorrect	1.38099893699109
77769	1	stim182_inanimate_tools_broom_2.png	182	inanimate	tools	broom	2	0	4	stars	2	incorrect	1.38099893699109
77819	1	stim181_inanimate_tools_broom_1.png	181	inanimate	tools	broom	1	0	4	stars	2	incorrect	1.38099893699109
77869	1	stim148_inanimate_furniture_chair_4.png	148	inanimate	furniture	chair	4	0	4	stars	2	incorrect	1.38099893699109
77919	1	stim061_animate_insect_ant_1.png	61	animate	insect	ant	1	0	4	stars	2	incorrect	1.38099893699109
77969	1	stim129_inanimate_fruits_grape_1.png	129	inanimate	fruits	grape	1	0	4	stars	2	incorrect	1.38099893699109
78019	1	stim110_inanimate_clothing_jeans_2.png	110	inanimate	clothing	jeans	2	0	4	stars	2	incorrect	1.38099893699109
78069	1	stim038_animate_bird_penguin_2.png	38	animate	bird	penguin	2	0	4	stars	2	incorrect	1.38099893699109
78119	1	stim081_animate_mammal_cow_1.png	81	animate	mammal	cow	1	0	4	stars	2	incorrect	1.38099893699109
78169	1	stim073_animate_insect_dragonfly_1.png	73	animate	insect	dragonfly	1	0	4	stars	2	incorrect	1.38099893699109
78219	1	stim178_inanimate_plants_tulip_2.png	178	inanimate	plants	tulip	2	0	4	stars	2	incorrect	1.38099893699109
78269	1	stim017_animate_aquatic_shrimp_1.png	17	animate	aquatic	shrimp	1	0	4	stars	2	incorrect	1.38099893699109
78319	1	stim196_inanimate_tools_scissors_4.png	196	inanimate	tools	scissors	4	0	4	stars	2	incorrect	1.38099893699109
78369	1	stim174_inanimate_plants_tree_2.png	174	inanimate	plants	tree	2	0	4	stars	2	incorrect	1.38099893699109
78419	1	stim145_inanimate_furniture_chair_1.png	145	inanimate	furniture	chair	1	0	4	stars	2	incorrect	1.38099893699109
78469	1	stim187_inanimate_tools_hammer_3.png	187	inanimate	tools	hammer	3	0	4	stars	2	incorrect	1.38099893699109
78519	1	stim117_inanimate_clothing_socks_1.png	117	inanimate	clothing	socks	1	0	4	stars	2	incorrect	1.38099893699109
78569	1	stim165_inanimate_plants_cactus_1.png	165	inanimate	plants	cactus	1	0	4	stars	2	incorrect	1.38099893699109
78619	1	stim193_inanimate_tools_scissors_1.png	193	inanimate	tools	scissors	1	0	4	stars	2	incorrect	1.38099893699109
78669	1	stim037_animate_bird_penguin_1.png	37	animate	bird	penguin	1	0	4	stars	2	incorrect	1.38099893699109
78719	1	stim079_animate_insect_grasshopper_3.png	79	animate	insect	grasshopper	3	0	4	stars	2	incorrect	1.38099893699109
78769	1	stim176_inanimate_plants_tree_4.png	176	inanimate	plants	tree	4	0	4	stars	2	incorrect	1.38099893699109
78819	1	stim150_inanimate_furniture_closet_2.png	150	inanimate	furniture	closet	2	0	4	stars	2	incorrect	1.38099893699109
78869	1	stim183_inanimate_tools_broom_3.png	183	inanimate	tools	broom	3	0	4	stars	2	incorrect	1.38099893699109
78919	1	stim112_inanimate_clothing_jeans_4.png	112	inanimate	clothing	jeans	4	0	4	stars	2	incorrect	1.38099893699109
78969	1	stim082_animate_mammal_cow_2.png	82	animate	mammal	cow	2	0	4	stars	2	incorrect	1.38099893699109
79019	1	stim003_animate_aquatic_crab_3.png	3	animate	aquatic	crab	3	0	4	stars	2	incorrect	1.38099893699109
79069	1	stim170_inanimate_plants_sunflower_2.png	170	inanimate	plants	sunflower	2	0	4	stars	2	incorrect	1.38099893699109
79119	1	stim091_animate_mammal_kangaroo_3.png	91	animate	mammal	kangaroo	3	0	4	stars	2	incorrect	1.38099893699109
79169	1	stim166_inanimate_plants_cactus_2.png	166	inanimate	plants	cactus	2	0	4	stars	2	incorrect	1.38099893699109
79219	1	stim070_animate_insect_butterfly_2.png	70	animate	insect	butterfly	2	0	4	stars	2	incorrect	1.38099893699109
79269	1	stim064_animate_insect_ant_4.png	64	animate	insect	ant	4	0	4	stars	2	incorrect	1.38099893699109
79319	1	stim050_animate_human_clown_2.png	50	animate	human	clown	2	0	4	stars	2	incorrect	1.38099893699109
79369	1	stim198_inanimate_tools_wrench_2.png	198	inanimate	tools	wrench	2	0	4	stars	2	incorrect	1.38099893699109
79419	1	stim101_inanimate_clothing_gloves_1.png	101	inanimate	clothing	gloves	1	0	4	stars	2	incorrect	1.38099893699109
79469	1	stim146_inanimate_furniture_chair_2.png	146	inanimate	furniture	chair	2	0	4	stars	2	incorrect	1.38099893699109
79519	1	stim168_inanimate_plants_cactus_4.png	168	inanimate	plants	cactus	4	0	4	stars	2	incorrect	1.38099893699109
79569	1	stim072_animate_insect_butterfly_4.png	72	animate	insect	butterfly	4	0	4	stars	2	incorrect	1.38099893699109
79619	1	stim122_inanimate_fruits_apple_2.png	122	inanimate	fruits	apple	2	0	4	stars	2	incorrect	1.38099893699109
79669	1	stim018_animate_aquatic_shrimp_2.png	18	animate	aquatic	shrimp	2	0	4	stars	2	incorrect	1.38099893699109
79719	1	stim107_inanimate_clothing_hat_3.png	107	inanimate	clothing	hat	3	0	4	stars	2	incorrect	1.38099893699109
79769	1	stim185_inanimate_tools_hammer_1.png	185	inanimate	tools	hammer	1	0	4	stars	2	incorrect	1.38099893699109
79819	1	stim083_animate_mammal_cow_3.png	83	animate	mammal	cow	3	0	4	stars	2	incorrect	1.38099893699109
79869	1	stim155_inanimate_furniture_sofa_3.png	155	inanimate	furniture	sofa	3	0	4	stars	2	incorrect	1.38099893699109
79919	1	stim078_animate_insect_grasshopper_2.png	78	animate	insect	grasshopper	2	0	4	stars	2	incorrect	1.38099893699109
79969	1	stim131_inanimate_fruits_grape_3.png	131	inanimate	fruits	grape	3	0	4	stars	2	incorrect	1.38099893699109
80019	1	stim153_inanimate_furniture_sofa_1.png	153	inanimate	furniture	sofa	1	0	4	stars	2	incorrect	1.38099893699109
80069	1	stim052_animate_human_clown_4.png	52	animate	human	clown	4	0	4	stars	2	incorrect	1.38099893699109
80119	1	stim055_animate_human_faces_3.png	55	animate	human	faces	3	0	4	stars	2	incorrect	1.38099893699109
80169	1	stim133_inanimate_fruits_pineapple_1.png	133	inanimate	fruits	pineapple	1	0	4	stars	2	incorrect	1.38099893699109
80219	1	stim211_targets_shapes_star_3.png	211	targets	shapes	star	3	1	4	stars	2	incorrect	1.38099893699109
80269	1	stim032_animate_bird_parrot_4.png	32	animate	bird	parrot	4	0	4	stars	2	incorrect	1.38099893699109
80319	1	stim046_animate_human_child_2.png	46	animate	human	child	2	0	4	stars	2	incorrect	1.38099893699109
80369	1	stim054_animate_human_faces_2.png	54	animate	human	faces	2	0	4	stars	2	incorrect	1.38099893699109
80419	1	stim045_animate_human_child_1.png	45	animate	human	child	1	0	4	stars	2	incorrect	1.38099893699109
80469	1	stim172_inanimate_plants_sunflower_4.png	172	inanimate	plants	sunflower	4	0	4	stars	2	incorrect	1.38099893699109
80519	1	stim087_animate_mammal_giraffe_3.png	87	animate	mammal	giraffe	3	0	4	stars	2	incorrect	1.38099893699109
80569	1	stim093_animate_mammal_monkey_1.png	93	animate	mammal	monkey	1	0	4	stars	2	incorrect	1.38099893699109
80619	1	stim171_inanimate_plants_sunflower_3.png	171	inanimate	plants	sunflower	3	0	4	stars	2	incorrect	1.38099893699109
80669	1	stim108_inanimate_clothing_hat_4.png	108	inanimate	clothing	hat	4	0	4	stars	2	incorrect	1.38099893699109
80719	1	stim175_inanimate_plants_tree_3.png	175	inanimate	plants	tree	3	0	4	stars	2	incorrect	1.38099893699109
80769	1	stim137_inanimate_fruits_strawberry_1.png	137	inanimate	fruits	strawberry	1	0	4	stars	2	incorrect	1.38099893699109
80819	1	stim053_animate_human_faces_1.png	53	animate	human	faces	1	0	4	stars	2	incorrect	1.38099893699109
80869	1	stim066_animate_insect_bug_2.png	66	animate	insect	bug	2	0	4	stars	2	incorrect	1.38099893699109
80919	1	stim071_animate_insect_butterfly_3.png	71	animate	insect	butterfly	3	0	4	stars	2	incorrect	1.38099893699109
80969	1	stim063_animate_insect_ant_3.png	63	animate	insect	ant	3	0	4	stars	2	incorrect	1.38099893699109
81019	1	stim043_animate_human_baby_3.png	43	animate	human	baby	3	0	4	stars	2	incorrect	1.38099893699109
81069	1	stim141_inanimate_furniture_bed_1.png	141	inanimate	furniture	bed	1	0	4	stars	2	incorrect	1.38099893699109
81119	1	stim143_inanimate_furniture_bed_3.png	143	inanimate	furniture	bed	3	0	4	stars	2	incorrect	1.38099893699109
81169	1	stim118_inanimate_clothing_socks_2.png	118	inanimate	clothing	socks	2	0	4	stars	2	incorrect	1.38099893699109
81219	1	stim140_inanimate_fruits_strawberry_4.png	140	inanimate	fruits	strawberry	4	0	4	stars	2	incorrect	1.38099893699109
81269	1	stim197_inanimate_tools_wrench_1.png	197	inanimate	tools	wrench	1	0	4	stars	2	incorrect	1.38099893699109
81319	1	stim084_animate_mammal_cow_4.png	84	animate	mammal	cow	4	0	4	stars	2	incorrect	1.38099893699109
81369	1	stim035_animate_bird_peacock_3.png	35	animate	bird	peacock	3	0	4	stars	2	incorrect	1.38099893699109
81419	1	stim120_inanimate_clothing_socks_4.png	120	inanimate	clothing	socks	4	0	4	stars	2	incorrect	1.38099893699109
81469	1	stim068_animate_insect_bug_4.png	68	animate	insect	bug	4	0	4	stars	2	incorrect	1.38099893699109
81519	1	stim134_inanimate_fruits_pineapple_2.png	134	inanimate	fruits	pineapple	2	0	4	stars	2	incorrect	1.38099893699109
81569	1	stim106_inanimate_clothing_hat_2.png	106	inanimate	clothing	hat	2	0	4	stars	2	incorrect	1.38099893699109
81619	1	stim195_inanimate_tools_scissors_3.png	195	inanimate	tools	scissors	3	0	4	stars	2	incorrect	1.38099893699109
81669	1	stim159_inanimate_furniture_table_3.png	159	inanimate	furniture	table	3	0	4	stars	2	incorrect	1.38099893699109
81719	1	stim012_animate_aquatic_seahorse_4.png	12	animate	aquatic	seahorse	4	0	4	stars	2	incorrect	1.38099893699109
81769	1	stim154_inanimate_furniture_sofa_2.png	154	inanimate	furniture	sofa	2	0	4	stars	2	incorrect	1.38099893699109
81819	1	stim044_animate_human_baby_4.png	44	animate	human	baby	4	0	4	stars	2	incorrect	1.38099893699109
81869	1	stim042_animate_human_baby_2.png	42	animate	human	baby	2	0	4	stars	2	incorrect	1.38099893699109
81919	1	stim161_inanimate_plants_bush_1.png	161	inanimate	plants	bush	1	0	4	stars	2	incorrect	1.38099893699109
81969	1	stim022_animate_bird_chicken_2.png	22	animate	bird	chicken	2	0	4	stars	2	incorrect	1.38099893699109
82019	1	stim030_animate_bird_parrot_2.png	30	animate	bird	parrot	2	0	4	stars	2	incorrect	1.38099893699109
82069	1	stim007_animate_aquatic_fish_3.png	7	animate	aquatic	fish	3	0	4	stars	2	incorrect	1.38099893699109
82119	1	stim109_inanimate_clothing_jeans_1.png	109	inanimate	clothing	jeans	1	0	4	stars	2	incorrect	1.38099893699109
82169	1	stim023_animate_bird_chicken_3.png	23	animate	bird	chicken	3	0	4	stars	2	incorrect	1.38099893699109
82219	1	stim164_inanimate_plants_bush_4.png	164	inanimate	plants	bush	4	0	4	stars	2	incorrect	1.38099893699109
82269	1	stim095_animate_mammal_monkey_3.png	95	animate	mammal	monkey	3	0	4	stars	2	incorrect	1.38099893699109
82319	1	stim111_inanimate_clothing_jeans_3.png	111	inanimate	clothing	jeans	3	0	4	stars	2	incorrect	1.38099893699109
82369	1	stim074_animate_insect_dragonfly_2.png	74	animate	insect	dragonfly	2	0	4	stars	2	incorrect	1.38099893699109
82419	1	stim069_animate_insect_butterfly_1.png	69	animate	insect	butterfly	1	0	4	stars	2	incorrect	1.38099893699109
82469	1	stim062_animate_insect_ant_2.png	62	animate	insect	ant	2	0	4	stars	2	incorrect	1.38099893699109
82519	1	stim169_inanimate_plants_sunflower_1.png	169	inanimate	plants	sunflower	1	0	4	stars	2	incorrect	1.38099893699109
82569	1	stim047_animate_human_child_3.png	47	animate	human	child	3	0	4	stars	2	incorrect	1.38099893699109
82619	1	stim179_inanimate_plants_tulip_3.png	179	inanimate	plants	tulip	3	0	4	stars	2	incorrect	1.38099893699109
82669	1	stim215_targets_shapes_star_3.png	215	targets	shapes	star	3	1	4	stars	2	incorrect	1.38099893699109
82719	1	stim135_inanimate_fruits_pineapple_3.png	135	inanimate	fruits	pineapple	3	0	4	stars	2	incorrect	1.38099893699109
82769	1	stim124_inanimate_fruits_apple_4.png	124	inanimate	fruits	apple	4	0	4	stars	2	incorrect	1.38099893699109
82819	1	stim065_animate_insect_bug_1.png	65	animate	insect	bug	1	0	4	stars	2	incorrect	1.38099893699109
82869	1	stim180_inanimate_plants_tulip_4.png	180	inanimate	plants	tulip	4	0	4	stars	2	incorrect	1.38099893699109
82919	1	stim158_inanimate_furniture_table_2.png	158	inanimate	furniture	table	2	0	4	stars	2	incorrect	1.38099893699109
82969	1	stim080_animate_insect_grasshopper_4.png	80	animate	insect	grasshopper	4	0	4	stars	2	incorrect	1.38099893699109
83019	1	stim001_animate_aquatic_crab_1.png	1	animate	aquatic	crab	1	0	4	stars	2	incorrect	1.38099893699109
83069	1	stim019_animate_aquatic_shrimp_3.png	19	animate	aquatic	shrimp	3	0	4	stars	2	incorrect	1.38099893699109
83119	1	stim006_animate_aquatic_fish_2.png	6	animate	aquatic	fish	2	0	4	stars	2	incorrect	1.38099893699109
83169	1	stim092_animate_mammal_kangaroo_4.png	92	animate	mammal	kangaroo	4	0	4	stars	2	incorrect	1.38099893699109
83219	1	stim173_inanimate_plants_tree_1.png	173	inanimate	plants	tree	1	0	4	stars	2	incorrect	1.38099893699109
83269	1	stim130_inanimate_fruits_grape_2.png	130	inanimate	fruits	grape	2	0	4	stars	2	incorrect	1.38099893699109
83319	1	stim041_animate_human_baby_1.png	41	animate	human	baby	1	0	4	stars	2	incorrect	1.38099893699109
83369	1	stim067_animate_insect_bug_3.png	67	animate	insect	bug	3	0	4	stars	2	incorrect	1.38099893699109
83419	1	stim014_animate_aquatic_shark_2.png	14	animate	aquatic	shark	2	0	4	stars	2	incorrect	1.38099893699109
83469	1	stim020_animate_aquatic_shrimp_4.png	20	animate	aquatic	shrimp	4	0	4	stars	2	incorrect	1.38099893699109
83519	1	stim136_inanimate_fruits_pineapple_4.png	136	inanimate	fruits	pineapple	4	0	4	stars	2	incorrect	1.38099893699109
83569	1	stim051_animate_human_clown_3.png	51	animate	human	clown	3	0	4	stars	2	incorrect	1.38099893699109
83619	1	stim076_animate_insect_dragonfly_4.png	76	animate	insect	dragonfly	4	0	4	stars	2	incorrect	1.38099893699109
83669	1	stim147_inanimate_furniture_chair_3.png	147	inanimate	furniture	chair	3	0	4	stars	2	incorrect	1.38099893699109
83719	1	stim123_inanimate_fruits_apple_3.png	123	inanimate	fruits	apple	3	0	4	stars	2	incorrect	1.38099893699109
83769	1	stim058_animate_human_sports_2.png	58	animate	human	sports	2	0	4	stars	2	incorrect	1.38099893699109
83819	1	stim119_inanimate_clothing_socks_3.png	119	inanimate	clothing	socks	3	0	4	stars	2	incorrect	1.38099893699109
83869	1	stim075_animate_insect_dragonfly_3.png	75	animate	insect	dragonfly	3	0	4	stars	2	incorrect	1.38099893699109
83919	1	stim139_inanimate_fruits_strawberry_3.png	139	inanimate	fruits	strawberry	3	0	4	stars	2	incorrect	1.38099893699109
83969	1	stim152_inanimate_furniture_closet_4.png	152	inanimate	furniture	closet	4	0	4	stars	2	incorrect	1.38099893699109
84019	1	stim002_animate_aquatic_crab_2.png	2	animate	aquatic	crab	2	0	4	stars	2	incorrect	1.38099893699109
84069	1	stim102_inanimate_clothing_gloves_2.png	102	inanimate	clothing	gloves	2	0	4	stars	2	incorrect	1.38099893699109
84119	1	stim033_animate_bird_peacock_1.png	33	animate	bird	peacock	1	0	4	stars	2	incorrect	1.38099893699109
84169	1	stim199_inanimate_tools_wrench_3.png	199	inanimate	tools	wrench	3	0	4	stars	2	incorrect	1.38099893699109
84219	1	stim027_animate_bird_duck_3.png	27	animate	bird	duck	3	0	4	stars	2	incorrect	1.38099893699109
84269	1	stim144_inanimate_furniture_bed_4.png	144	inanimate	furniture	bed	4	0	4	stars	2	incorrect	1.38099893699109
84319	1	stim186_inanimate_tools_hammer_2.png	186	inanimate	tools	hammer	2	0	4	stars	2	incorrect	1.38099893699109
84369	1	stim098_animate_mammal_rhino_2.png	98	animate	mammal	rhino	2	0	4	stars	2	incorrect	1.38099893699109
84419	1	stim194_inanimate_tools_scissors_2.png	194	inanimate	tools	scissors	2	0	4	stars	2	incorrect	1.38099893699109
84469	1	stim213_targets_shapes_star_1.png	213	targets	shapes	star	1	1	4	stars	2	incorrect	1.38099893699109
84519	1	stim029_animate_bird_parrot_1.png	29	animate	bird	parrot	1	0	4	stars	2	incorrect	1.38099893699109
84569	1	stim086_animate_mammal_giraffe_2.png	86	animate	mammal	giraffe	2	0	4	stars	2	incorrect	1.38099893699109
84619	1	stim125_inanimate_fruits_banana_1.png	125	inanimate	fruits	banana	1	0	4	stars	2	incorrect	1.38099893699109
84669	1	stim040_animate_bird_penguin_4.png	40	animate	bird	penguin	4	0	4	stars	2	incorrect	1.38099893699109
84719	1	stim097_animate_mammal_rhino_1.png	97	animate	mammal	rhino	1	0	4	stars	2	incorrect	1.38099893699109
84769	1	stim099_animate_mammal_rhino_3.png	99	animate	mammal	rhino	3	0	4	stars	2	incorrect	1.38099893699109
84819	1	stim127_inanimate_fruits_banana_3.png	127	inanimate	fruits	banana	3	0	4	stars	2	incorrect	1.38099893699109
84869	1	stim090_animate_mammal_kangaroo_2.png	90	animate	mammal	kangaroo	2	0	4	stars	2	incorrect	1.38099893699109
84919	1	stim105_inanimate_clothing_hat_1.png	105	inanimate	clothing	hat	1	0	4	stars	2	incorrect	1.38099893699109
84969	1	stim156_inanimate_furniture_sofa_4.png	156	inanimate	furniture	sofa	4	0	4	stars	2	incorrect	1.38099893699109
85019	1	stim013_animate_aquatic_shark_1.png	13	animate	aquatic	shark	1	0	4	stars	2	incorrect	1.38099893699109
85069	1	stim031_animate_bird_parrot_3.png	31	animate	bird	parrot	3	0	4	stars	2	incorrect	1.38099893699109
85119	1	stim021_animate_bird_chicken_1.png	21	animate	bird	chicken	1	0	4	stars	2	incorrect	1.38099893699109
85169	1	stim056_animate_human_faces_4.png	56	animate	human	faces	4	0	4	stars	2	incorrect	1.38099893699109
85219	1	stim184_inanimate_tools_broom_4.png	184	inanimate	tools	broom	4	0	4	stars	2	incorrect	1.38099893699109
85269	1	stim016_animate_aquatic_shark_4.png	16	animate	aquatic	shark	4	0	4	stars	2	incorrect	1.38099893699109
85319	1	stim167_inanimate_plants_cactus_3.png	167	inanimate	plants	cactus	3	0	4	stars	2	incorrect	1.38099893699109
85369	1	stim088_animate_mammal_giraffe_4.png	88	animate	mammal	giraffe	4	0	4	stars	2	incorrect	1.38099893699109
85419	1	stim024_animate_bird_chicken_4.png	24	animate	bird	chicken	4	0	4	stars	2	incorrect	1.38099893699109
85469	1	stim015_animate_aquatic_shark_3.png	15	animate	aquatic	shark	3	0	4	stars	2	incorrect	1.38099893699109
85519	1	stim103_inanimate_clothing_gloves_3.png	103	inanimate	clothing	gloves	3	0	4	stars	2	incorrect	1.38099893699109
85569	1	stim036_animate_bird_peacock_4.png	36	animate	bird	peacock	4	0	4	stars	2	incorrect	1.38099893699109
85619	1	stim096_animate_mammal_monkey_4.png	96	animate	mammal	monkey	4	0	4	stars	2	incorrect	1.38099893699109
85669	1	stim060_animate_human_sports_4.png	60	animate	human	sports	4	0	4	stars	2	incorrect	1.38099893699109
85719	1	stim085_animate_mammal_giraffe_1.png	85	animate	mammal	giraffe	1	0	4	stars	2	incorrect	1.38099893699109
85769	1	stim151_inanimate_furniture_closet_3.png	151	inanimate	furniture	closet	3	0	4	stars	2	incorrect	1.38099893699109
85819	1	stim049_animate_human_clown_1.png	49	animate	human	clown	1	0	4	stars	2	incorrect	1.38099893699109
85869	1	stim048_animate_human_child_4.png	48	animate	human	child	4	0	4	stars	2	incorrect	1.38099893699109
85919	1	stim188_inanimate_tools_hammer_4.png	188	inanimate	tools	hammer	4	0	4	stars	2	incorrect	1.38099893699109
85969	1	stim190_inanimate_tools_pan_2.png	190	inanimate	tools	pan	2	0	4	stars	2	incorrect	1.38099893699109
86019	1	stim116_inanimate_clothing_shirt_4.png	116	inanimate	clothing	shirt	4	0	4	stars	2	incorrect	1.38099893699109
86069	1	stim057_animate_human_sports_1.png	57	animate	human	sports	1	0	4	stars	2	incorrect	1.38099893699109
86119	1	stim034_animate_bird_peacock_2.png	34	animate	bird	peacock	2	0	4	stars	2	incorrect	1.38099893699109
86169	1	stim160_inanimate_furniture_table_4.png	160	inanimate	furniture	table	4	0	4	stars	2	incorrect	1.38099893699109
86219	1	stim005_animate_aquatic_fish_1.png	5	animate	aquatic	fish	1	0	4	stars	2	incorrect	1.38099893699109
86269	1	stim114_inanimate_clothing_shirt_2.png	114	inanimate	clothing	shirt	2	0	4	stars	2	incorrect	1.38099893699109
86319	1	stim009_animate_aquatic_seahorse_1.png	9	animate	aquatic	seahorse	1	0	4	stars	2	incorrect	1.38099893699109
86369	1	stim026_animate_bird_duck_2.png	26	animate	bird	duck	2	0	4	stars	2	incorrect	1.38099893699109
86419	1	stim142_inanimate_furniture_bed_2.png	142	inanimate	furniture	bed	2	0	4	stars	2	incorrect	1.38099893699109
86469	1	stim010_animate_aquatic_seahorse_2.png	10	animate	aquatic	seahorse	2	0	4	stars	2	incorrect	1.38099893699109
86519	1	stim011_animate_aquatic_seahorse_3.png	11	animate	aquatic	seahorse	3	0	4	stars	2	incorrect	1.38099893699109
86569	1	stim008_animate_aquatic_fish_4.png	8	animate	aquatic	fish	4	0	4	stars	2	incorrect	1.38099893699109
86619	1	stim177_inanimate_plants_tulip_1.png	177	inanimate	plants	tulip	1	0	4	stars	2	incorrect	1.38099893699109
86669	1	stim039_animate_bird_penguin_3.png	39	animate	bird	penguin	3	0	4	stars	2	incorrect	1.38099893699109
86719	1	stim138_inanimate_fruits_strawberry_2.png	138	inanimate	fruits	strawberry	2	0	4	stars	2	incorrect	1.38099893699109
86769	1	stim200_inanimate_tools_wrench_4.png	200	inanimate	tools	wrench	4	0	4	stars	2	incorrect	1.38099893699109
86819	1	stim115_inanimate_clothing_shirt_3.png	115	inanimate	clothing	shirt	3	0	4	stars	2	incorrect	1.38099893699109
86869	1	stim077_animate_insect_grasshopper_1.png	77	animate	insect	grasshopper	1	0	4	stars	2	incorrect	1.38099893699109
86919	1	stim094_animate_mammal_monkey_2.png	94	animate	mammal	monkey	2	0	4	stars	2	incorrect	1.38099893699109
86969	1	stim162_inanimate_plants_bush_2.png	162	inanimate	plants	bush	2	0	4	stars	2	incorrect	1.38099893699109
87019	1	stim163_inanimate_plants_bush_3.png	163	inanimate	plants	bush	3	0	4	stars	2	incorrect	1.38099893699109
87069	1	stim121_inanimate_fruits_apple_1.png	121	inanimate	fruits	apple	1	0	4	stars	2	incorrect	1.38099893699109
87119	1	stim132_inanimate_fruits_grape_4.png	132	inanimate	fruits	grape	4	0	4	stars	2	incorrect	1.38099893699109
87169	1	stim028_animate_bird_duck_4.png	28	animate	bird	duck	4	0	4	stars	2	incorrect	1.38099893699109
87219	1	stim059_animate_human_sports_3.png	59	animate	human	sports	3	0	4	stars	2	incorrect	1.38099893699109
87269	1	stim192_inanimate_tools_pan_4.png	192	inanimate	tools	pan	4	0	4	stars	2	incorrect	1.38099893699109
87319	1	stim128_inanimate_fruits_banana_4.png	128	inanimate	fruits	banana	4	0	4	stars	2	incorrect	1.38099893699109
87369	1	stim113_inanimate_clothing_shirt_1.png	113	inanimate	clothing	shirt	1	0	4	stars	2	incorrect	1.38099893699109
87419	1	stim025_animate_bird_duck_1.png	25	animate	bird	duck	1	0	4	stars	2	incorrect	1.38099893699109
87469	1	stim004_animate_aquatic_crab_4.png	4	animate	aquatic	crab	4	0	4	stars	2	incorrect	1.38099893699109
87519	1	stim191_inanimate_tools_pan_3.png	191	inanimate	tools	pan	3	0	4	stars	2	incorrect	1.38099893699109
87569	1	stim104_inanimate_clothing_gloves_4.png	104	inanimate	clothing	gloves	4	0	4	stars	2	incorrect	1.38099893699109
87619	1	stim189_inanimate_tools_pan_1.png	189	inanimate	tools	pan	1	0	4	stars	2	incorrect	1.38099893699109
87669	1	stim089_animate_mammal_kangaroo_1.png	89	animate	mammal	kangaroo	1	0	4	stars	2	incorrect	1.38099893699109
87719	1	stim100_animate_mammal_rhino_4.png	100	animate	mammal	rhino	4	0	4	stars	2	incorrect	1.38099893699109
98636	1	stim024_animate_bird_chicken_4.png	24	animate	bird	chicken	4	0	5	boats	3	incorrect	1.382236271078
98686	1	stim200_inanimate_tools_wrench_4.png	200	inanimate	tools	wrench	4	0	5	boats	3	incorrect	1.382236271078
98736	1	stim110_inanimate_clothing_jeans_2.png	110	inanimate	clothing	jeans	2	0	5	boats	3	incorrect	1.382236271078
98786	1	stim137_inanimate_fruits_strawberry_1.png	137	inanimate	fruits	strawberry	1	0	5	boats	3	incorrect	1.382236271078
98836	1	stim166_inanimate_plants_cactus_2.png	166	inanimate	plants	cactus	2	0	5	boats	3	incorrect	1.382236271078
98886	1	stim136_inanimate_fruits_pineapple_4.png	136	inanimate	fruits	pineapple	4	0	5	boats	3	incorrect	1.382236271078
98936	1	stim026_animate_bird_duck_2.png	26	animate	bird	duck	2	0	5	boats	3	incorrect	1.382236271078
98986	1	stim009_animate_aquatic_seahorse_1.png	9	animate	aquatic	seahorse	1	0	5	boats	3	incorrect	1.382236271078
99036	1	stim078_animate_insect_grasshopper_2.png	78	animate	insect	grasshopper	2	0	5	boats	3	incorrect	1.382236271078
99086	1	stim197_inanimate_tools_wrench_1.png	197	inanimate	tools	wrench	1	0	5	boats	3	incorrect	1.382236271078
99136	1	stim122_inanimate_fruits_apple_2.png	122	inanimate	fruits	apple	2	0	5	boats	3	incorrect	1.382236271078
99186	1	stim126_inanimate_fruits_banana_2.png	126	inanimate	fruits	banana	2	0	5	boats	3	incorrect	1.382236271078
99236	1	stim195_inanimate_tools_scissors_3.png	195	inanimate	tools	scissors	3	0	5	boats	3	incorrect	1.382236271078
99286	1	stim149_inanimate_furniture_closet_1.png	149	inanimate	furniture	closet	1	0	5	boats	3	incorrect	1.382236271078
99336	1	stim005_animate_aquatic_fish_1.png	5	animate	aquatic	fish	1	0	5	boats	3	incorrect	1.382236271078
99386	1	stim139_inanimate_fruits_strawberry_3.png	139	inanimate	fruits	strawberry	3	0	5	boats	3	incorrect	1.382236271078
99436	1	stim116_inanimate_clothing_shirt_4.png	116	inanimate	clothing	shirt	4	0	5	boats	3	incorrect	1.382236271078
99486	1	stim001_animate_aquatic_crab_1.png	1	animate	aquatic	crab	1	0	5	boats	3	incorrect	1.382236271078
99536	1	stim130_inanimate_fruits_grape_2.png	130	inanimate	fruits	grape	2	0	5	boats	3	incorrect	1.382236271078
99586	1	stim184_inanimate_tools_broom_4.png	184	inanimate	tools	broom	4	0	5	boats	3	incorrect	1.382236271078
99636	1	stim142_inanimate_furniture_bed_2.png	142	inanimate	furniture	bed	2	0	5	boats	3	incorrect	1.382236271078
99686	1	stim173_inanimate_plants_tree_1.png	173	inanimate	plants	tree	1	0	5	boats	3	incorrect	1.382236271078
99736	1	stim194_inanimate_tools_scissors_2.png	194	inanimate	tools	scissors	2	0	5	boats	3	incorrect	1.382236271078
99786	1	stim096_animate_mammal_monkey_4.png	96	animate	mammal	monkey	4	0	5	boats	3	incorrect	1.382236271078
99836	1	stim144_inanimate_furniture_bed_4.png	144	inanimate	furniture	bed	4	0	5	boats	3	incorrect	1.382236271078
99886	1	stim155_inanimate_furniture_sofa_3.png	155	inanimate	furniture	sofa	3	0	5	boats	3	incorrect	1.382236271078
99936	1	stim134_inanimate_fruits_pineapple_2.png	134	inanimate	fruits	pineapple	2	0	5	boats	3	incorrect	1.382236271078
99986	1	stim085_animate_mammal_giraffe_1.png	85	animate	mammal	giraffe	1	0	5	boats	3	incorrect	1.382236271078
100036	1	stim081_animate_mammal_cow_1.png	81	animate	mammal	cow	1	0	5	boats	3	incorrect	1.382236271078
100086	1	stim183_inanimate_tools_broom_3.png	183	inanimate	tools	broom	3	0	5	boats	3	incorrect	1.382236271078
100136	1	stim094_animate_mammal_monkey_2.png	94	animate	mammal	monkey	2	0	5	boats	3	incorrect	1.382236271078
100186	1	stim175_inanimate_plants_tree_3.png	175	inanimate	plants	tree	3	0	5	boats	3	incorrect	1.382236271078
100236	1	stim062_animate_insect_ant_2.png	62	animate	insect	ant	2	0	5	boats	3	incorrect	1.382236271078
100286	1	stim045_animate_human_child_1.png	45	animate	human	child	1	0	5	boats	3	incorrect	1.382236271078
100336	1	stim073_animate_insect_dragonfly_1.png	73	animate	insect	dragonfly	1	0	5	boats	3	incorrect	1.382236271078
100386	1	stim108_inanimate_clothing_hat_4.png	108	inanimate	clothing	hat	4	0	5	boats	3	incorrect	1.382236271078
100436	1	stim044_animate_human_baby_4.png	44	animate	human	baby	4	0	5	boats	3	incorrect	1.382236271078
100486	1	stim082_animate_mammal_cow_2.png	82	animate	mammal	cow	2	0	5	boats	3	incorrect	1.382236271078
100536	1	stim099_animate_mammal_rhino_3.png	99	animate	mammal	rhino	3	0	5	boats	3	incorrect	1.382236271078
100586	1	stim107_inanimate_clothing_hat_3.png	107	inanimate	clothing	hat	3	0	5	boats	3	incorrect	1.382236271078
100636	1	stim113_inanimate_clothing_shirt_1.png	113	inanimate	clothing	shirt	1	0	5	boats	3	incorrect	1.382236271078
100686	1	stim007_animate_aquatic_fish_3.png	7	animate	aquatic	fish	3	0	5	boats	3	incorrect	1.382236271078
100736	1	stim145_inanimate_furniture_chair_1.png	145	inanimate	furniture	chair	1	0	5	boats	3	incorrect	1.382236271078
100786	1	stim064_animate_insect_ant_4.png	64	animate	insect	ant	4	0	5	boats	3	incorrect	1.382236271078
100836	1	stim164_inanimate_plants_bush_4.png	164	inanimate	plants	bush	4	0	5	boats	3	incorrect	1.382236271078
100886	1	stim032_animate_bird_parrot_4.png	32	animate	bird	parrot	4	0	5	boats	3	incorrect	1.382236271078
100936	1	stim167_inanimate_plants_cactus_3.png	167	inanimate	plants	cactus	3	0	5	boats	3	incorrect	1.382236271078
100986	1	stim207_targets_object_boats_3.png	207	targets	object	boats	3	1	5	boats	3	incorrect	1.382236271078
101036	1	stim185_inanimate_tools_hammer_1.png	185	inanimate	tools	hammer	1	0	5	boats	3	incorrect	1.382236271078
101086	1	stim115_inanimate_clothing_shirt_3.png	115	inanimate	clothing	shirt	3	0	5	boats	3	incorrect	1.382236271078
101136	1	stim090_animate_mammal_kangaroo_2.png	90	animate	mammal	kangaroo	2	0	5	boats	3	incorrect	1.382236271078
101186	1	stim071_animate_insect_butterfly_3.png	71	animate	insect	butterfly	3	0	5	boats	3	incorrect	1.382236271078
101236	1	stim025_animate_bird_duck_1.png	25	animate	bird	duck	1	0	5	boats	3	incorrect	1.382236271078
101286	1	stim051_animate_human_clown_3.png	51	animate	human	clown	3	0	5	boats	3	incorrect	1.382236271078
101336	1	stim023_animate_bird_chicken_3.png	23	animate	bird	chicken	3	0	5	boats	3	incorrect	1.382236271078
101386	1	stim153_inanimate_furniture_sofa_1.png	153	inanimate	furniture	sofa	1	0	5	boats	3	incorrect	1.382236271078
101436	1	stim055_animate_human_faces_3.png	55	animate	human	faces	3	0	5	boats	3	incorrect	1.382236271078
101486	1	stim020_animate_aquatic_shrimp_4.png	20	animate	aquatic	shrimp	4	0	5	boats	3	incorrect	1.382236271078
101536	1	stim157_inanimate_furniture_table_1.png	157	inanimate	furniture	table	1	0	5	boats	3	incorrect	1.382236271078
101586	1	stim048_animate_human_child_4.png	48	animate	human	child	4	0	5	boats	3	incorrect	1.382236271078
101636	1	stim029_animate_bird_parrot_1.png	29	animate	bird	parrot	1	0	5	boats	3	incorrect	1.382236271078
101686	1	stim161_inanimate_plants_bush_1.png	161	inanimate	plants	bush	1	0	5	boats	3	incorrect	1.382236271078
101736	1	stim061_animate_insect_ant_1.png	61	animate	insect	ant	1	0	5	boats	3	incorrect	1.382236271078
101786	1	stim141_inanimate_furniture_bed_1.png	141	inanimate	furniture	bed	1	0	5	boats	3	incorrect	1.382236271078
101836	1	stim034_animate_bird_peacock_2.png	34	animate	bird	peacock	2	0	5	boats	3	incorrect	1.382236271078
101886	1	stim072_animate_insect_butterfly_4.png	72	animate	insect	butterfly	4	0	5	boats	3	incorrect	1.382236271078
101936	1	stim027_animate_bird_duck_3.png	27	animate	bird	duck	3	0	5	boats	3	incorrect	1.382236271078
101986	1	stim189_inanimate_tools_pan_1.png	189	inanimate	tools	pan	1	0	5	boats	3	incorrect	1.382236271078
102036	1	stim021_animate_bird_chicken_1.png	21	animate	bird	chicken	1	0	5	boats	3	incorrect	1.382236271078
102086	1	stim042_animate_human_baby_2.png	42	animate	human	baby	2	0	5	boats	3	incorrect	1.382236271078
102136	1	stim057_animate_human_sports_1.png	57	animate	human	sports	1	0	5	boats	3	incorrect	1.382236271078
102186	1	stim068_animate_insect_bug_4.png	68	animate	insect	bug	4	0	5	boats	3	incorrect	1.382236271078
102236	1	stim047_animate_human_child_3.png	47	animate	human	child	3	0	5	boats	3	incorrect	1.382236271078
102286	1	stim003_animate_aquatic_crab_3.png	3	animate	aquatic	crab	3	0	5	boats	3	incorrect	1.382236271078
102336	1	stim031_animate_bird_parrot_3.png	31	animate	bird	parrot	3	0	5	boats	3	incorrect	1.382236271078
102386	1	stim204_targets_object_boats_4.png	204	targets	object	boats	4	1	5	boats	3	incorrect	1.382236271078
102436	1	stim030_animate_bird_parrot_2.png	30	animate	bird	parrot	2	0	5	boats	3	incorrect	1.382236271078
102486	1	stim169_inanimate_plants_sunflower_1.png	169	inanimate	plants	sunflower	1	0	5	boats	3	incorrect	1.382236271078
102536	1	stim180_inanimate_plants_tulip_4.png	180	inanimate	plants	tulip	4	0	5	boats	3	incorrect	1.382236271078
102586	1	stim125_inanimate_fruits_banana_1.png	125	inanimate	fruits	banana	1	0	5	boats	3	incorrect	1.382236271078
102636	1	stim147_inanimate_furniture_chair_3.png	147	inanimate	furniture	chair	3	0	5	boats	3	incorrect	1.382236271078
102686	1	stim163_inanimate_plants_bush_3.png	163	inanimate	plants	bush	3	0	5	boats	3	incorrect	1.382236271078
102736	1	stim151_inanimate_furniture_closet_3.png	151	inanimate	furniture	closet	3	0	5	boats	3	incorrect	1.382236271078
102786	1	stim129_inanimate_fruits_grape_1.png	129	inanimate	fruits	grape	1	0	5	boats	3	incorrect	1.382236271078
