onset	duration	stimulusname	stimulusnumber	levelA	levelB	levelC	withinexemplarnumber	istarget	trialnumber	condition	response	correct	rt
66270	1	stim027_animate_bird_duck_3.png	27	animate	bird	duck	3	0	1	boats	1	incorrect	2.4541976711298
66470	1	stim017_animate_aquatic_shrimp_1.png	17	animate	aquatic	shrimp	1	0	1	boats	1	incorrect	2.4541976711298
66670	1	stim152_inanimate_furniture_closet_4.png	152	inanimate	furniture	closet	4	0	1	boats	1	incorrect	2.4541976711298
66870	1	stim173_inanimate_plants_tree_1.png	173	inanimate	plants	tree	1	0	1	boats	1	incorrect	2.4541976711298
67070	1	stim115_inanimate_clothing_shirt_3.png	115	inanimate	clothing	shirt	3	0	1	boats	1	incorrect	2.4541976711298
67270	1	stim093_animate_mammal_monkey_1.png	93	animate	mammal	monkey	1	0	1	boats	1	incorrect	2.4541976711298
67470	1	stim005_animate_aquatic_fish_1.png	5	animate	aquatic	fish	1	0	1	boats	1	incorrect	2.4541976711298
67670	1	stim119_inanimate_clothing_socks_3.png	119	inanimate	clothing	socks	3	0	1	boats	1	incorrect	2.4541976711298
67870	1	stim002_animate_aquatic_crab_2.png	2	animate	aquatic	crab	2	0	1	boats	1	incorrect	2.4541976711298
68070	1	stim079_animate_insect_grasshopper_3.png	79	animate	insect	grasshopper	3	0	1	boats	1	incorrect	2.4541976711298
68270	1	stim158_inanimate_furniture_table_2.png	158	inanimate	furniture	table	2	0	1	boats	1	incorrect	2.4541976711298
68470	1	stim167_inanimate_plants_cactus_3.png	167	inanimate	plants	cactus	3	0	1	boats	1	incorrect	2.4541976711298
68670	1	stim162_inanimate_plants_bush_2.png	162	inanimate	plants	bush	2	0	1	boats	1	incorrect	2.4541976711298
68870	1	stim114_inanimate_clothing_shirt_2.png	114	inanimate	clothing	shirt	2	0	1	boats	1	incorrect	2.4541976711298
69070	1	stim181_inanimate_tools_broom_1.png	181	inanimate	tools	broom	1	0	1	boats	1	incorrect	2.4541976711298
69270	1	stim058_animate_human_sports_2.png	58	animate	human	sports	2	0	1	boats	1	incorrect	2.4541976711298
69470	1	stim127_inanimate_fruits_banana_3.png	127	inanimate	fruits	banana	3	0	1	boats	1	incorrect	2.4541976711298
69670	1	stim146_inanimate_furniture_chair_2.png	146	inanimate	furniture	chair	2	0	1	boats	1	incorrect	2.4541976711298
69870	1	stim124_inanimate_fruits_apple_4.png	124	inanimate	fruits	apple	4	0	1	boats	1	incorrect	2.4541976711298
70070	1	stim179_inanimate_plants_tulip_3.png	179	inanimate	plants	tulip	3	0	1	boats	1	incorrect	2.4541976711298
70270	1	stim061_animate_insect_ant_1.png	61	animate	insect	ant	1	0	1	boats	1	incorrect	2.4541976711298
70470	1	stim087_animate_mammal_giraffe_3.png	87	animate	mammal	giraffe	3	0	1	boats	1	incorrect	2.4541976711298
70670	1	stim001_animate_aquatic_crab_1.png	1	animate	aquatic	crab	1	0	1	boats	1	incorrect	2.4541976711298
70870	1	stim055_animate_human_faces_3.png	55	animate	human	faces	3	0	1	boats	1	incorrect	2.4541976711298
71070	1	stim142_inanimate_furniture_bed_2.png	142	inanimate	furniture	bed	2	0	1	boats	1	incorrect	2.4541976711298
71270	1	stim025_animate_bird_duck_1.png	25	animate	bird	duck	1	0	1	boats	1	incorrect	2.4541976711298
71470	1	stim117_inanimate_clothing_socks_1.png	117	inanimate	clothing	socks	1	0	1	boats	1	incorrect	2.4541976711298
71670	1	stim121_inanimate_fruits_apple_1.png	121	inanimate	fruits	apple	1	0	1	boats	1	incorrect	2.4541976711298
71870	1	stim052_animate_human_clown_4.png	52	animate	human	clown	4	0	1	boats	1	incorrect	2.4541976711298
72070	1	stim116_inanimate_clothing_shirt_4.png	116	inanimate	clothing	shirt	4	0	1	boats	1	incorrect	2.4541976711298
72270	1	stim022_animate_bird_chicken_2.png	22	animate	bird	chicken	2	0	1	boats	1	incorrect	2.4541976711298
72470	1	stim195_inanimate_tools_scissors_3.png	195	inanimate	tools	scissors	3	0	1	boats	1	incorrect	2.4541976711298
72670	1	stim165_inanimate_plants_cactus_1.png	165	inanimate	plants	cactus	1	0	1	boats	1	incorrect	2.4541976711298
72870	1	stim175_inanimate_plants_tree_3.png	175	inanimate	plants	tree	3	0	1	boats	1	incorrect	2.4541976711298
73070	1	stim041_animate_human_baby_1.png	41	animate	human	baby	1	0	1	boats	1	incorrect	2.4541976711298
73270	1	stim111_inanimate_clothing_jeans_3.png	111	inanimate	clothing	jeans	3	0	1	boats	1	incorrect	2.4541976711298
73470	1	stim018_animate_aquatic_shrimp_2.png	18	animate	aquatic	shrimp	2	0	1	boats	1	incorrect	2.4541976711298
73670	1	stim132_inanimate_fruits_grape_4.png	132	inanimate	fruits	grape	4	0	1	boats	1	incorrect	2.4541976711298
73870	1	stim120_inanimate_clothing_socks_4.png	120	inanimate	clothing	socks	4	0	1	boats	1	incorrect	2.4541976711298
74070	1	stim160_inanimate_furniture_table_4.png	160	inanimate	furniture	table	4	0	1	boats	1	incorrect	2.4541976711298
74270	1	stim046_animate_human_child_2.png	46	animate	human	child	2	0	1	boats	1	incorrect	2.4541976711298
74470	1	stim099_animate_mammal_rhino_3.png	99	animate	mammal	rhino	3	0	1	boats	1	incorrect	2.4541976711298
74670	1	stim126_inanimate_fruits_banana_2.png	126	inanimate	fruits	banana	2	0	1	boats	1	incorrect	2.4541976711298
74870	1	stim189_inanimate_tools_pan_1.png	189	inanimate	tools	pan	1	0	1	boats	1	incorrect	2.4541976711298
75070	1	stim197_inanimate_tools_wrench_1.png	197	inanimate	tools	wrench	1	0	1	boats	1	incorrect	2.4541976711298
75270	1	stim019_animate_aquatic_shrimp_3.png	19	animate	aquatic	shrimp	3	0	1	boats	1	incorrect	2.4541976711298
75470	1	stim003_animate_aquatic_crab_3.png	3	animate	aquatic	crab	3	0	1	boats	1	incorrect	2.4541976711298
75670	1	stim192_inanimate_tools_pan_4.png	192	inanimate	tools	pan	4	0	1	boats	1	incorrect	2.4541976711298
75870	1	stim080_animate_insect_grasshopper_4.png	80	animate	insect	grasshopper	4	0	1	boats	1	incorrect	2.4541976711298
76070	1	stim029_animate_bird_parrot_1.png	29	animate	bird	parrot	1	0	1	boats	1	incorrect	2.4541976711298
76270	1	stim056_animate_human_faces_4.png	56	animate	human	faces	4	0	1	boats	1	incorrect	2.4541976711298
76470	1	stim013_animate_aquatic_shark_1.png	13	animate	aquatic	shark	1	0	1	boats	1	incorrect	2.4541976711298
76670	1	stim090_animate_mammal_kangaroo_2.png	90	animate	mammal	kangaroo	2	0	1	boats	1	incorrect	2.4541976711298
76870	1	stim136_inanimate_fruits_pineapple_4.png	136	inanimate	fruits	pineapple	4	0	1	boats	1	incorrect	2.4541976711298
77070	1	stim092_animate_mammal_kangaroo_4.png	92	animate	mammal	kangaroo	4	0	1	boats	1	incorrect	2.4541976711298
77270	1	stim205_targets_object_boats_1.png	205	targets	object	boats	1	1	1	boats	1	incorrect	2.4541976711298
77470	1	stim122_inanimate_fruits_apple_2.png	122	inanimate	fruits	apple	2	0	1	boats	1	incorrect	2.4541976711298
77670	1	stim171_inanimate_plants_sunflower_3.png	171	inanimate	plants	sunflower	3	0	1	boats	1	incorrect	2.4541976711298
77870	1	stim083_animate_mammal_cow_3.png	83	animate	mammal	cow	3	0	1	boats	1	incorrect	2.4541976711298
78070	1	stim188_inanimate_tools_hammer_4.png	188	inanimate	tools	hammer	4	0	1	boats	1	incorrect	2.4541976711298
78270	1	stim053_animate_human_faces_1.png	53	animate	human	faces	1	0	1	boats	1	incorrect	2.4541976711298
78470	1	stim163_inanimate_plants_bush_3.png	163	inanimate	plants	bush	3	0	1	boats	1	incorrect	2.4541976711298
78670	1	stim042_animate_human_baby_2.png	42	animate	human	baby	2	0	1	boats	1	incorrect	2.4541976711298
78870	1	stim180_inanimate_plants_tulip_4.png	180	inanimate	plants	tulip	4	0	1	boats	1	incorrect	2.4541976711298
79070	1	stim148_inanimate_furniture_chair_4.png	148	inanimate	furniture	chair	4	0	1	boats	1	incorrect	2.4541976711298
79270	1	stim137_inanimate_fruits_strawberry_1.png	137	inanimate	fruits	strawberry	1	0	1	boats	1	incorrect	2.4541976711298
79470	1	stim172_inanimate_plants_sunflower_4.png	172	inanimate	plants	sunflower	4	0	1	boats	1	incorrect	2.4541976711298
79670	1	stim004_animate_aquatic_crab_4.png	4	animate	aquatic	crab	4	0	1	boats	1	incorrect	2.4541976711298
79870	1	stim051_animate_human_clown_3.png	51	animate	human	clown	3	0	1	boats	1	incorrect	2.4541976711298
80070	1	stim178_inanimate_plants_tulip_2.png	178	inanimate	plants	tulip	2	0	1	boats	1	incorrect	2.4541976711298
80270	1	stim186_inanimate_tools_hammer_2.png	186	inanimate	tools	hammer	2	0	1	boats	1	incorrect	2.4541976711298
80470	1	stim034_animate_bird_peacock_2.png	34	animate	bird	peacock	2	0	1	boats	1	incorrect	2.4541976711298
80670	1	stim198_inanimate_tools_wrench_2.png	198	inanimate	tools	wrench	2	0	1	boats	1	incorrect	2.4541976711298
80870	1	stim007_animate_aquatic_fish_3.png	7	animate	aquatic	fish	3	0	1	boats	1	incorrect	2.4541976711298
81070	1	stim006_animate_aquatic_fish_2.png	6	animate	aquatic	fish	2	0	1	boats	1	incorrect	2.4541976711298
81270	1	stim169_inanimate_plants_sunflower_1.png	169	inanimate	plants	sunflower	1	0	1	boats	1	incorrect	2.4541976711298
81470	1	stim016_animate_aquatic_shark_4.png	16	animate	aquatic	shark	4	0	1	boats	1	incorrect	2.4541976711298
81670	1	stim107_inanimate_clothing_hat_3.png	107	inanimate	clothing	hat	3	0	1	boats	1	incorrect	2.4541976711298
81870	1	stim091_animate_mammal_kangaroo_3.png	91	animate	mammal	kangaroo	3	0	1	boats	1	incorrect	2.4541976711298
82070	1	stim021_animate_bird_chicken_1.png	21	animate	bird	chicken	1	0	1	boats	1	incorrect	2.4541976711298
82270	1	stim067_animate_insect_bug_3.png	67	animate	insect	bug	3	0	1	boats	1	incorrect	2.4541976711298
82470	1	stim076_animate_insect_dragonfly_4.png	76	animate	insect	dragonfly	4	0	1	boats	1	incorrect	2.4541976711298
82670	1	stim128_inanimate_fruits_banana_4.png	128	inanimate	fruits	banana	4	0	1	boats	1	incorrect	2.4541976711298
82870	1	stim187_inanimate_tools_hammer_3.png	187	inanimate	tools	hammer	3	0	1	boats	1	incorrect	2.4541976711298
83070	1	stim112_inanimate_clothing_jeans_4.png	112	inanimate	clothing	jeans	4	0	1	boats	1	incorrect	2.4541976711298
83270	1	stim031_animate_bird_parrot_3.png	31	animate	bird	parrot	3	0	1	boats	1	incorrect	2.4541976711298
83470	1	stim147_inanimate_furniture_chair_3.png	147	inanimate	furniture	chair	3	0	1	boats	1	incorrect	2.4541976711298
83670	1	stim129_inanimate_fruits_grape_1.png	129	inanimate	fruits	grape	1	0	1	boats	1	incorrect	2.4541976711298
83870	1	stim183_inanimate_tools_broom_3.png	183	inanimate	tools	broom	3	0	1	boats	1	incorrect	2.4541976711298
84070	1	stim026_animate_bird_duck_2.png	26	animate	bird	duck	2	0	1	boats	1	incorrect	2.4541976711298
84270	1	stim155_inanimate_furniture_sofa_3.png	155	inanimate	furniture	sofa	3	0	1	boats	1	incorrect	2.4541976711298
84470	1	stim024_animate_bird_chicken_4.png	24	animate	bird	chicken	4	0	1	boats	1	incorrect	2.4541976711298
84670	1	stim168_inanimate_plants_cactus_4.png	168	inanimate	plants	cactus	4	0	1	boats	1	incorrect	2.4541976711298
84870	1	stim123_inanimate_fruits_apple_3.png	123	inanimate	fruits	apple	3	0	1	boats	1	incorrect	2.4541976711298
85070	1	stim084_animate_mammal_cow_4.png	84	animate	mammal	cow	4	0	1	boats	1	incorrect	2.4541976711298
85270	1	stim201_targets_object_boats_1.png	201	targets	object	boats	1	1	1	boats	1	incorrect	2.4541976711298
85470	1	stim133_inanimate_fruits_pineapple_1.png	133	inanimate	fruits	pineapple	1	0	1	boats	1	incorrect	2.4541976711298
85670	1	stim044_animate_human_baby_4.png	44	animate	human	baby	4	0	1	boats	1	incorrect	2.4541976711298
85870	1	stim020_animate_aquatic_shrimp_4.png	20	animate	aquatic	shrimp	4	0	1	boats	1	incorrect	2.4541976711298
86070	1	stim089_animate_mammal_kangaroo_1.png	89	animate	mammal	kangaroo	1	0	1	boats	1	incorrect	2.4541976711298
86270	1	stim200_inanimate_tools_wrench_4.png	200	inanimate	tools	wrench	4	0	1	boats	1	incorrect	2.4541976711298
86470	1	stim085_animate_mammal_giraffe_1.png	85	animate	mammal	giraffe	1	0	1	boats	1	incorrect	2.4541976711298
86670	1	stim030_animate_bird_parrot_2.png	30	animate	bird	parrot	2	0	1	boats	1	incorrect	2.4541976711298
86870	1	stim101_inanimate_clothing_gloves_1.png	101	inanimate	clothing	gloves	1	0	1	boats	1	incorrect	2.4541976711298
87070	1	stim108_inanimate_clothing_hat_4.png	108	inanimate	clothing	hat	4	0	1	boats	1	incorrect	2.4541976711298
87270	1	stim014_animate_aquatic_shark_2.png	14	animate	aquatic	shark	2	0	1	boats	1	incorrect	2.4541976711298
87470	1	stim036_animate_bird_peacock_4.png	36	animate	bird	peacock	4	0	1	boats	1	incorrect	2.4541976711298
87670	1	stim185_inanimate_tools_hammer_1.png	185	inanimate	tools	hammer	1	0	1	boats	1	incorrect	2.4541976711298
87870	1	stim156_inanimate_furniture_sofa_4.png	156	inanimate	furniture	sofa	4	0	1	boats	1	incorrect	2.4541976711298
88070	1	stim138_inanimate_fruits_strawberry_2.png	138	inanimate	fruits	strawberry	2	0	1	boats	1	incorrect	2.4541976711298
88270	1	stim113_inanimate_clothing_shirt_1.png	113	inanimate	clothing	shirt	1	0	1	boats	1	incorrect	2.4541976711298
88470	1	stim118_inanimate_clothing_socks_2.png	118	inanimate	clothing	socks	2	0	1	boats	1	incorrect	2.4541976711298
88670	1	stim070_animate_insect_butterfly_2.png	70	animate	insect	butterfly	2	0	1	boats	1	incorrect	2.4541976711298
88870	1	stim134_inanimate_fruits_pineapple_2.png	134	inanimate	fruits	pineapple	2	0	1	boats	1	incorrect	2.4541976711298
89070	1	stim193_inanimate_tools_scissors_1.png	193	inanimate	tools	scissors	1	0	1	boats	1	incorrect	2.4541976711298
89270	1	stim040_animate_bird_penguin_4.png	40	animate	bird	penguin	4	0	1	boats	1	incorrect	2.4541976711298
89470	1	stim008_animate_aquatic_fish_4.png	8	animate	aquatic	fish	4	0	1	boats	1	incorrect	2.4541976711298
89670	1	stim062_animate_insect_ant_2.png	62	animate	insect	ant	2	0	1	boats	1	incorrect	2.4541976711298
89870	1	stim064_animate_insect_ant_4.png	64	animate	insect	ant	4	0	1	boats	1	incorrect	2.4541976711298
90070	1	stim033_animate_bird_peacock_1.png	33	animate	bird	peacock	1	0	1	boats	1	incorrect	2.4541976711298
90270	1	stim184_inanimate_tools_broom_4.png	184	inanimate	tools	broom	4	0	1	boats	1	incorrect	2.4541976711298
90470	1	stim049_animate_human_clown_1.png	49	animate	human	clown	1	0	1	boats	1	incorrect	2.4541976711298
90670	1	stim164_inanimate_plants_bush_4.png	164	inanimate	plants	bush	4	0	1	boats	1	incorrect	2.4541976711298
90870	1	stim009_animate_aquatic_seahorse_1.png	9	animate	aquatic	seahorse	1	0	1	boats	1	incorrect	2.4541976711298
91070	1	stim170_inanimate_plants_sunflower_2.png	170	inanimate	plants	sunflower	2	0	1	boats	1	incorrect	2.4541976711298
91270	1	stim011_animate_aquatic_seahorse_3.png	11	animate	aquatic	seahorse	3	0	1	boats	1	incorrect	2.4541976711298
91470	1	stim045_animate_human_child_1.png	45	animate	human	child	1	0	1	boats	1	incorrect	2.4541976711298
91670	1	stim050_animate_human_clown_2.png	50	animate	human	clown	2	0	1	boats	1	incorrect	2.4541976711298
91870	1	stim157_inanimate_furniture_table_1.png	157	inanimate	furniture	table	1	0	1	boats	1	incorrect	2.4541976711298
92070	1	stim096_animate_mammal_monkey_4.png	96	animate	mammal	monkey	4	0	1	boats	1	incorrect	2.4541976711298
92270	1	stim047_animate_human_child_3.png	47	animate	human	child	3	0	1	boats	1	incorrect	2.4541976711298
92470	1	stim174_inanimate_plants_tree_2.png	174	inanimate	plants	tree	2	0	1	boats	1	incorrect	2.4541976711298
92670	1	stim143_inanimate_furniture_bed_3.png	143	inanimate	furniture	bed	3	0	1	boats	1	incorrect	2.4541976711298
92870	1	stim060_animate_human_sports_4.png	60	animate	human	sports	4	0	1	boats	1	incorrect	2.4541976711298
93070	1	stim075_animate_insect_dragonfly_3.png	75	animate	insect	dragonfly	3	0	1	boats	1	incorrect	2.4541976711298
93270	1	stim077_animate_insect_grasshopper_1.png	77	animate	insect	grasshopper	1	0	1	boats	1	incorrect	2.4541976711298
93470	1	stim177_inanimate_plants_tulip_1.png	177	inanimate	plants	tulip	1	0	1	boats	1	incorrect	2.4541976711298
93670	1	stim204_targets_object_boats_4.png	204	targets	object	boats	4	1	1	boats	1	incorrect	2.4541976711298
93870	1	stim103_inanimate_clothing_gloves_3.png	103	inanimate	clothing	gloves	3	0	1	boats	1	incorrect	2.4541976711298
94070	1	stim059_animate_human_sports_3.png	59	animate	human	sports	3	0	1	boats	1	incorrect	2.4541976711298
94270	1	stim068_animate_insect_bug_4.png	68	animate	insect	bug	4	0	1	boats	1	incorrect	2.4541976711298
94470	1	stim159_inanimate_furniture_table_3.png	159	inanimate	furniture	table	3	0	1	boats	1	incorrect	2.4541976711298
94670	1	stim082_animate_mammal_cow_2.png	82	animate	mammal	cow	2	0	1	boats	1	incorrect	2.4541976711298
94870	1	stim038_animate_bird_penguin_2.png	38	animate	bird	penguin	2	0	1	boats	1	incorrect	2.4541976711298
95070	1	stim139_inanimate_fruits_strawberry_3.png	139	inanimate	fruits	strawberry	3	0	1	boats	1	incorrect	2.4541976711298
95270	1	stim176_inanimate_plants_tree_4.png	176	inanimate	plants	tree	4	0	1	boats	1	incorrect	2.4541976711298
95470	1	stim151_inanimate_furniture_closet_3.png	151	inanimate	furniture	closet	3	0	1	boats	1	incorrect	2.4541976711298
95670	1	stim054_animate_human_faces_2.png	54	animate	human	faces	2	0	1	boats	1	incorrect	2.4541976711298
95870	1	stim102_inanimate_clothing_gloves_2.png	102	inanimate	clothing	gloves	2	0	1	boats	1	incorrect	2.4541976711298
96070	1	stim094_animate_mammal_monkey_2.png	94	animate	mammal	monkey	2	0	1	boats	1	incorrect	2.4541976711298
96270	1	stim037_animate_bird_penguin_1.png	37	animate	bird	penguin	1	0	1	boats	1	incorrect	2.4541976711298
96470	1	stim035_animate_bird_peacock_3.png	35	animate	bird	peacock	3	0	1	boats	1	incorrect	2.4541976711298
96670	1	stim015_animate_aquatic_shark_3.png	15	animate	aquatic	shark	3	0	1	boats	1	incorrect	2.4541976711298
96870	1	stim106_inanimate_clothing_hat_2.png	106	inanimate	clothing	hat	2	0	1	boats	1	incorrect	2.4541976711298
97070	1	stim010_animate_aquatic_seahorse_2.png	10	animate	aquatic	seahorse	2	0	1	boats	1	incorrect	2.4541976711298
97270	1	stim161_inanimate_plants_bush_1.png	161	inanimate	plants	bush	1	0	1	boats	1	incorrect	2.4541976711298
97470	1	stim182_inanimate_tools_broom_2.png	182	inanimate	tools	broom	2	0	1	boats	1	incorrect	2.4541976711298
97670	1	stim065_animate_insect_bug_1.png	65	animate	insect	bug	1	0	1	boats	1	incorrect	2.4541976711298
97870	1	stim072_animate_insect_butterfly_4.png	72	animate	insect	butterfly	4	0	1	boats	1	incorrect	2.4541976711298
98070	1	stim190_inanimate_tools_pan_2.png	190	inanimate	tools	pan	2	0	1	boats	1	incorrect	2.4541976711298
98270	1	stim095_animate_mammal_monkey_3.png	95	animate	mammal	monkey	3	0	1	boats	1	incorrect	2.4541976711298
98470	1	stim069_animate_insect_butterfly_1.png	69	animate	insect	butterfly	1	0	1	boats	1	incorrect	2.4541976711298
98670	1	stim191_inanimate_tools_pan_3.png	191	inanimate	tools	pan	3	0	1	boats	1	incorrect	2.4541976711298
98870	1	stim199_inanimate_tools_wrench_3.png	199	inanimate	tools	wrench	3	0	1	boats	1	incorrect	2.4541976711298
99070	1	stim149_inanimate_furniture_closet_1.png	149	inanimate	furniture	closet	1	0	1	boats	1	incorrect	2.4541976711298
99270	1	stim145_inanimate_furniture_chair_1.png	145	inanimate	furniture	chair	1	0	1	boats	1	incorrect	2.4541976711298
99470	1	stim028_animate_bird_duck_4.png	28	animate	bird	duck	4	0	1	boats	1	incorrect	2.4541976711298
99670	1	stim141_inanimate_furniture_bed_1.png	141	inanimate	furniture	bed	1	0	1	boats	1	incorrect	2.4541976711298
99870	1	stim048_animate_human_child_4.png	48	animate	human	child	4	0	1	boats	1	incorrect	2.4541976711298
100070	1	stim135_inanimate_fruits_pineapple_3.png	135	inanimate	fruits	pineapple	3	0	1	boats	1	incorrect	2.4541976711298
100270	1	stim109_inanimate_clothing_jeans_1.png	109	inanimate	clothing	jeans	1	0	1	boats	1	incorrect	2.4541976711298
100470	1	stim110_inanimate_clothing_jeans_2.png	110	inanimate	clothing	jeans	2	0	1	boats	1	incorrect	2.4541976711298
100670	1	stim063_animate_insect_ant_3.png	63	animate	insect	ant	3	0	1	boats	1	incorrect	2.4541976711298
100870	1	stim130_inanimate_fruits_grape_2.png	130	inanimate	fruits	grape	2	0	1	boats	1	incorrect	2.4541976711298
101070	1	stim078_animate_insect_grasshopper_2.png	78	animate	insect	grasshopper	2	0	1	boats	1	incorrect	2.4541976711298
101270	1	stim039_animate_bird_penguin_3.png	39	animate	bird	penguin	3	0	1	boats	1	incorrect	2.4541976711298
101470	1	stim154_inanimate_furniture_sofa_2.png	154	inanimate	furniture	sofa	2	0	1	boats	1	incorrect	2.4541976711298
101670	1	stim081_animate_mammal_cow_1.png	81	animate	mammal	cow	1	0	1	boats	1	incorrect	2.4541976711298
101870	1	stim194_inanimate_tools_scissors_2.png	194	inanimate	tools	scissors	2	0	1	boats	1	incorrect	2.4541976711298
102070	1	stim105_inanimate_clothing_hat_1.png	105	inanimate	clothing	hat	1	0	1	boats	1	incorrect	2.4541976711298
102270	1	stim140_inanimate_fruits_strawberry_4.png	140	inanimate	fruits	strawberry	4	0	1	boats	1	incorrect	2.4541976711298
102470	1	stim166_inanimate_plants_cactus_2.png	166	inanimate	plants	cactus	2	0	1	boats	1	incorrect	2.4541976711298
102670	1	stim088_animate_mammal_giraffe_4.png	88	animate	mammal	giraffe	4	0	1	boats	1	incorrect	2.4541976711298
102870	1	stim066_animate_insect_bug_2.png	66	animate	insect	bug	2	0	1	boats	1	incorrect	2.4541976711298
103070	1	stim043_animate_human_baby_3.png	43	animate	human	baby	3	0	1	boats	1	incorrect	2.4541976711298
103270	1	stim074_animate_insect_dragonfly_2.png	74	animate	insect	dragonfly	2	0	1	boats	1	incorrect	2.4541976711298
103470	1	stim073_animate_insect_dragonfly_1.png	73	animate	insect	dragonfly	1	0	1	boats	1	incorrect	2.4541976711298
103670	1	stim125_inanimate_fruits_banana_1.png	125	inanimate	fruits	banana	1	0	1	boats	1	incorrect	2.4541976711298
103870	1	stim012_animate_aquatic_seahorse_4.png	12	animate	aquatic	seahorse	4	0	1	boats	1	incorrect	2.4541976711298
104070	1	stim196_inanimate_tools_scissors_4.png	196	inanimate	tools	scissors	4	0	1	boats	1	incorrect	2.4541976711298
104270	1	stim071_animate_insect_butterfly_3.png	71	animate	insect	butterfly	3	0	1	boats	1	incorrect	2.4541976711298
104470	1	stim097_animate_mammal_rhino_1.png	97	animate	mammal	rhino	1	0	1	boats	1	incorrect	2.4541976711298
104670	1	stim086_animate_mammal_giraffe_2.png	86	animate	mammal	giraffe	2	0	1	boats	1	incorrect	2.4541976711298
104870	1	stim057_animate_human_sports_1.png	57	animate	human	sports	1	0	1	boats	1	incorrect	2.4541976711298
105070	1	stim150_inanimate_furniture_closet_2.png	150	inanimate	furniture	closet	2	0	1	boats	1	incorrect	2.4541976711298
105270	1	stim144_inanimate_furniture_bed_4.png	144	inanimate	furniture	bed	4	0	1	boats	1	incorrect	2.4541976711298
105470	1	stim153_inanimate_furniture_sofa_1.png	153	inanimate	furniture	sofa	1	0	1	boats	1	incorrect	2.4541976711298
105671	1	stim104_inanimate_clothing_gloves_4.png	104	inanimate	clothing	gloves	4	0	1	boats	1	incorrect	2.4541976711298
105871	1	stim023_animate_bird_chicken_3.png	23	animate	bird	chicken	3	0	1	boats	1	incorrect	2.4541976711298
106071	1	stim032_animate_bird_parrot_4.png	32	animate	bird	parrot	4	0	1	boats	1	incorrect	2.4541976711298
106271	1	stim131_inanimate_fruits_grape_3.png	131	inanimate	fruits	grape	3	0	1	boats	1	incorrect	2.4541976711298
106471	1	stim098_animate_mammal_rhino_2.png	98	animate	mammal	rhino	2	0	1	boats	1	incorrect	2.4541976711298
106671	1	stim100_animate_mammal_rhino_4.png	100	animate	mammal	rhino	4	0	1	boats	1	incorrect	2.4541976711298
138788	1	stim181_inanimate_tools_broom_1.png	181	inanimate	tools	broom	1	0	2	stars	4	correct	1.21483459951924
138988	1	stim079_animate_insect_grasshopper_3.png	79	animate	insect	grasshopper	3	0	2	stars	4	correct	1.21483459951924
139188	1	stim151_inanimate_furniture_closet_3.png	151	inanimate	furniture	closet	3	0	2	stars	4	correct	1.21483459951924
139388	1	stim045_animate_human_child_1.png	45	animate	human	child	1	0	2	stars	4	correct	1.21483459951924
139588	1	stim147_inanimate_furniture_chair_3.png	147	inanimate	furniture	chair	3	0	2	stars	4	correct	1.21483459951924
139788	1	stim014_animate_aquatic_shark_2.png	14	animate	aquatic	shark	2	0	2	stars	4	correct	1.21483459951924
139988	1	stim195_inanimate_tools_scissors_3.png	195	inanimate	tools	scissors	3	0	2	stars	4	correct	1.21483459951924
140188	1	stim051_animate_human_clown_3.png	51	animate	human	clown	3	0	2	stars	4	correct	1.21483459951924
140388	1	stim057_animate_human_sports_1.png	57	animate	human	sports	1	0	2	stars	4	correct	1.21483459951924
140588	1	stim049_animate_human_clown_1.png	49	animate	human	clown	1	0	2	stars	4	correct	1.21483459951924
140788	1	stim156_inanimate_furniture_sofa_4.png	156	inanimate	furniture	sofa	4	0	2	stars	4	correct	1.21483459951924
140988	1	stim004_animate_aquatic_crab_4.png	4	animate	aquatic	crab	4	0	2	stars	4	correct	1.21483459951924
141188	1	stim073_animate_insect_dragonfly_1.png	73	animate	insect	dragonfly	1	0	2	stars	4	correct	1.21483459951924
141388	1	stim064_animate_insect_ant_4.png	64	animate	insect	ant	4	0	2	stars	4	correct	1.21483459951924
141588	1	stim169_inanimate_plants_sunflower_1.png	169	inanimate	plants	sunflower	1	0	2	stars	4	correct	1.21483459951924
141788	1	stim080_animate_insect_grasshopper_4.png	80	animate	insect	grasshopper	4	0	2	stars	4	correct	1.21483459951924
141988	1	stim035_animate_bird_peacock_3.png	35	animate	bird	peacock	3	0	2	stars	4	correct	1.21483459951924
142188	1	stim046_animate_human_child_2.png	46	animate	human	child	2	0	2	stars	4	correct	1.21483459951924
142388	1	stim005_animate_aquatic_fish_1.png	5	animate	aquatic	fish	1	0	2	stars	4	correct	1.21483459951924
142588	1	stim163_inanimate_plants_bush_3.png	163	inanimate	plants	bush	3	0	2	stars	4	correct	1.21483459951924
142788	1	stim016_animate_aquatic_shark_4.png	16	animate	aquatic	shark	4	0	2	stars	4	correct	1.21483459951924
142988	1	stim125_inanimate_fruits_banana_1.png	125	inanimate	fruits	banana	1	0	2	stars	4	correct	1.21483459951924
143188	1	stim096_animate_mammal_monkey_4.png	96	animate	mammal	monkey	4	0	2	stars	4	correct	1.21483459951924
143388	1	stim063_animate_insect_ant_3.png	63	animate	insect	ant	3	0	2	stars	4	correct	1.21483459951924
143588	1	stim010_animate_aquatic_seahorse_2.png	10	animate	aquatic	seahorse	2	0	2	stars	4	correct	1.21483459951924
143788	1	stim126_inanimate_fruits_banana_2.png	126	inanimate	fruits	banana	2	0	2	stars	4	correct	1.21483459951924
143988	1	stim061_animate_insect_ant_1.png	61	animate	insect	ant	1	0	2	stars	4	correct	1.21483459951924
144188	1	stim021_animate_bird_chicken_1.png	21	animate	bird	chicken	1	0	2	stars	4	correct	1.21483459951924
144388	1	stim022_animate_bird_chicken_2.png	22	animate	bird	chicken	2	0	2	stars	4	correct	1.21483459951924
144588	1	stim087_animate_mammal_giraffe_3.png	87	animate	mammal	giraffe	3	0	2	stars	4	correct	1.21483459951924
144788	1	stim036_animate_bird_peacock_4.png	36	animate	bird	peacock	4	0	2	stars	4	correct	1.21483459951924
144988	1	stim082_animate_mammal_cow_2.png	82	animate	mammal	cow	2	0	2	stars	4	correct	1.21483459951924
145188	1	stim171_inanimate_plants_sunflower_3.png	171	inanimate	plants	sunflower	3	0	2	stars	4	correct	1.21483459951924
145388	1	stim026_animate_bird_duck_2.png	26	animate	bird	duck	2	0	2	stars	4	correct	1.21483459951924
145588	1	stim197_inanimate_tools_wrench_1.png	197	inanimate	tools	wrench	1	0	2	stars	4	correct	1.21483459951924
145788	1	stim003_animate_aquatic_crab_3.png	3	animate	aquatic	crab	3	0	2	stars	4	correct	1.21483459951924
145988	1	stim130_inanimate_fruits_grape_2.png	130	inanimate	fruits	grape	2	0	2	stars	4	correct	1.21483459951924
146188	1	stim093_animate_mammal_monkey_1.png	93	animate	mammal	monkey	1	0	2	stars	4	correct	1.21483459951924
146388	1	stim039_animate_bird_penguin_3.png	39	animate	bird	penguin	3	0	2	stars	4	correct	1.21483459951924
146588	1	stim069_animate_insect_butterfly_1.png	69	animate	insect	butterfly	1	0	2	stars	4	correct	1.21483459951924
146788	1	stim095_animate_mammal_monkey_3.png	95	animate	mammal	monkey	3	0	2	stars	4	correct	1.21483459951924
146988	1	stim034_animate_bird_peacock_2.png	34	animate	bird	peacock	2	0	2	stars	4	correct	1.21483459951924
147188	1	stim131_inanimate_fruits_grape_3.png	131	inanimate	fruits	grape	3	0	2	stars	4	correct	1.21483459951924
147388	1	stim071_animate_insect_butterfly_3.png	71	animate	insect	butterfly	3	0	2	stars	4	correct	1.21483459951924
147588	1	stim006_animate_aquatic_fish_2.png	6	animate	aquatic	fish	2	0	2	stars	4	correct	1.21483459951924
147788	1	stim166_inanimate_plants_cactus_2.png	166	inanimate	plants	cactus	2	0	2	stars	4	correct	1.21483459951924
147988	1	stim032_animate_bird_parrot_4.png	32	animate	bird	parrot	4	0	2	stars	4	correct	1.21483459951924
148188	1	stim092_animate_mammal_kangaroo_4.png	92	animate	mammal	kangaroo	4	0	2	stars	4	correct	1.21483459951924
148388	1	stim116_inanimate_clothing_shirt_4.png	116	inanimate	clothing	shirt	4	0	2	stars	4	correct	1.21483459951924
148588	1	stim050_animate_human_clown_2.png	50	animate	human	clown	2	0	2	stars	4	correct	1.21483459951924
148788	1	stim176_inanimate_plants_tree_4.png	176	inanimate	plants	tree	4	0	2	stars	4	correct	1.21483459951924
148988	1	stim160_inanimate_furniture_table_4.png	160	inanimate	furniture	table	4	0	2	stars	4	correct	1.21483459951924
149188	1	stim132_inanimate_fruits_grape_4.png	132	inanimate	fruits	grape	4	0	2	stars	4	correct	1.21483459951924
149388	1	stim097_animate_mammal_rhino_1.png	97	animate	mammal	rhino	1	0	2	stars	4	correct	1.21483459951924
149588	1	stim186_inanimate_tools_hammer_2.png	186	inanimate	tools	hammer	2	0	2	stars	4	correct	1.21483459951924
149788	1	stim110_inanimate_clothing_jeans_2.png	110	inanimate	clothing	jeans	2	0	2	stars	4	correct	1.21483459951924
149988	1	stim053_animate_human_faces_1.png	53	animate	human	faces	1	0	2	stars	4	correct	1.21483459951924
150188	1	stim211_targets_shapes_star_3.png	211	targets	shapes	star	3	1	2	stars	4	correct	1.21483459951924
150388	1	stim037_animate_bird_penguin_1.png	37	animate	bird	penguin	1	0	2	stars	4	correct	1.21483459951924
150588	1	stim115_inanimate_clothing_shirt_3.png	115	inanimate	clothing	shirt	3	0	2	stars	4	correct	1.21483459951924
150788	1	stim121_inanimate_fruits_apple_1.png	121	inanimate	fruits	apple	1	0	2	stars	4	correct	1.21483459951924
150988	1	stim175_inanimate_plants_tree_3.png	175	inanimate	plants	tree	3	0	2	stars	4	correct	1.21483459951924
151188	1	stim149_inanimate_furniture_closet_1.png	149	inanimate	furniture	closet	1	0	2	stars	4	correct	1.21483459951924
151388	1	stim028_animate_bird_duck_4.png	28	animate	bird	duck	4	0	2	stars	4	correct	1.21483459951924
151588	1	stim103_inanimate_clothing_gloves_3.png	103	inanimate	clothing	gloves	3	0	2	stars	4	correct	1.21483459951924
151788	1	stim177_inanimate_plants_tulip_1.png	177	inanimate	plants	tulip	1	0	2	stars	4	correct	1.21483459951924
151988	1	stim090_animate_mammal_kangaroo_2.png	90	animate	mammal	kangaroo	2	0	2	stars	4	correct	1.21483459951924
152188	1	stim056_animate_human_faces_4.png	56	animate	human	faces	4	0	2	stars	4	correct	1.21483459951924
152388	1	stim190_inanimate_tools_pan_2.png	190	inanimate	tools	pan	2	0	2	stars	4	correct	1.21483459951924
152588	1	stim178_inanimate_plants_tulip_2.png	178	inanimate	plants	tulip	2	0	2	stars	4	correct	1.21483459951924
152788	1	stim074_animate_insect_dragonfly_2.png	74	animate	insect	dragonfly	2	0	2	stars	4	correct	1.21483459951924
152988	1	stim067_animate_insect_bug_3.png	67	animate	insect	bug	3	0	2	stars	4	correct	1.21483459951924
153188	1	stim184_inanimate_tools_broom_4.png	184	inanimate	tools	broom	4	0	2	stars	4	correct	1.21483459951924
153388	1	stim199_inanimate_tools_wrench_3.png	199	inanimate	tools	wrench	3	0	2	stars	4	correct	1.21483459951924
153588	1	stim182_inanimate_tools_broom_2.png	182	inanimate	tools	broom	2	0	2	stars	4	correct	1.21483459951924
153788	1	stim139_inanimate_fruits_strawberry_3.png	139	inanimate	fruits	strawberry	3	0	2	stars	4	correct	1.21483459951924
153988	1	stim189_inanimate_tools_pan_1.png	189	inanimate	tools	pan	1	0	2	stars	4	correct	1.21483459951924
154188	1	stim193_inanimate_tools_scissors_1.png	193	inanimate	tools	scissors	1	0	2	stars	4	correct	1.21483459951924
154388	1	stim210_targets_shapes_star_2.png	210	targets	shapes	star	2	1	2	stars	4	correct	1.21483459951924
154588	1	stim030_animate_bird_parrot_2.png	30	animate	bird	parrot	2	0	2	stars	4	correct	1.21483459951924
154788	1	stim086_animate_mammal_giraffe_2.png	86	animate	mammal	giraffe	2	0	2	stars	4	correct	1.21483459951924
154988	1	stim024_animate_bird_chicken_4.png	24	animate	bird	chicken	4	0	2	stars	4	correct	1.21483459951924
155188	1	stim106_inanimate_clothing_hat_2.png	106	inanimate	clothing	hat	2	0	2	stars	4	correct	1.21483459951924
155388	1	stim114_inanimate_clothing_shirt_2.png	114	inanimate	clothing	shirt	2	0	2	stars	4	correct	1.21483459951924
155588	1	stim148_inanimate_furniture_chair_4.png	148	inanimate	furniture	chair	4	0	2	stars	4	correct	1.21483459951924
155788	1	stim077_animate_insect_grasshopper_1.png	77	animate	insect	grasshopper	1	0	2	stars	4	correct	1.21483459951924
155988	1	stim054_animate_human_faces_2.png	54	animate	human	faces	2	0	2	stars	4	correct	1.21483459951924
156188	1	stim143_inanimate_furniture_bed_3.png	143	inanimate	furniture	bed	3	0	2	stars	4	correct	1.21483459951924
156388	1	stim088_animate_mammal_giraffe_4.png	88	animate	mammal	giraffe	4	0	2	stars	4	correct	1.21483459951924
156588	1	stim015_animate_aquatic_shark_3.png	15	animate	aquatic	shark	3	0	2	stars	4	correct	1.21483459951924
156788	1	stim120_inanimate_clothing_socks_4.png	120	inanimate	clothing	socks	4	0	2	stars	4	correct	1.21483459951924
156988	1	stim141_inanimate_furniture_bed_1.png	141	inanimate	furniture	bed	1	0	2	stars	4	correct	1.21483459951924
157188	1	stim198_inanimate_tools_wrench_2.png	198	inanimate	tools	wrench	2	0	2	stars	4	correct	1.21483459951924
157388	1	stim055_animate_human_faces_3.png	55	animate	human	faces	3	0	2	stars	4	correct	1.21483459951924
157588	1	stim113_inanimate_clothing_shirt_1.png	113	inanimate	clothing	shirt	1	0	2	stars	4	correct	1.21483459951924
157788	1	stim200_inanimate_tools_wrench_4.png	200	inanimate	tools	wrench	4	0	2	stars	4	correct	1.21483459951924
157988	1	stim044_animate_human_baby_4.png	44	animate	human	baby	4	0	2	stars	4	correct	1.21483459951924
158188	1	stim017_animate_aquatic_shrimp_1.png	17	animate	aquatic	shrimp	1	0	2	stars	4	correct	1.21483459951924
158388	1	stim118_inanimate_clothing_socks_2.png	118	inanimate	clothing	socks	2	0	2	stars	4	correct	1.21483459951924
158588	1	stim187_inanimate_tools_hammer_3.png	187	inanimate	tools	hammer	3	0	2	stars	4	correct	1.21483459951924
158788	1	stim192_inanimate_tools_pan_4.png	192	inanimate	tools	pan	4	0	2	stars	4	correct	1.21483459951924
158988	1	stim104_inanimate_clothing_gloves_4.png	104	inanimate	clothing	gloves	4	0	2	stars	4	correct	1.21483459951924
159188	1	stim059_animate_human_sports_3.png	59	animate	human	sports	3	0	2	stars	4	correct	1.21483459951924
159388	1	stim101_inanimate_clothing_gloves_1.png	101	inanimate	clothing	gloves	1	0	2	stars	4	correct	1.21483459951924
159588	1	stim020_animate_aquatic_shrimp_4.png	20	animate	aquatic	shrimp	4	0	2	stars	4	correct	1.21483459951924
159788	1	stim152_inanimate_furniture_closet_4.png	152	inanimate	furniture	closet	4	0	2	stars	4	correct	1.21483459951924
159988	1	stim158_inanimate_furniture_table_2.png	158	inanimate	furniture	table	2	0	2	stars	4	correct	1.21483459951924
160188	1	stim058_animate_human_sports_2.png	58	animate	human	sports	2	0	2	stars	4	correct	1.21483459951924
160388	1	stim013_animate_aquatic_shark_1.png	13	animate	aquatic	shark	1	0	2	stars	4	correct	1.21483459951924
160588	1	stim128_inanimate_fruits_banana_4.png	128	inanimate	fruits	banana	4	0	2	stars	4	correct	1.21483459951924
160788	1	stim145_inanimate_furniture_chair_1.png	145	inanimate	furniture	chair	1	0	2	stars	4	correct	1.21483459951924
160988	1	stim135_inanimate_fruits_pineapple_3.png	135	inanimate	fruits	pineapple	3	0	2	stars	4	correct	1.21483459951924
161188	1	stim065_animate_insect_bug_1.png	65	animate	insect	bug	1	0	2	stars	4	correct	1.21483459951924
161388	1	stim214_targets_shapes_star_2.png	214	targets	shapes	star	2	1	2	stars	4	correct	1.21483459951924
161588	1	stim083_animate_mammal_cow_3.png	83	animate	mammal	cow	3	0	2	stars	4	correct	1.21483459951924
161788	1	stim159_inanimate_furniture_table_3.png	159	inanimate	furniture	table	3	0	2	stars	4	correct	1.21483459951924
161988	1	stim100_animate_mammal_rhino_4.png	100	animate	mammal	rhino	4	0	2	stars	4	correct	1.21483459951924
162188	1	stim179_inanimate_plants_tulip_3.png	179	inanimate	plants	tulip	3	0	2	stars	4	correct	1.21483459951924
162388	1	stim196_inanimate_tools_scissors_4.png	196	inanimate	tools	scissors	4	0	2	stars	4	correct	1.21483459951924
162588	1	stim133_inanimate_fruits_pineapple_1.png	133	inanimate	fruits	pineapple	1	0	2	stars	4	correct	1.21483459951924
162788	1	stim094_animate_mammal_monkey_2.png	94	animate	mammal	monkey	2	0	2	stars	4	correct	1.21483459951924
162988	1	stim091_animate_mammal_kangaroo_3.png	91	animate	mammal	kangaroo	3	0	2	stars	4	correct	1.21483459951924
163188	1	stim102_inanimate_clothing_gloves_2.png	102	inanimate	clothing	gloves	2	0	2	stars	4	correct	1.21483459951924
163388	1	stim140_inanimate_fruits_strawberry_4.png	140	inanimate	fruits	strawberry	4	0	2	stars	4	correct	1.21483459951924
163589	1	stim123_inanimate_fruits_apple_3.png	123	inanimate	fruits	apple	3	0	2	stars	4	correct	1.21483459951924
163789	1	stim124_inanimate_fruits_apple_4.png	124	inanimate	fruits	apple	4	0	2	stars	4	correct	1.21483459951924
163988	1	stim172_inanimate_plants_sunflower_4.png	172	inanimate	plants	sunflower	4	0	2	stars	4	correct	1.21483459951924
164189	1	stim188_inanimate_tools_hammer_4.png	188	inanimate	tools	hammer	4	0	2	stars	4	correct	1.21483459951924
164388	1	stim098_animate_mammal_rhino_2.png	98	animate	mammal	rhino	2	0	2	stars	4	correct	1.21483459951924
164589	1	stim075_animate_insect_dragonfly_3.png	75	animate	insect	dragonfly	3	0	2	stars	4	correct	1.21483459951924
164789	1	stim153_inanimate_furniture_sofa_1.png	153	inanimate	furniture	sofa	1	0	2	stars	4	correct	1.21483459951924
164989	1	stim070_animate_insect_butterfly_2.png	70	animate	insect	butterfly	2	0	2	stars	4	correct	1.21483459951924
165189	1	stim137_inanimate_fruits_strawberry_1.png	137	inanimate	fruits	strawberry	1	0	2	stars	4	correct	1.21483459951924
165389	1	stim161_inanimate_plants_bush_1.png	161	inanimate	plants	bush	1	0	2	stars	4	correct	1.21483459951924
165589	1	stim127_inanimate_fruits_banana_3.png	127	inanimate	fruits	banana	3	0	2	stars	4	correct	1.21483459951924
165789	1	stim072_animate_insect_butterfly_4.png	72	animate	insect	butterfly	4	0	2	stars	4	correct	1.21483459951924
165989	1	stim134_inanimate_fruits_pineapple_2.png	134	inanimate	fruits	pineapple	2	0	2	stars	4	correct	1.21483459951924
166189	1	stim033_animate_bird_peacock_1.png	33	animate	bird	peacock	1	0	2	stars	4	correct	1.21483459951924
166389	1	stim023_animate_bird_chicken_3.png	23	animate	bird	chicken	3	0	2	stars	4	correct	1.21483459951924
166589	1	stim040_animate_bird_penguin_4.png	40	animate	bird	penguin	4	0	2	stars	4	correct	1.21483459951924
166789	1	stim180_inanimate_plants_tulip_4.png	180	inanimate	plants	tulip	4	0	2	stars	4	correct	1.21483459951924
166989	1	stim129_inanimate_fruits_grape_1.png	129	inanimate	fruits	grape	1	0	2	stars	4	correct	1.21483459951924
167189	1	stim183_inanimate_tools_broom_3.png	183	inanimate	tools	broom	3	0	2	stars	4	correct	1.21483459951924
167389	1	stim138_inanimate_fruits_strawberry_2.png	138	inanimate	fruits	strawberry	2	0	2	stars	4	correct	1.21483459951924
167589	1	stim213_targets_shapes_star_1.png	213	targets	shapes	star	1	1	2	stars	4	correct	1.21483459951924
167789	1	stim084_animate_mammal_cow_4.png	84	animate	mammal	cow	4	0	2	stars	4	correct	1.21483459951924
167989	1	stim025_animate_bird_duck_1.png	25	animate	bird	duck	1	0	2	stars	4	correct	1.21483459951924
168189	1	stim194_inanimate_tools_scissors_2.png	194	inanimate	tools	scissors	2	0	2	stars	4	correct	1.21483459951924
168389	1	stim105_inanimate_clothing_hat_1.png	105	inanimate	clothing	hat	1	0	2	stars	4	correct	1.21483459951924
168589	1	stim108_inanimate_clothing_hat_4.png	108	inanimate	clothing	hat	4	0	2	stars	4	correct	1.21483459951924
168789	1	stim173_inanimate_plants_tree_1.png	173	inanimate	plants	tree	1	0	2	stars	4	correct	1.21483459951924
168989	1	stim027_animate_bird_duck_3.png	27	animate	bird	duck	3	0	2	stars	4	correct	1.21483459951924
169189	1	stim041_animate_human_baby_1.png	41	animate	human	baby	1	0	2	stars	4	correct	1.21483459951924
169389	1	stim001_animate_aquatic_crab_1.png	1	animate	aquatic	crab	1	0	2	stars	4	correct	1.21483459951924
169589	1	stim109_inanimate_clothing_jeans_1.png	109	inanimate	clothing	jeans	1	0	2	stars	4	correct	1.21483459951924
169789	1	stim164_inanimate_plants_bush_4.png	164	inanimate	plants	bush	4	0	2	stars	4	correct	1.21483459951924
169989	1	stim008_animate_aquatic_fish_4.png	8	animate	aquatic	fish	4	0	2	stars	4	correct	1.21483459951924
170189	1	stim031_animate_bird_parrot_3.png	31	animate	bird	parrot	3	0	2	stars	4	correct	1.21483459951924
170389	1	stim085_animate_mammal_giraffe_1.png	85	animate	mammal	giraffe	1	0	2	stars	4	correct	1.21483459951924
170589	1	stim076_animate_insect_dragonfly_4.png	76	animate	insect	dragonfly	4	0	2	stars	4	correct	1.21483459951924
170789	1	stim157_inanimate_furniture_table_1.png	157	inanimate	furniture	table	1	0	2	stars	4	correct	1.21483459951924
170989	1	stim099_animate_mammal_rhino_3.png	99	animate	mammal	rhino	3	0	2	stars	4	correct	1.21483459951924
171189	1	stim117_inanimate_clothing_socks_1.png	117	inanimate	clothing	socks	1	0	2	stars	4	correct	1.21483459951924
171389	1	stim062_animate_insect_ant_2.png	62	animate	insect	ant	2	0	2	stars	4	correct	1.21483459951924
171589	1	stim142_inanimate_furniture_bed_2.png	142	inanimate	furniture	bed	2	0	2	stars	4	correct	1.21483459951924
171789	1	stim170_inanimate_plants_sunflower_2.png	170	inanimate	plants	sunflower	2	0	2	stars	4	correct	1.21483459951924
171989	1	stim167_inanimate_plants_cactus_3.png	167	inanimate	plants	cactus	3	0	2	stars	4	correct	1.21483459951924
172189	1	stim191_inanimate_tools_pan_3.png	191	inanimate	tools	pan	3	0	2	stars	4	correct	1.21483459951924
172389	1	stim042_animate_human_baby_2.png	42	animate	human	baby	2	0	2	stars	4	correct	1.21483459951924
172589	1	stim136_inanimate_fruits_pineapple_4.png	136	inanimate	fruits	pineapple	4	0	2	stars	4	correct	1.21483459951924
172789	1	stim089_animate_mammal_kangaroo_1.png	89	animate	mammal	kangaroo	1	0	2	stars	4	correct	1.21483459951924
172989	1	stim165_inanimate_plants_cactus_1.png	165	inanimate	plants	cactus	1	0	2	stars	4	correct	1.21483459951924
173189	1	stim011_animate_aquatic_seahorse_3.png	11	animate	aquatic	seahorse	3	0	2	stars	4	correct	1.21483459951924
173389	1	stim060_animate_human_sports_4.png	60	animate	human	sports	4	0	2	stars	4	correct	1.21483459951924
173589	1	stim162_inanimate_plants_bush_2.png	162	inanimate	plants	bush	2	0	2	stars	4	correct	1.21483459951924
173789	1	stim112_inanimate_clothing_jeans_4.png	112	inanimate	clothing	jeans	4	0	2	stars	4	correct	1.21483459951924
173989	1	stim009_animate_aquatic_seahorse_1.png	9	animate	aquatic	seahorse	1	0	2	stars	4	correct	1.21483459951924
174189	1	stim122_inanimate_fruits_apple_2.png	122	inanimate	fruits	apple	2	0	2	stars	4	correct	1.21483459951924
174389	1	stim107_inanimate_clothing_hat_3.png	107	inanimate	clothing	hat	3	0	2	stars	4	correct	1.21483459951924
174589	1	stim012_animate_aquatic_seahorse_4.png	12	animate	aquatic	seahorse	4	0	2	stars	4	correct	1.21483459951924
174789	1	stim168_inanimate_plants_cactus_4.png	168	inanimate	plants	cactus	4	0	2	stars	4	correct	1.21483459951924
174989	1	stim052_animate_human_clown_4.png	52	animate	human	clown	4	0	2	stars	4	correct	1.21483459951924
175189	1	stim155_inanimate_furniture_sofa_3.png	155	inanimate	furniture	sofa	3	0	2	stars	4	correct	1.21483459951924
175389	1	stim048_animate_human_child_4.png	48	animate	human	child	4	0	2	stars	4	correct	1.21483459951924
175589	1	stim150_inanimate_furniture_closet_2.png	150	inanimate	furniture	closet	2	0	2	stars	4	correct	1.21483459951924
175789	1	stim066_animate_insect_bug_2.png	66	animate	insect	bug	2	0	2	stars	4	correct	1.21483459951924
175989	1	stim068_animate_insect_bug_4.png	68	animate	insect	bug	4	0	2	stars	4	correct	1.21483459951924
176189	1	stim043_animate_human_baby_3.png	43	animate	human	baby	3	0	2	stars	4	correct	1.21483459951924
176389	1	stim029_animate_bird_parrot_1.png	29	animate	bird	parrot	1	0	2	stars	4	correct	1.21483459951924
176589	1	stim002_animate_aquatic_crab_2.png	2	animate	aquatic	crab	2	0	2	stars	4	correct	1.21483459951924
176789	1	stim018_animate_aquatic_shrimp_2.png	18	animate	aquatic	shrimp	2	0	2	stars	4	correct	1.21483459951924
176989	1	stim047_animate_human_child_3.png	47	animate	human	child	3	0	2	stars	4	correct	1.21483459951924
177189	1	stim038_animate_bird_penguin_2.png	38	animate	bird	penguin	2	0	2	stars	4	correct	1.21483459951924
177389	1	stim019_animate_aquatic_shrimp_3.png	19	animate	aquatic	shrimp	3	0	2	stars	4	correct	1.21483459951924
177589	1	stim185_inanimate_tools_hammer_1.png	185	inanimate	tools	hammer	1	0	2	stars	4	correct	1.21483459951924
177789	1	stim144_inanimate_furniture_bed_4.png	144	inanimate	furniture	bed	4	0	2	stars	4	correct	1.21483459951924
177989	1	stim081_animate_mammal_cow_1.png	81	animate	mammal	cow	1	0	2	stars	4	correct	1.21483459951924
178189	1	stim111_inanimate_clothing_jeans_3.png	111	inanimate	clothing	jeans	3	0	2	stars	4	correct	1.21483459951924
178389	1	stim174_inanimate_plants_tree_2.png	174	inanimate	plants	tree	2	0	2	stars	4	correct	1.21483459951924
178589	1	stim154_inanimate_furniture_sofa_2.png	154	inanimate	furniture	sofa	2	0	2	stars	4	correct	1.21483459951924
178789	1	stim119_inanimate_clothing_socks_3.png	119	inanimate	clothing	socks	3	0	2	stars	4	correct	1.21483459951924
178989	1	stim078_animate_insect_grasshopper_2.png	78	animate	insect	grasshopper	2	0	2	stars	4	correct	1.21483459951924
179189	1	stim146_inanimate_furniture_chair_2.png	146	inanimate	furniture	chair	2	0	2	stars	4	correct	1.21483459951924
179389	1	stim007_animate_aquatic_fish_3.png	7	animate	aquatic	fish	3	0	2	stars	4	correct	1.21483459951924
201106	1	stim079_animate_insect_grasshopper_3.png	79	animate	insect	grasshopper	3	0	3	stars	4	incorrect	1.14719253162184
201306	1	stim043_animate_human_baby_3.png	43	animate	human	baby	3	0	3	stars	4	incorrect	1.14719253162184
201506	1	stim094_animate_mammal_monkey_2.png	94	animate	mammal	monkey	2	0	3	stars	4	incorrect	1.14719253162184
201706	1	stim194_inanimate_tools_scissors_2.png	194	inanimate	tools	scissors	2	0	3	stars	4	incorrect	1.14719253162184
201906	1	stim112_inanimate_clothing_jeans_4.png	112	inanimate	clothing	jeans	4	0	3	stars	4	incorrect	1.14719253162184
202106	1	stim101_inanimate_clothing_gloves_1.png	101	inanimate	clothing	gloves	1	0	3	stars	4	incorrect	1.14719253162184
202306	1	stim107_inanimate_clothing_hat_3.png	107	inanimate	clothing	hat	3	0	3	stars	4	incorrect	1.14719253162184
202506	1	stim070_animate_insect_butterfly_2.png	70	animate	insect	butterfly	2	0	3	stars	4	incorrect	1.14719253162184
202706	1	stim062_animate_insect_ant_2.png	62	animate	insect	ant	2	0	3	stars	4	incorrect	1.14719253162184
202906	1	stim075_animate_insect_dragonfly_3.png	75	animate	insect	dragonfly	3	0	3	stars	4	incorrect	1.14719253162184
203106	1	stim190_inanimate_tools_pan_2.png	190	inanimate	tools	pan	2	0	3	stars	4	incorrect	1.14719253162184
203306	1	stim064_animate_insect_ant_4.png	64	animate	insect	ant	4	0	3	stars	4	incorrect	1.14719253162184
203506	1	stim090_animate_mammal_kangaroo_2.png	90	animate	mammal	kangaroo	2	0	3	stars	4	incorrect	1.14719253162184
203706	1	stim191_inanimate_tools_pan_3.png	191	inanimate	tools	pan	3	0	3	stars	4	incorrect	1.14719253162184
203906	1	stim099_animate_mammal_rhino_3.png	99	animate	mammal	rhino	3	0	3	stars	4	incorrect	1.14719253162184
204106	1	stim142_inanimate_furniture_bed_2.png	142	inanimate	furniture	bed	2	0	3	stars	4	incorrect	1.14719253162184
204306	1	stim028_animate_bird_duck_4.png	28	animate	bird	duck	4	0	3	stars	4	incorrect	1.14719253162184
204506	1	stim183_inanimate_tools_broom_3.png	183	inanimate	tools	broom	3	0	3	stars	4	incorrect	1.14719253162184
204706	1	stim180_inanimate_plants_tulip_4.png	180	inanimate	plants	tulip	4	0	3	stars	4	incorrect	1.14719253162184
204906	1	stim089_animate_mammal_kangaroo_1.png	89	animate	mammal	kangaroo	1	0	3	stars	4	incorrect	1.14719253162184
205106	1	stim072_animate_insect_butterfly_4.png	72	animate	insect	butterfly	4	0	3	stars	4	incorrect	1.14719253162184
205306	1	stim033_animate_bird_peacock_1.png	33	animate	bird	peacock	1	0	3	stars	4	incorrect	1.14719253162184
205506	1	stim110_inanimate_clothing_jeans_2.png	110	inanimate	clothing	jeans	2	0	3	stars	4	incorrect	1.14719253162184
205706	1	stim111_inanimate_clothing_jeans_3.png	111	inanimate	clothing	jeans	3	0	3	stars	4	incorrect	1.14719253162184
205906	1	stim135_inanimate_fruits_pineapple_3.png	135	inanimate	fruits	pineapple	3	0	3	stars	4	incorrect	1.14719253162184
206106	1	stim185_inanimate_tools_hammer_1.png	185	inanimate	tools	hammer	1	0	3	stars	4	incorrect	1.14719253162184
206306	1	stim081_animate_mammal_cow_1.png	81	animate	mammal	cow	1	0	3	stars	4	incorrect	1.14719253162184
206506	1	stim169_inanimate_plants_sunflower_1.png	169	inanimate	plants	sunflower	1	0	3	stars	4	incorrect	1.14719253162184
206706	1	stim050_animate_human_clown_2.png	50	animate	human	clown	2	0	3	stars	4	incorrect	1.14719253162184
206906	1	stim015_animate_aquatic_shark_3.png	15	animate	aquatic	shark	3	0	3	stars	4	incorrect	1.14719253162184
207106	1	stim165_inanimate_plants_cactus_1.png	165	inanimate	plants	cactus	1	0	3	stars	4	incorrect	1.14719253162184
207306	1	stim083_animate_mammal_cow_3.png	83	animate	mammal	cow	3	0	3	stars	4	incorrect	1.14719253162184
207506	1	stim172_inanimate_plants_sunflower_4.png	172	inanimate	plants	sunflower	4	0	3	stars	4	incorrect	1.14719253162184
207706	1	stim051_animate_human_clown_3.png	51	animate	human	clown	3	0	3	stars	4	incorrect	1.14719253162184
207906	1	stim171_inanimate_plants_sunflower_3.png	171	inanimate	plants	sunflower	3	0	3	stars	4	incorrect	1.14719253162184
208106	1	stim123_inanimate_fruits_apple_3.png	123	inanimate	fruits	apple	3	0	3	stars	4	incorrect	1.14719253162184
208306	1	stim024_animate_bird_chicken_4.png	24	animate	bird	chicken	4	0	3	stars	4	incorrect	1.14719253162184
208506	1	stim014_animate_aquatic_shark_2.png	14	animate	aquatic	shark	2	0	3	stars	4	incorrect	1.14719253162184
208706	1	stim092_animate_mammal_kangaroo_4.png	92	animate	mammal	kangaroo	4	0	3	stars	4	incorrect	1.14719253162184
208906	1	stim013_animate_aquatic_shark_1.png	13	animate	aquatic	shark	1	0	3	stars	4	incorrect	1.14719253162184
209106	1	stim067_animate_insect_bug_3.png	67	animate	insect	bug	3	0	3	stars	4	incorrect	1.14719253162184
209306	1	stim087_animate_mammal_giraffe_3.png	87	animate	mammal	giraffe	3	0	3	stars	4	incorrect	1.14719253162184
209506	1	stim108_inanimate_clothing_hat_4.png	108	inanimate	clothing	hat	4	0	3	stars	4	incorrect	1.14719253162184
209706	1	stim077_animate_insect_grasshopper_1.png	77	animate	insect	grasshopper	1	0	3	stars	4	incorrect	1.14719253162184
209906	1	stim003_animate_aquatic_crab_3.png	3	animate	aquatic	crab	3	0	3	stars	4	incorrect	1.14719253162184
210106	1	stim170_inanimate_plants_sunflower_2.png	170	inanimate	plants	sunflower	2	0	3	stars	4	incorrect	1.14719253162184
210306	1	stim161_inanimate_plants_bush_1.png	161	inanimate	plants	bush	1	0	3	stars	4	incorrect	1.14719253162184
210506	1	stim134_inanimate_fruits_pineapple_2.png	134	inanimate	fruits	pineapple	2	0	3	stars	4	incorrect	1.14719253162184
210706	1	stim163_inanimate_plants_bush_3.png	163	inanimate	plants	bush	3	0	3	stars	4	incorrect	1.14719253162184
210906	1	stim121_inanimate_fruits_apple_1.png	121	inanimate	fruits	apple	1	0	3	stars	4	incorrect	1.14719253162184
211106	1	stim082_animate_mammal_cow_2.png	82	animate	mammal	cow	2	0	3	stars	4	incorrect	1.14719253162184
211306	1	stim127_inanimate_fruits_banana_3.png	127	inanimate	fruits	banana	3	0	3	stars	4	incorrect	1.14719253162184
211506	1	stim184_inanimate_tools_broom_4.png	184	inanimate	tools	broom	4	0	3	stars	4	incorrect	1.14719253162184
211706	1	stim216_targets_shapes_star_4.png	216	targets	shapes	star	4	1	3	stars	4	incorrect	1.14719253162184
211906	1	stim040_animate_bird_penguin_4.png	40	animate	bird	penguin	4	0	3	stars	4	incorrect	1.14719253162184
212106	1	stim148_inanimate_furniture_chair_4.png	148	inanimate	furniture	chair	4	0	3	stars	4	incorrect	1.14719253162184
212306	1	stim198_inanimate_tools_wrench_2.png	198	inanimate	tools	wrench	2	0	3	stars	4	incorrect	1.14719253162184
212506	1	stim157_inanimate_furniture_table_1.png	157	inanimate	furniture	table	1	0	3	stars	4	incorrect	1.14719253162184
212706	1	stim060_animate_human_sports_4.png	60	animate	human	sports	4	0	3	stars	4	incorrect	1.14719253162184
212906	1	stim126_inanimate_fruits_banana_2.png	126	inanimate	fruits	banana	2	0	3	stars	4	incorrect	1.14719253162184
213106	1	stim035_animate_bird_peacock_3.png	35	animate	bird	peacock	3	0	3	stars	4	incorrect	1.14719253162184
213306	1	stim041_animate_human_baby_1.png	41	animate	human	baby	1	0	3	stars	4	incorrect	1.14719253162184
213506	1	stim179_inanimate_plants_tulip_3.png	179	inanimate	plants	tulip	3	0	3	stars	4	incorrect	1.14719253162184
213706	1	stim167_inanimate_plants_cactus_3.png	167	inanimate	plants	cactus	3	0	3	stars	4	incorrect	1.14719253162184
213906	1	stim102_inanimate_clothing_gloves_2.png	102	inanimate	clothing	gloves	2	0	3	stars	4	incorrect	1.14719253162184
214106	1	stim007_animate_aquatic_fish_3.png	7	animate	aquatic	fish	3	0	3	stars	4	incorrect	1.14719253162184
214306	1	stim005_animate_aquatic_fish_1.png	5	animate	aquatic	fish	1	0	3	stars	4	incorrect	1.14719253162184
214506	1	stim058_animate_human_sports_2.png	58	animate	human	sports	2	0	3	stars	4	incorrect	1.14719253162184
214706	1	stim133_inanimate_fruits_pineapple_1.png	133	inanimate	fruits	pineapple	1	0	3	stars	4	incorrect	1.14719253162184
214906	1	stim076_animate_insect_dragonfly_4.png	76	animate	insect	dragonfly	4	0	3	stars	4	incorrect	1.14719253162184
215106	1	stim080_animate_insect_grasshopper_4.png	80	animate	insect	grasshopper	4	0	3	stars	4	incorrect	1.14719253162184
215306	1	stim139_inanimate_fruits_strawberry_3.png	139	inanimate	fruits	strawberry	3	0	3	stars	4	incorrect	1.14719253162184
215506	1	stim115_inanimate_clothing_shirt_3.png	115	inanimate	clothing	shirt	3	0	3	stars	4	incorrect	1.14719253162184
215706	1	stim011_animate_aquatic_seahorse_3.png	11	animate	aquatic	seahorse	3	0	3	stars	4	incorrect	1.14719253162184
215906	1	stim105_inanimate_clothing_hat_1.png	105	inanimate	clothing	hat	1	0	3	stars	4	incorrect	1.14719253162184
216106	1	stim106_inanimate_clothing_hat_2.png	106	inanimate	clothing	hat	2	0	3	stars	4	incorrect	1.14719253162184
216306	1	stim162_inanimate_plants_bush_2.png	162	inanimate	plants	bush	2	0	3	stars	4	incorrect	1.14719253162184
216506	1	stim177_inanimate_plants_tulip_1.png	177	inanimate	plants	tulip	1	0	3	stars	4	incorrect	1.14719253162184
216706	1	stim146_inanimate_furniture_chair_2.png	146	inanimate	furniture	chair	2	0	3	stars	4	incorrect	1.14719253162184
216906	1	stim147_inanimate_furniture_chair_3.png	147	inanimate	furniture	chair	3	0	3	stars	4	incorrect	1.14719253162184
217106	1	stim122_inanimate_fruits_apple_2.png	122	inanimate	fruits	apple	2	0	3	stars	4	incorrect	1.14719253162184
217306	1	stim009_animate_aquatic_seahorse_1.png	9	animate	aquatic	seahorse	1	0	3	stars	4	incorrect	1.14719253162184
217506	1	stim042_animate_human_baby_2.png	42	animate	human	baby	2	0	3	stars	4	incorrect	1.14719253162184
217706	1	stim159_inanimate_furniture_table_3.png	159	inanimate	furniture	table	3	0	3	stars	4	incorrect	1.14719253162184
217906	1	stim114_inanimate_clothing_shirt_2.png	114	inanimate	clothing	shirt	2	0	3	stars	4	incorrect	1.14719253162184
218106	1	stim182_inanimate_tools_broom_2.png	182	inanimate	tools	broom	2	0	3	stars	4	incorrect	1.14719253162184
218306	1	stim074_animate_insect_dragonfly_2.png	74	animate	insect	dragonfly	2	0	3	stars	4	incorrect	1.14719253162184
218506	1	stim018_animate_aquatic_shrimp_2.png	18	animate	aquatic	shrimp	2	0	3	stars	4	incorrect	1.14719253162184
218706	1	stim119_inanimate_clothing_socks_3.png	119	inanimate	clothing	socks	3	0	3	stars	4	incorrect	1.14719253162184
218906	1	stim069_animate_insect_butterfly_1.png	69	animate	insect	butterfly	1	0	3	stars	4	incorrect	1.14719253162184
219106	1	stim029_animate_bird_parrot_1.png	29	animate	bird	parrot	1	0	3	stars	4	incorrect	1.14719253162184
219306	1	stim016_animate_aquatic_shark_4.png	16	animate	aquatic	shark	4	0	3	stars	4	incorrect	1.14719253162184
219506	1	stim145_inanimate_furniture_chair_1.png	145	inanimate	furniture	chair	1	0	3	stars	4	incorrect	1.14719253162184
219706	1	stim010_animate_aquatic_seahorse_2.png	10	animate	aquatic	seahorse	2	0	3	stars	4	incorrect	1.14719253162184
219906	1	stim136_inanimate_fruits_pineapple_4.png	136	inanimate	fruits	pineapple	4	0	3	stars	4	incorrect	1.14719253162184
220106	1	stim131_inanimate_fruits_grape_3.png	131	inanimate	fruits	grape	3	0	3	stars	4	incorrect	1.14719253162184
220306	1	stim174_inanimate_plants_tree_2.png	174	inanimate	plants	tree	2	0	3	stars	4	incorrect	1.14719253162184
220506	1	stim211_targets_shapes_star_3.png	211	targets	shapes	star	3	1	3	stars	4	incorrect	1.14719253162184
220706	1	stim084_animate_mammal_cow_4.png	84	animate	mammal	cow	4	0	3	stars	4	incorrect	1.14719253162184
220906	1	stim025_animate_bird_duck_1.png	25	animate	bird	duck	1	0	3	stars	4	incorrect	1.14719253162184
221106	1	stim143_inanimate_furniture_bed_3.png	143	inanimate	furniture	bed	3	0	3	stars	4	incorrect	1.14719253162184
221306	1	stim012_animate_aquatic_seahorse_4.png	12	animate	aquatic	seahorse	4	0	3	stars	4	incorrect	1.14719253162184
221506	1	stim181_inanimate_tools_broom_1.png	181	inanimate	tools	broom	1	0	3	stars	4	incorrect	1.14719253162184
221706	1	stim036_animate_bird_peacock_4.png	36	animate	bird	peacock	4	0	3	stars	4	incorrect	1.14719253162184
221906	1	stim100_animate_mammal_rhino_4.png	100	animate	mammal	rhino	4	0	3	stars	4	incorrect	1.14719253162184
222106	1	stim038_animate_bird_penguin_2.png	38	animate	bird	penguin	2	0	3	stars	4	incorrect	1.14719253162184
222306	1	stim085_animate_mammal_giraffe_1.png	85	animate	mammal	giraffe	1	0	3	stars	4	incorrect	1.14719253162184
222506	1	stim068_animate_insect_bug_4.png	68	animate	insect	bug	4	0	3	stars	4	incorrect	1.14719253162184
222707	1	stim057_animate_human_sports_1.png	57	animate	human	sports	1	0	3	stars	4	incorrect	1.14719253162184
222906	1	stim144_inanimate_furniture_bed_4.png	144	inanimate	furniture	bed	4	0	3	stars	4	incorrect	1.14719253162184
223106	1	stim002_animate_aquatic_crab_2.png	2	animate	aquatic	crab	2	0	3	stars	4	incorrect	1.14719253162184
223307	1	stim178_inanimate_plants_tulip_2.png	178	inanimate	plants	tulip	2	0	3	stars	4	incorrect	1.14719253162184
223507	1	stim098_animate_mammal_rhino_2.png	98	animate	mammal	rhino	2	0	3	stars	4	incorrect	1.14719253162184
223707	1	stim141_inanimate_furniture_bed_1.png	141	inanimate	furniture	bed	1	0	3	stars	4	incorrect	1.14719253162184
223907	1	stim027_animate_bird_duck_3.png	27	animate	bird	duck	3	0	3	stars	4	incorrect	1.14719253162184
224107	1	stim175_inanimate_plants_tree_3.png	175	inanimate	plants	tree	3	0	3	stars	4	incorrect	1.14719253162184
224307	1	stim049_animate_human_clown_1.png	49	animate	human	clown	1	0	3	stars	4	incorrect	1.14719253162184
224507	1	stim088_animate_mammal_giraffe_4.png	88	animate	mammal	giraffe	4	0	3	stars	4	incorrect	1.14719253162184
224707	1	stim052_animate_human_clown_4.png	52	animate	human	clown	4	0	3	stars	4	incorrect	1.14719253162184
224907	1	stim193_inanimate_tools_scissors_1.png	193	inanimate	tools	scissors	1	0	3	stars	4	incorrect	1.14719253162184
225107	1	stim097_animate_mammal_rhino_1.png	97	animate	mammal	rhino	1	0	3	stars	4	incorrect	1.14719253162184
225307	1	stim032_animate_bird_parrot_4.png	32	animate	bird	parrot	4	0	3	stars	4	incorrect	1.14719253162184
225507	1	stim023_animate_bird_chicken_3.png	23	animate	bird	chicken	3	0	3	stars	4	incorrect	1.14719253162184
225707	1	stim073_animate_insect_dragonfly_1.png	73	animate	insect	dragonfly	1	0	3	stars	4	incorrect	1.14719253162184
225907	1	stim118_inanimate_clothing_socks_2.png	118	inanimate	clothing	socks	2	0	3	stars	4	incorrect	1.14719253162184
226107	1	stim187_inanimate_tools_hammer_3.png	187	inanimate	tools	hammer	3	0	3	stars	4	incorrect	1.14719253162184
226307	1	stim192_inanimate_tools_pan_4.png	192	inanimate	tools	pan	4	0	3	stars	4	incorrect	1.14719253162184
226507	1	stim046_animate_human_child_2.png	46	animate	human	child	2	0	3	stars	4	incorrect	1.14719253162184
226707	1	stim138_inanimate_fruits_strawberry_2.png	138	inanimate	fruits	strawberry	2	0	3	stars	4	incorrect	1.14719253162184
226907	1	stim063_animate_insect_ant_3.png	63	animate	insect	ant	3	0	3	stars	4	incorrect	1.14719253162184
227107	1	stim054_animate_human_faces_2.png	54	animate	human	faces	2	0	3	stars	4	incorrect	1.14719253162184
227307	1	stim132_inanimate_fruits_grape_4.png	132	inanimate	fruits	grape	4	0	3	stars	4	incorrect	1.14719253162184
227507	1	stim150_inanimate_furniture_closet_2.png	150	inanimate	furniture	closet	2	0	3	stars	4	incorrect	1.14719253162184
227707	1	stim129_inanimate_fruits_grape_1.png	129	inanimate	fruits	grape	1	0	3	stars	4	incorrect	1.14719253162184
227907	1	stim056_animate_human_faces_4.png	56	animate	human	faces	4	0	3	stars	4	incorrect	1.14719253162184
228107	1	stim168_inanimate_plants_cactus_4.png	168	inanimate	plants	cactus	4	0	3	stars	4	incorrect	1.14719253162184
228307	1	stim166_inanimate_plants_cactus_2.png	166	inanimate	plants	cactus	2	0	3	stars	4	incorrect	1.14719253162184
228507	1	stim215_targets_shapes_star_3.png	215	targets	shapes	star	3	1	3	stars	4	incorrect	1.14719253162184
228707	1	stim176_inanimate_plants_tree_4.png	176	inanimate	plants	tree	4	0	3	stars	4	incorrect	1.14719253162184
228907	1	stim113_inanimate_clothing_shirt_1.png	113	inanimate	clothing	shirt	1	0	3	stars	4	incorrect	1.14719253162184
229107	1	stim047_animate_human_child_3.png	47	animate	human	child	3	0	3	stars	4	incorrect	1.14719253162184
229307	1	stim017_animate_aquatic_shrimp_1.png	17	animate	aquatic	shrimp	1	0	3	stars	4	incorrect	1.14719253162184
229507	1	stim001_animate_aquatic_crab_1.png	1	animate	aquatic	crab	1	0	3	stars	4	incorrect	1.14719253162184
229707	1	stim125_inanimate_fruits_banana_1.png	125	inanimate	fruits	banana	1	0	3	stars	4	incorrect	1.14719253162184
229907	1	stim155_inanimate_furniture_sofa_3.png	155	inanimate	furniture	sofa	3	0	3	stars	4	incorrect	1.14719253162184
230107	1	stim160_inanimate_furniture_table_4.png	160	inanimate	furniture	table	4	0	3	stars	4	incorrect	1.14719253162184
230307	1	stim151_inanimate_furniture_closet_3.png	151	inanimate	furniture	closet	3	0	3	stars	4	incorrect	1.14719253162184
230507	1	stim091_animate_mammal_kangaroo_3.png	91	animate	mammal	kangaroo	3	0	3	stars	4	incorrect	1.14719253162184
230707	1	stim055_animate_human_faces_3.png	55	animate	human	faces	3	0	3	stars	4	incorrect	1.14719253162184
230907	1	stim045_animate_human_child_1.png	45	animate	human	child	1	0	3	stars	4	incorrect	1.14719253162184
231107	1	stim130_inanimate_fruits_grape_2.png	130	inanimate	fruits	grape	2	0	3	stars	4	incorrect	1.14719253162184
231307	1	stim120_inanimate_clothing_socks_4.png	120	inanimate	clothing	socks	4	0	3	stars	4	incorrect	1.14719253162184
231507	1	stim071_animate_insect_butterfly_3.png	71	animate	insect	butterfly	3	0	3	stars	4	incorrect	1.14719253162184
231707	1	stim153_inanimate_furniture_sofa_1.png	153	inanimate	furniture	sofa	1	0	3	stars	4	incorrect	1.14719253162184
231907	1	stim031_animate_bird_parrot_3.png	31	animate	bird	parrot	3	0	3	stars	4	incorrect	1.14719253162184
232107	1	stim199_inanimate_tools_wrench_3.png	199	inanimate	tools	wrench	3	0	3	stars	4	incorrect	1.14719253162184
232307	1	stim093_animate_mammal_monkey_1.png	93	animate	mammal	monkey	1	0	3	stars	4	incorrect	1.14719253162184
232507	1	stim173_inanimate_plants_tree_1.png	173	inanimate	plants	tree	1	0	3	stars	4	incorrect	1.14719253162184
232707	1	stim164_inanimate_plants_bush_4.png	164	inanimate	plants	bush	4	0	3	stars	4	incorrect	1.14719253162184
232907	1	stim188_inanimate_tools_hammer_4.png	188	inanimate	tools	hammer	4	0	3	stars	4	incorrect	1.14719253162184
233107	1	stim008_animate_aquatic_fish_4.png	8	animate	aquatic	fish	4	0	3	stars	4	incorrect	1.14719253162184
233307	1	stim140_inanimate_fruits_strawberry_4.png	140	inanimate	fruits	strawberry	4	0	3	stars	4	incorrect	1.14719253162184
233507	1	stim189_inanimate_tools_pan_1.png	189	inanimate	tools	pan	1	0	3	stars	4	incorrect	1.14719253162184
233707	1	stim156_inanimate_furniture_sofa_4.png	156	inanimate	furniture	sofa	4	0	3	stars	4	incorrect	1.14719253162184
233907	1	stim158_inanimate_furniture_table_2.png	158	inanimate	furniture	table	2	0	3	stars	4	incorrect	1.14719253162184
234107	1	stim086_animate_mammal_giraffe_2.png	86	animate	mammal	giraffe	2	0	3	stars	4	incorrect	1.14719253162184
234307	1	stim059_animate_human_sports_3.png	59	animate	human	sports	3	0	3	stars	4	incorrect	1.14719253162184
234507	1	stim006_animate_aquatic_fish_2.png	6	animate	aquatic	fish	2	0	3	stars	4	incorrect	1.14719253162184
234707	1	stim117_inanimate_clothing_socks_1.png	117	inanimate	clothing	socks	1	0	3	stars	4	incorrect	1.14719253162184
234907	1	stim053_animate_human_faces_1.png	53	animate	human	faces	1	0	3	stars	4	incorrect	1.14719253162184
235107	1	stim128_inanimate_fruits_banana_4.png	128	inanimate	fruits	banana	4	0	3	stars	4	incorrect	1.14719253162184
235307	1	stim034_animate_bird_peacock_2.png	34	animate	bird	peacock	2	0	3	stars	4	incorrect	1.14719253162184
235507	1	stim197_inanimate_tools_wrench_1.png	197	inanimate	tools	wrench	1	0	3	stars	4	incorrect	1.14719253162184
235707	1	stim044_animate_human_baby_4.png	44	animate	human	baby	4	0	3	stars	4	incorrect	1.14719253162184
235907	1	stim149_inanimate_furniture_closet_1.png	149	inanimate	furniture	closet	1	0	3	stars	4	incorrect	1.14719253162184
236107	1	stim078_animate_insect_grasshopper_2.png	78	animate	insect	grasshopper	2	0	3	stars	4	incorrect	1.14719253162184
236307	1	stim096_animate_mammal_monkey_4.png	96	animate	mammal	monkey	4	0	3	stars	4	incorrect	1.14719253162184
236507	1	stim022_animate_bird_chicken_2.png	22	animate	bird	chicken	2	0	3	stars	4	incorrect	1.14719253162184
236707	1	stim020_animate_aquatic_shrimp_4.png	20	animate	aquatic	shrimp	4	0	3	stars	4	incorrect	1.14719253162184
236907	1	stim066_animate_insect_bug_2.png	66	animate	insect	bug	2	0	3	stars	4	incorrect	1.14719253162184
237107	1	stim021_animate_bird_chicken_1.png	21	animate	bird	chicken	1	0	3	stars	4	incorrect	1.14719253162184
237307	1	stim152_inanimate_furniture_closet_4.png	152	inanimate	furniture	closet	4	0	3	stars	4	incorrect	1.14719253162184
237507	1	stim030_animate_bird_parrot_2.png	30	animate	bird	parrot	2	0	3	stars	4	incorrect	1.14719253162184
237707	1	stim195_inanimate_tools_scissors_3.png	195	inanimate	tools	scissors	3	0	3	stars	4	incorrect	1.14719253162184
237907	1	stim154_inanimate_furniture_sofa_2.png	154	inanimate	furniture	sofa	2	0	3	stars	4	incorrect	1.14719253162184
238107	1	stim037_animate_bird_penguin_1.png	37	animate	bird	penguin	1	0	3	stars	4	incorrect	1.14719253162184
238307	1	stim103_inanimate_clothing_gloves_3.png	103	inanimate	clothing	gloves	3	0	3	stars	4	incorrect	1.14719253162184
238507	1	stim109_inanimate_clothing_jeans_1.png	109	inanimate	clothing	jeans	1	0	3	stars	4	incorrect	1.14719253162184
238707	1	stim095_animate_mammal_monkey_3.png	95	animate	mammal	monkey	3	0	3	stars	4	incorrect	1.14719253162184
238907	1	stim048_animate_human_child_4.png	48	animate	human	child	4	0	3	stars	4	incorrect	1.14719253162184
239107	1	stim004_animate_aquatic_crab_4.png	4	animate	aquatic	crab	4	0	3	stars	4	incorrect	1.14719253162184
239307	1	stim186_inanimate_tools_hammer_2.png	186	inanimate	tools	hammer	2	0	3	stars	4	incorrect	1.14719253162184
239507	1	stim196_inanimate_tools_scissors_4.png	196	inanimate	tools	scissors	4	0	3	stars	4	incorrect	1.14719253162184
239707	1	stim116_inanimate_clothing_shirt_4.png	116	inanimate	clothing	shirt	4	0	3	stars	4	incorrect	1.14719253162184
239907	1	stim039_animate_bird_penguin_3.png	39	animate	bird	penguin	3	0	3	stars	4	incorrect	1.14719253162184
240107	1	stim065_animate_insect_bug_1.png	65	animate	insect	bug	1	0	3	stars	4	incorrect	1.14719253162184
240307	1	stim019_animate_aquatic_shrimp_3.png	19	animate	aquatic	shrimp	3	0	3	stars	4	incorrect	1.14719253162184
240507	1	stim200_inanimate_tools_wrench_4.png	200	inanimate	tools	wrench	4	0	3	stars	4	incorrect	1.14719253162184
240707	1	stim061_animate_insect_ant_1.png	61	animate	insect	ant	1	0	3	stars	4	incorrect	1.14719253162184
240907	1	stim124_inanimate_fruits_apple_4.png	124	inanimate	fruits	apple	4	0	3	stars	4	incorrect	1.14719253162184
241107	1	stim104_inanimate_clothing_gloves_4.png	104	inanimate	clothing	gloves	4	0	3	stars	4	incorrect	1.14719253162184
241307	1	stim137_inanimate_fruits_strawberry_1.png	137	inanimate	fruits	strawberry	1	0	3	stars	4	incorrect	1.14719253162184
241507	1	stim026_animate_bird_duck_2.png	26	animate	bird	duck	2	0	3	stars	4	incorrect	1.14719253162184
261607	1	stim051_animate_human_clown_3.png	51	animate	human	clown	3	0	4	boats	3	correct	1.43128443811656
261807	1	stim145_inanimate_furniture_chair_1.png	145	inanimate	furniture	chair	1	0	4	boats	3	correct	1.43128443811656
262007	1	stim156_inanimate_furniture_sofa_4.png	156	inanimate	furniture	sofa	4	0	4	boats	3	correct	1.43128443811656
262207	1	stim143_inanimate_furniture_bed_3.png	143	inanimate	furniture	bed	3	0	4	boats	3	correct	1.43128443811656
262407	1	stim073_animate_insect_dragonfly_1.png	73	animate	insect	dragonfly	1	0	4	boats	3	correct	1.43128443811656
262607	1	stim063_animate_insect_ant_3.png	63	animate	insect	ant	3	0	4	boats	3	correct	1.43128443811656
262807	1	stim189_inanimate_tools_pan_1.png	189	inanimate	tools	pan	1	0	4	boats	3	correct	1.43128443811656
263007	1	stim007_animate_aquatic_fish_3.png	7	animate	aquatic	fish	3	0	4	boats	3	correct	1.43128443811656
263207	1	stim095_animate_mammal_monkey_3.png	95	animate	mammal	monkey	3	0	4	boats	3	correct	1.43128443811656
263407	1	stim154_inanimate_furniture_sofa_2.png	154	inanimate	furniture	sofa	2	0	4	boats	3	correct	1.43128443811656
263607	1	stim168_inanimate_plants_cactus_4.png	168	inanimate	plants	cactus	4	0	4	boats	3	correct	1.43128443811656
263807	1	stim171_inanimate_plants_sunflower_3.png	171	inanimate	plants	sunflower	3	0	4	boats	3	correct	1.43128443811656
264007	1	stim098_animate_mammal_rhino_2.png	98	animate	mammal	rhino	2	0	4	boats	3	correct	1.43128443811656
264207	1	stim188_inanimate_tools_hammer_4.png	188	inanimate	tools	hammer	4	0	4	boats	3	correct	1.43128443811656
264407	1	stim147_inanimate_furniture_chair_3.png	147	inanimate	furniture	chair	3	0	4	boats	3	correct	1.43128443811656
264607	1	stim015_animate_aquatic_shark_3.png	15	animate	aquatic	shark	3	0	4	boats	3	correct	1.43128443811656
264807	1	stim001_animate_aquatic_crab_1.png	1	animate	aquatic	crab	1	0	4	boats	3	correct	1.43128443811656
265007	1	stim006_animate_aquatic_fish_2.png	6	animate	aquatic	fish	2	0	4	boats	3	correct	1.43128443811656
265207	1	stim082_animate_mammal_cow_2.png	82	animate	mammal	cow	2	0	4	boats	3	correct	1.43128443811656
265407	1	stim162_inanimate_plants_bush_2.png	162	inanimate	plants	bush	2	0	4	boats	3	correct	1.43128443811656
265607	1	stim129_inanimate_fruits_grape_1.png	129	inanimate	fruits	grape	1	0	4	boats	3	correct	1.43128443811656
265807	1	stim176_inanimate_plants_tree_4.png	176	inanimate	plants	tree	4	0	4	boats	3	correct	1.43128443811656
266007	1	stim102_inanimate_clothing_gloves_2.png	102	inanimate	clothing	gloves	2	0	4	boats	3	correct	1.43128443811656
266207	1	stim094_animate_mammal_monkey_2.png	94	animate	mammal	monkey	2	0	4	boats	3	correct	1.43128443811656
266407	1	stim111_inanimate_clothing_jeans_3.png	111	inanimate	clothing	jeans	3	0	4	boats	3	correct	1.43128443811656
266607	1	stim059_animate_human_sports_3.png	59	animate	human	sports	3	0	4	boats	3	correct	1.43128443811656
266807	1	stim120_inanimate_clothing_socks_4.png	120	inanimate	clothing	socks	4	0	4	boats	3	correct	1.43128443811656
267007	1	stim127_inanimate_fruits_banana_3.png	127	inanimate	fruits	banana	3	0	4	boats	3	correct	1.43128443811656
267207	1	stim106_inanimate_clothing_hat_2.png	106	inanimate	clothing	hat	2	0	4	boats	3	correct	1.43128443811656
267407	1	stim085_animate_mammal_giraffe_1.png	85	animate	mammal	giraffe	1	0	4	boats	3	correct	1.43128443811656
267608	1	stim149_inanimate_furniture_closet_1.png	149	inanimate	furniture	closet	1	0	4	boats	3	correct	1.43128443811656
267808	1	stim198_inanimate_tools_wrench_2.png	198	inanimate	tools	wrench	2	0	4	boats	3	correct	1.43128443811656
268007	1	stim043_animate_human_baby_3.png	43	animate	human	baby	3	0	4	boats	3	correct	1.43128443811656
268208	1	stim005_animate_aquatic_fish_1.png	5	animate	aquatic	fish	1	0	4	boats	3	correct	1.43128443811656
268408	1	stim061_animate_insect_ant_1.png	61	animate	insect	ant	1	0	4	boats	3	correct	1.43128443811656
268608	1	stim134_inanimate_fruits_pineapple_2.png	134	inanimate	fruits	pineapple	2	0	4	boats	3	correct	1.43128443811656
268808	1	stim108_inanimate_clothing_hat_4.png	108	inanimate	clothing	hat	4	0	4	boats	3	correct	1.43128443811656
269008	1	stim139_inanimate_fruits_strawberry_3.png	139	inanimate	fruits	strawberry	3	0	4	boats	3	correct	1.43128443811656
269208	1	stim197_inanimate_tools_wrench_1.png	197	inanimate	tools	wrench	1	0	4	boats	3	correct	1.43128443811656
269408	1	stim151_inanimate_furniture_closet_3.png	151	inanimate	furniture	closet	3	0	4	boats	3	correct	1.43128443811656
269608	1	stim071_animate_insect_butterfly_3.png	71	animate	insect	butterfly	3	0	4	boats	3	correct	1.43128443811656
269808	1	stim183_inanimate_tools_broom_3.png	183	inanimate	tools	broom	3	0	4	boats	3	correct	1.43128443811656
270008	1	stim150_inanimate_furniture_closet_2.png	150	inanimate	furniture	closet	2	0	4	boats	3	correct	1.43128443811656
270208	1	stim148_inanimate_furniture_chair_4.png	148	inanimate	furniture	chair	4	0	4	boats	3	correct	1.43128443811656
270408	1	stim192_inanimate_tools_pan_4.png	192	inanimate	tools	pan	4	0	4	boats	3	correct	1.43128443811656
270608	1	stim146_inanimate_furniture_chair_2.png	146	inanimate	furniture	chair	2	0	4	boats	3	correct	1.43128443811656
270808	1	stim137_inanimate_fruits_strawberry_1.png	137	inanimate	fruits	strawberry	1	0	4	boats	3	correct	1.43128443811656
271008	1	stim175_inanimate_plants_tree_3.png	175	inanimate	plants	tree	3	0	4	boats	3	correct	1.43128443811656
271208	1	stim018_animate_aquatic_shrimp_2.png	18	animate	aquatic	shrimp	2	0	4	boats	3	correct	1.43128443811656
271408	1	stim066_animate_insect_bug_2.png	66	animate	insect	bug	2	0	4	boats	3	correct	1.43128443811656
271608	1	stim025_animate_bird_duck_1.png	25	animate	bird	duck	1	0	4	boats	3	correct	1.43128443811656
271808	1	stim060_animate_human_sports_4.png	60	animate	human	sports	4	0	4	boats	3	correct	1.43128443811656
272008	1	stim201_targets_object_boats_1.png	201	targets	object	boats	1	1	4	boats	3	correct	1.43128443811656
272208	1	stim031_animate_bird_parrot_3.png	31	animate	bird	parrot	3	0	4	boats	3	correct	1.43128443811656
272408	1	stim166_inanimate_plants_cactus_2.png	166	inanimate	plants	cactus	2	0	4	boats	3	correct	1.43128443811656
272608	1	stim093_animate_mammal_monkey_1.png	93	animate	mammal	monkey	1	0	4	boats	3	correct	1.43128443811656
272808	1	stim020_animate_aquatic_shrimp_4.png	20	animate	aquatic	shrimp	4	0	4	boats	3	correct	1.43128443811656
273008	1	stim164_inanimate_plants_bush_4.png	164	inanimate	plants	bush	4	0	4	boats	3	correct	1.43128443811656
273208	1	stim138_inanimate_fruits_strawberry_2.png	138	inanimate	fruits	strawberry	2	0	4	boats	3	correct	1.43128443811656
273408	1	stim194_inanimate_tools_scissors_2.png	194	inanimate	tools	scissors	2	0	4	boats	3	correct	1.43128443811656
273608	1	stim112_inanimate_clothing_jeans_4.png	112	inanimate	clothing	jeans	4	0	4	boats	3	correct	1.43128443811656
273808	1	stim185_inanimate_tools_hammer_1.png	185	inanimate	tools	hammer	1	0	4	boats	3	correct	1.43128443811656
274008	1	stim101_inanimate_clothing_gloves_1.png	101	inanimate	clothing	gloves	1	0	4	boats	3	correct	1.43128443811656
274208	1	stim022_animate_bird_chicken_2.png	22	animate	bird	chicken	2	0	4	boats	3	correct	1.43128443811656
274408	1	stim004_animate_aquatic_crab_4.png	4	animate	aquatic	crab	4	0	4	boats	3	correct	1.43128443811656
274608	1	stim136_inanimate_fruits_pineapple_4.png	136	inanimate	fruits	pineapple	4	0	4	boats	3	correct	1.43128443811656
274808	1	stim080_animate_insect_grasshopper_4.png	80	animate	insect	grasshopper	4	0	4	boats	3	correct	1.43128443811656
275008	1	stim011_animate_aquatic_seahorse_3.png	11	animate	aquatic	seahorse	3	0	4	boats	3	correct	1.43128443811656
275208	1	stim170_inanimate_plants_sunflower_2.png	170	inanimate	plants	sunflower	2	0	4	boats	3	correct	1.43128443811656
275408	1	stim092_animate_mammal_kangaroo_4.png	92	animate	mammal	kangaroo	4	0	4	boats	3	correct	1.43128443811656
275608	1	stim090_animate_mammal_kangaroo_2.png	90	animate	mammal	kangaroo	2	0	4	boats	3	correct	1.43128443811656
275808	1	stim124_inanimate_fruits_apple_4.png	124	inanimate	fruits	apple	4	0	4	boats	3	correct	1.43128443811656
276008	1	stim053_animate_human_faces_1.png	53	animate	human	faces	1	0	4	boats	3	correct	1.43128443811656
276208	1	stim046_animate_human_child_2.png	46	animate	human	child	2	0	4	boats	3	correct	1.43128443811656
276408	1	stim115_inanimate_clothing_shirt_3.png	115	inanimate	clothing	shirt	3	0	4	boats	3	correct	1.43128443811656
276608	1	stim116_inanimate_clothing_shirt_4.png	116	inanimate	clothing	shirt	4	0	4	boats	3	correct	1.43128443811656
276808	1	stim186_inanimate_tools_hammer_2.png	186	inanimate	tools	hammer	2	0	4	boats	3	correct	1.43128443811656
277008	1	stim199_inanimate_tools_wrench_3.png	199	inanimate	tools	wrench	3	0	4	boats	3	correct	1.43128443811656
277208	1	stim013_animate_aquatic_shark_1.png	13	animate	aquatic	shark	1	0	4	boats	3	correct	1.43128443811656
277408	1	stim010_animate_aquatic_seahorse_2.png	10	animate	aquatic	seahorse	2	0	4	boats	3	correct	1.43128443811656
277608	1	stim110_inanimate_clothing_jeans_2.png	110	inanimate	clothing	jeans	2	0	4	boats	3	correct	1.43128443811656
277808	1	stim119_inanimate_clothing_socks_3.png	119	inanimate	clothing	socks	3	0	4	boats	3	correct	1.43128443811656
278008	1	stim125_inanimate_fruits_banana_1.png	125	inanimate	fruits	banana	1	0	4	boats	3	correct	1.43128443811656
278208	1	stim104_inanimate_clothing_gloves_4.png	104	inanimate	clothing	gloves	4	0	4	boats	3	correct	1.43128443811656
278408	1	stim042_animate_human_baby_2.png	42	animate	human	baby	2	0	4	boats	3	correct	1.43128443811656
278608	1	stim182_inanimate_tools_broom_2.png	182	inanimate	tools	broom	2	0	4	boats	3	correct	1.43128443811656
278808	1	stim081_animate_mammal_cow_1.png	81	animate	mammal	cow	1	0	4	boats	3	correct	1.43128443811656
279008	1	stim118_inanimate_clothing_socks_2.png	118	inanimate	clothing	socks	2	0	4	boats	3	correct	1.43128443811656
279208	1	stim113_inanimate_clothing_shirt_1.png	113	inanimate	clothing	shirt	1	0	4	boats	3	correct	1.43128443811656
279408	1	stim160_inanimate_furniture_table_4.png	160	inanimate	furniture	table	4	0	4	boats	3	correct	1.43128443811656
279608	1	stim014_animate_aquatic_shark_2.png	14	animate	aquatic	shark	2	0	4	boats	3	correct	1.43128443811656
279808	1	stim047_animate_human_child_3.png	47	animate	human	child	3	0	4	boats	3	correct	1.43128443811656
280008	1	stim064_animate_insect_ant_4.png	64	animate	insect	ant	4	0	4	boats	3	correct	1.43128443811656
280208	1	stim135_inanimate_fruits_pineapple_3.png	135	inanimate	fruits	pineapple	3	0	4	boats	3	correct	1.43128443811656
280408	1	stim155_inanimate_furniture_sofa_3.png	155	inanimate	furniture	sofa	3	0	4	boats	3	correct	1.43128443811656
280608	1	stim097_animate_mammal_rhino_1.png	97	animate	mammal	rhino	1	0	4	boats	3	correct	1.43128443811656
280808	1	stim184_inanimate_tools_broom_4.png	184	inanimate	tools	broom	4	0	4	boats	3	correct	1.43128443811656
281008	1	stim161_inanimate_plants_bush_1.png	161	inanimate	plants	bush	1	0	4	boats	3	correct	1.43128443811656
281208	1	stim070_animate_insect_butterfly_2.png	70	animate	insect	butterfly	2	0	4	boats	3	correct	1.43128443811656
281408	1	stim126_inanimate_fruits_banana_2.png	126	inanimate	fruits	banana	2	0	4	boats	3	correct	1.43128443811656
281608	1	stim158_inanimate_furniture_table_2.png	158	inanimate	furniture	table	2	0	4	boats	3	correct	1.43128443811656
281808	1	stim023_animate_bird_chicken_3.png	23	animate	bird	chicken	3	0	4	boats	3	correct	1.43128443811656
282008	1	stim187_inanimate_tools_hammer_3.png	187	inanimate	tools	hammer	3	0	4	boats	3	correct	1.43128443811656
282208	1	stim016_animate_aquatic_shark_4.png	16	animate	aquatic	shark	4	0	4	boats	3	correct	1.43128443811656
282408	1	stim052_animate_human_clown_4.png	52	animate	human	clown	4	0	4	boats	3	correct	1.43128443811656
282608	1	stim084_animate_mammal_cow_4.png	84	animate	mammal	cow	4	0	4	boats	3	correct	1.43128443811656
282808	1	stim038_animate_bird_penguin_2.png	38	animate	bird	penguin	2	0	4	boats	3	correct	1.43128443811656
283008	1	stim179_inanimate_plants_tulip_3.png	179	inanimate	plants	tulip	3	0	4	boats	3	correct	1.43128443811656
283208	1	stim208_targets_object_boats_4.png	208	targets	object	boats	4	1	4	boats	3	correct	1.43128443811656
283408	1	stim026_animate_bird_duck_2.png	26	animate	bird	duck	2	0	4	boats	3	correct	1.43128443811656
283608	1	stim121_inanimate_fruits_apple_1.png	121	inanimate	fruits	apple	1	0	4	boats	3	correct	1.43128443811656
283808	1	stim089_animate_mammal_kangaroo_1.png	89	animate	mammal	kangaroo	1	0	4	boats	3	correct	1.43128443811656
284008	1	stim195_inanimate_tools_scissors_3.png	195	inanimate	tools	scissors	3	0	4	boats	3	correct	1.43128443811656
284208	1	stim159_inanimate_furniture_table_3.png	159	inanimate	furniture	table	3	0	4	boats	3	correct	1.43128443811656
284408	1	stim165_inanimate_plants_cactus_1.png	165	inanimate	plants	cactus	1	0	4	boats	3	correct	1.43128443811656
284608	1	stim021_animate_bird_chicken_1.png	21	animate	bird	chicken	1	0	4	boats	3	correct	1.43128443811656
284808	1	stim062_animate_insect_ant_2.png	62	animate	insect	ant	2	0	4	boats	3	correct	1.43128443811656
285008	1	stim174_inanimate_plants_tree_2.png	174	inanimate	plants	tree	2	0	4	boats	3	correct	1.43128443811656
285208	1	stim130_inanimate_fruits_grape_2.png	130	inanimate	fruits	grape	2	0	4	boats	3	correct	1.43128443811656
285408	1	stim036_animate_bird_peacock_4.png	36	animate	bird	peacock	4	0	4	boats	3	correct	1.43128443811656
285608	1	stim035_animate_bird_peacock_3.png	35	animate	bird	peacock	3	0	4	boats	3	correct	1.43128443811656
285808	1	stim072_animate_insect_butterfly_4.png	72	animate	insect	butterfly	4	0	4	boats	3	correct	1.43128443811656
286008	1	stim128_inanimate_fruits_banana_4.png	128	inanimate	fruits	banana	4	0	4	boats	3	correct	1.43128443811656
286208	1	stim152_inanimate_furniture_closet_4.png	152	inanimate	furniture	closet	4	0	4	boats	3	correct	1.43128443811656
286408	1	stim181_inanimate_tools_broom_1.png	181	inanimate	tools	broom	1	0	4	boats	3	correct	1.43128443811656
286608	1	stim030_animate_bird_parrot_2.png	30	animate	bird	parrot	2	0	4	boats	3	correct	1.43128443811656
286808	1	stim056_animate_human_faces_4.png	56	animate	human	faces	4	0	4	boats	3	correct	1.43128443811656
287008	1	stim003_animate_aquatic_crab_3.png	3	animate	aquatic	crab	3	0	4	boats	3	correct	1.43128443811656
287208	1	stim140_inanimate_fruits_strawberry_4.png	140	inanimate	fruits	strawberry	4	0	4	boats	3	correct	1.43128443811656
287408	1	stim045_animate_human_child_1.png	45	animate	human	child	1	0	4	boats	3	correct	1.43128443811656
287608	1	stim033_animate_bird_peacock_1.png	33	animate	bird	peacock	1	0	4	boats	3	correct	1.43128443811656
287808	1	stim142_inanimate_furniture_bed_2.png	142	inanimate	furniture	bed	2	0	4	boats	3	correct	1.43128443811656
288008	1	stim041_animate_human_baby_1.png	41	animate	human	baby	1	0	4	boats	3	correct	1.43128443811656
288208	1	stim002_animate_aquatic_crab_2.png	2	animate	aquatic	crab	2	0	4	boats	3	correct	1.43128443811656
288408	1	stim196_inanimate_tools_scissors_4.png	196	inanimate	tools	scissors	4	0	4	boats	3	correct	1.43128443811656
288608	1	stim008_animate_aquatic_fish_4.png	8	animate	aquatic	fish	4	0	4	boats	3	correct	1.43128443811656
288808	1	stim057_animate_human_sports_1.png	57	animate	human	sports	1	0	4	boats	3	correct	1.43128443811656
289008	1	stim153_inanimate_furniture_sofa_1.png	153	inanimate	furniture	sofa	1	0	4	boats	3	correct	1.43128443811656
289208	1	stim044_animate_human_baby_4.png	44	animate	human	baby	4	0	4	boats	3	correct	1.43128443811656
289408	1	stim131_inanimate_fruits_grape_3.png	131	inanimate	fruits	grape	3	0	4	boats	3	correct	1.43128443811656
289608	1	stim086_animate_mammal_giraffe_2.png	86	animate	mammal	giraffe	2	0	4	boats	3	correct	1.43128443811656
289808	1	stim132_inanimate_fruits_grape_4.png	132	inanimate	fruits	grape	4	0	4	boats	3	correct	1.43128443811656
290008	1	stim207_targets_object_boats_3.png	207	targets	object	boats	3	1	4	boats	3	correct	1.43128443811656
290208	1	stim088_animate_mammal_giraffe_4.png	88	animate	mammal	giraffe	4	0	4	boats	3	correct	1.43128443811656
290408	1	stim077_animate_insect_grasshopper_1.png	77	animate	insect	grasshopper	1	0	4	boats	3	correct	1.43128443811656
290608	1	stim091_animate_mammal_kangaroo_3.png	91	animate	mammal	kangaroo	3	0	4	boats	3	correct	1.43128443811656
290808	1	stim107_inanimate_clothing_hat_3.png	107	inanimate	clothing	hat	3	0	4	boats	3	correct	1.43128443811656
291008	1	stim099_animate_mammal_rhino_3.png	99	animate	mammal	rhino	3	0	4	boats	3	correct	1.43128443811656
291208	1	stim027_animate_bird_duck_3.png	27	animate	bird	duck	3	0	4	boats	3	correct	1.43128443811656
291408	1	stim009_animate_aquatic_seahorse_1.png	9	animate	aquatic	seahorse	1	0	4	boats	3	correct	1.43128443811656
291608	1	stim065_animate_insect_bug_1.png	65	animate	insect	bug	1	0	4	boats	3	correct	1.43128443811656
291808	1	stim012_animate_aquatic_seahorse_4.png	12	animate	aquatic	seahorse	4	0	4	boats	3	correct	1.43128443811656
292008	1	stim096_animate_mammal_monkey_4.png	96	animate	mammal	monkey	4	0	4	boats	3	correct	1.43128443811656
292208	1	stim074_animate_insect_dragonfly_2.png	74	animate	insect	dragonfly	2	0	4	boats	3	correct	1.43128443811656
292408	1	stim075_animate_insect_dragonfly_3.png	75	animate	insect	dragonfly	3	0	4	boats	3	correct	1.43128443811656
292608	1	stim076_animate_insect_dragonfly_4.png	76	animate	insect	dragonfly	4	0	4	boats	3	correct	1.43128443811656
292808	1	stim114_inanimate_clothing_shirt_2.png	114	inanimate	clothing	shirt	2	0	4	boats	3	correct	1.43128443811656
293008	1	stim190_inanimate_tools_pan_2.png	190	inanimate	tools	pan	2	0	4	boats	3	correct	1.43128443811656
293208	1	stim123_inanimate_fruits_apple_3.png	123	inanimate	fruits	apple	3	0	4	boats	3	correct	1.43128443811656
293408	1	stim172_inanimate_plants_sunflower_4.png	172	inanimate	plants	sunflower	4	0	4	boats	3	correct	1.43128443811656
293608	1	stim028_animate_bird_duck_4.png	28	animate	bird	duck	4	0	4	boats	3	correct	1.43128443811656
293808	1	stim068_animate_insect_bug_4.png	68	animate	insect	bug	4	0	4	boats	3	correct	1.43128443811656
294008	1	stim122_inanimate_fruits_apple_2.png	122	inanimate	fruits	apple	2	0	4	boats	3	correct	1.43128443811656
294208	1	stim100_animate_mammal_rhino_4.png	100	animate	mammal	rhino	4	0	4	boats	3	correct	1.43128443811656
294408	1	stim163_inanimate_plants_bush_3.png	163	inanimate	plants	bush	3	0	4	boats	3	correct	1.43128443811656
294608	1	stim049_animate_human_clown_1.png	49	animate	human	clown	1	0	4	boats	3	correct	1.43128443811656
294808	1	stim169_inanimate_plants_sunflower_1.png	169	inanimate	plants	sunflower	1	0	4	boats	3	correct	1.43128443811656
295008	1	stim040_animate_bird_penguin_4.png	40	animate	bird	penguin	4	0	4	boats	3	correct	1.43128443811656
295208	1	stim141_inanimate_furniture_bed_1.png	141	inanimate	furniture	bed	1	0	4	boats	3	correct	1.43128443811656
295408	1	stim177_inanimate_plants_tulip_1.png	177	inanimate	plants	tulip	1	0	4	boats	3	correct	1.43128443811656
295608	1	stim037_animate_bird_penguin_1.png	37	animate	bird	penguin	1	0	4	boats	3	correct	1.43128443811656
295808	1	stim067_animate_insect_bug_3.png	67	animate	insect	bug	3	0	4	boats	3	correct	1.43128443811656
296008	1	stim029_animate_bird_parrot_1.png	29	animate	bird	parrot	1	0	4	boats	3	correct	1.43128443811656
296208	1	stim105_inanimate_clothing_hat_1.png	105	inanimate	clothing	hat	1	0	4	boats	3	correct	1.43128443811656
296408	1	stim180_inanimate_plants_tulip_4.png	180	inanimate	plants	tulip	4	0	4	boats	3	correct	1.43128443811656
296608	1	stim167_inanimate_plants_cactus_3.png	167	inanimate	plants	cactus	3	0	4	boats	3	correct	1.43128443811656
296808	1	stim069_animate_insect_butterfly_1.png	69	animate	insect	butterfly	1	0	4	boats	3	correct	1.43128443811656
297008	1	stim019_animate_aquatic_shrimp_3.png	19	animate	aquatic	shrimp	3	0	4	boats	3	correct	1.43128443811656
297208	1	stim034_animate_bird_peacock_2.png	34	animate	bird	peacock	2	0	4	boats	3	correct	1.43128443811656
297408	1	stim157_inanimate_furniture_table_1.png	157	inanimate	furniture	table	1	0	4	boats	3	correct	1.43128443811656
297608	1	stim078_animate_insect_grasshopper_2.png	78	animate	insect	grasshopper	2	0	4	boats	3	correct	1.43128443811656
297808	1	stim103_inanimate_clothing_gloves_3.png	103	inanimate	clothing	gloves	3	0	4	boats	3	correct	1.43128443811656
298008	1	stim017_animate_aquatic_shrimp_1.png	17	animate	aquatic	shrimp	1	0	4	boats	3	correct	1.43128443811656
298208	1	stim048_animate_human_child_4.png	48	animate	human	child	4	0	4	boats	3	correct	1.43128443811656
298408	1	stim144_inanimate_furniture_bed_4.png	144	inanimate	furniture	bed	4	0	4	boats	3	correct	1.43128443811656
298608	1	stim133_inanimate_fruits_pineapple_1.png	133	inanimate	fruits	pineapple	1	0	4	boats	3	correct	1.43128443811656
298808	1	stim050_animate_human_clown_2.png	50	animate	human	clown	2	0	4	boats	3	correct	1.43128443811656
299008	1	stim109_inanimate_clothing_jeans_1.png	109	inanimate	clothing	jeans	1	0	4	boats	3	correct	1.43128443811656
299208	1	stim191_inanimate_tools_pan_3.png	191	inanimate	tools	pan	3	0	4	boats	3	correct	1.43128443811656
299408	1	stim039_animate_bird_penguin_3.png	39	animate	bird	penguin	3	0	4	boats	3	correct	1.43128443811656
299608	1	stim117_inanimate_clothing_socks_1.png	117	inanimate	clothing	socks	1	0	4	boats	3	correct	1.43128443811656
299808	1	stim054_animate_human_faces_2.png	54	animate	human	faces	2	0	4	boats	3	correct	1.43128443811656
300008	1	stim055_animate_human_faces_3.png	55	animate	human	faces	3	0	4	boats	3	correct	1.43128443811656
300208	1	stim083_animate_mammal_cow_3.png	83	animate	mammal	cow	3	0	4	boats	3	correct	1.43128443811656
300408	1	stim178_inanimate_plants_tulip_2.png	178	inanimate	plants	tulip	2	0	4	boats	3	correct	1.43128443811656
300608	1	stim193_inanimate_tools_scissors_1.png	193	inanimate	tools	scissors	1	0	4	boats	3	correct	1.43128443811656
300808	1	stim024_animate_bird_chicken_4.png	24	animate	bird	chicken	4	0	4	boats	3	correct	1.43128443811656
301008	1	stim058_animate_human_sports_2.png	58	animate	human	sports	2	0	4	boats	3	correct	1.43128443811656
301208	1	stim079_animate_insect_grasshopper_3.png	79	animate	insect	grasshopper	3	0	4	boats	3	correct	1.43128443811656
301408	1	stim200_inanimate_tools_wrench_4.png	200	inanimate	tools	wrench	4	0	4	boats	3	correct	1.43128443811656
301608	1	stim173_inanimate_plants_tree_1.png	173	inanimate	plants	tree	1	0	4	boats	3	correct	1.43128443811656
301808	1	stim032_animate_bird_parrot_4.png	32	animate	bird	parrot	4	0	4	boats	3	correct	1.43128443811656
302008	1	stim087_animate_mammal_giraffe_3.png	87	animate	mammal	giraffe	3	0	4	boats	3	correct	1.43128443811656
307275	1	stim168_inanimate_plants_cactus_4.png	168	inanimate	plants	cactus	4	0	5	stars	2	correct	1.23823593949783
307475	1	stim127_inanimate_fruits_banana_3.png	127	inanimate	fruits	banana	3	0	5	stars	2	correct	1.23823593949783
307675	1	stim186_inanimate_tools_hammer_2.png	186	inanimate	tools	hammer	2	0	5	stars	2	correct	1.23823593949783
307875	1	stim173_inanimate_plants_tree_1.png	173	inanimate	plants	tree	1	0	5	stars	2	correct	1.23823593949783
308075	1	stim194_inanimate_tools_scissors_2.png	194	inanimate	tools	scissors	2	0	5	stars	2	correct	1.23823593949783
308275	1	stim166_inanimate_plants_cactus_2.png	166	inanimate	plants	cactus	2	0	5	stars	2	correct	1.23823593949783
308475	1	stim193_inanimate_tools_scissors_1.png	193	inanimate	tools	scissors	1	0	5	stars	2	correct	1.23823593949783
308675	1	stim130_inanimate_fruits_grape_2.png	130	inanimate	fruits	grape	2	0	5	stars	2	correct	1.23823593949783
308875	1	stim019_animate_aquatic_shrimp_3.png	19	animate	aquatic	shrimp	3	0	5	stars	2	correct	1.23823593949783
309075	1	stim106_inanimate_clothing_hat_2.png	106	inanimate	clothing	hat	2	0	5	stars	2	correct	1.23823593949783
309275	1	stim038_animate_bird_penguin_2.png	38	animate	bird	penguin	2	0	5	stars	2	correct	1.23823593949783
309475	1	stim020_animate_aquatic_shrimp_4.png	20	animate	aquatic	shrimp	4	0	5	stars	2	correct	1.23823593949783
309675	1	stim031_animate_bird_parrot_3.png	31	animate	bird	parrot	3	0	5	stars	2	correct	1.23823593949783
309875	1	stim112_inanimate_clothing_jeans_4.png	112	inanimate	clothing	jeans	4	0	5	stars	2	correct	1.23823593949783
310075	1	stim021_animate_bird_chicken_1.png	21	animate	bird	chicken	1	0	5	stars	2	correct	1.23823593949783
310275	1	stim135_inanimate_fruits_pineapple_3.png	135	inanimate	fruits	pineapple	3	0	5	stars	2	correct	1.23823593949783
310475	1	stim152_inanimate_furniture_closet_4.png	152	inanimate	furniture	closet	4	0	5	stars	2	correct	1.23823593949783
310675	1	stim187_inanimate_tools_hammer_3.png	187	inanimate	tools	hammer	3	0	5	stars	2	correct	1.23823593949783
310875	1	stim175_inanimate_plants_tree_3.png	175	inanimate	plants	tree	3	0	5	stars	2	correct	1.23823593949783
311075	1	stim043_animate_human_baby_3.png	43	animate	human	baby	3	0	5	stars	2	correct	1.23823593949783
311275	1	stim148_inanimate_furniture_chair_4.png	148	inanimate	furniture	chair	4	0	5	stars	2	correct	1.23823593949783
311475	1	stim058_animate_human_sports_2.png	58	animate	human	sports	2	0	5	stars	2	correct	1.23823593949783
311675	1	stim018_animate_aquatic_shrimp_2.png	18	animate	aquatic	shrimp	2	0	5	stars	2	correct	1.23823593949783
311875	1	stim092_animate_mammal_kangaroo_4.png	92	animate	mammal	kangaroo	4	0	5	stars	2	correct	1.23823593949783
312075	1	stim013_animate_aquatic_shark_1.png	13	animate	aquatic	shark	1	0	5	stars	2	correct	1.23823593949783
312275	1	stim140_inanimate_fruits_strawberry_4.png	140	inanimate	fruits	strawberry	4	0	5	stars	2	correct	1.23823593949783
312475	1	stim078_animate_insect_grasshopper_2.png	78	animate	insect	grasshopper	2	0	5	stars	2	correct	1.23823593949783
312675	1	stim075_animate_insect_dragonfly_3.png	75	animate	insect	dragonfly	3	0	5	stars	2	correct	1.23823593949783
312875	1	stim015_animate_aquatic_shark_3.png	15	animate	aquatic	shark	3	0	5	stars	2	correct	1.23823593949783
313075	1	stim179_inanimate_plants_tulip_3.png	179	inanimate	plants	tulip	3	0	5	stars	2	correct	1.23823593949783
313275	1	stim084_animate_mammal_cow_4.png	84	animate	mammal	cow	4	0	5	stars	2	correct	1.23823593949783
313475	1	stim002_animate_aquatic_crab_2.png	2	animate	aquatic	crab	2	0	5	stars	2	correct	1.23823593949783
313675	1	stim065_animate_insect_bug_1.png	65	animate	insect	bug	1	0	5	stars	2	correct	1.23823593949783
313875	1	stim022_animate_bird_chicken_2.png	22	animate	bird	chicken	2	0	5	stars	2	correct	1.23823593949783
314075	1	stim066_animate_insect_bug_2.png	66	animate	insect	bug	2	0	5	stars	2	correct	1.23823593949783
314275	1	stim129_inanimate_fruits_grape_1.png	129	inanimate	fruits	grape	1	0	5	stars	2	correct	1.23823593949783
314475	1	stim069_animate_insect_butterfly_1.png	69	animate	insect	butterfly	1	0	5	stars	2	correct	1.23823593949783
314675	1	stim051_animate_human_clown_3.png	51	animate	human	clown	3	0	5	stars	2	correct	1.23823593949783
314875	1	stim131_inanimate_fruits_grape_3.png	131	inanimate	fruits	grape	3	0	5	stars	2	correct	1.23823593949783
315075	1	stim107_inanimate_clothing_hat_3.png	107	inanimate	clothing	hat	3	0	5	stars	2	correct	1.23823593949783
315275	1	stim171_inanimate_plants_sunflower_3.png	171	inanimate	plants	sunflower	3	0	5	stars	2	correct	1.23823593949783
315475	1	stim095_animate_mammal_monkey_3.png	95	animate	mammal	monkey	3	0	5	stars	2	correct	1.23823593949783
315675	1	stim042_animate_human_baby_2.png	42	animate	human	baby	2	0	5	stars	2	correct	1.23823593949783
315875	1	stim073_animate_insect_dragonfly_1.png	73	animate	insect	dragonfly	1	0	5	stars	2	correct	1.23823593949783
316075	1	stim167_inanimate_plants_cactus_3.png	167	inanimate	plants	cactus	3	0	5	stars	2	correct	1.23823593949783
316275	1	stim138_inanimate_fruits_strawberry_2.png	138	inanimate	fruits	strawberry	2	0	5	stars	2	correct	1.23823593949783
316475	1	stim104_inanimate_clothing_gloves_4.png	104	inanimate	clothing	gloves	4	0	5	stars	2	correct	1.23823593949783
316675	1	stim041_animate_human_baby_1.png	41	animate	human	baby	1	0	5	stars	2	correct	1.23823593949783
316875	1	stim164_inanimate_plants_bush_4.png	164	inanimate	plants	bush	4	0	5	stars	2	correct	1.23823593949783
317075	1	stim154_inanimate_furniture_sofa_2.png	154	inanimate	furniture	sofa	2	0	5	stars	2	correct	1.23823593949783
317275	1	stim028_animate_bird_duck_4.png	28	animate	bird	duck	4	0	5	stars	2	correct	1.23823593949783
317475	1	stim136_inanimate_fruits_pineapple_4.png	136	inanimate	fruits	pineapple	4	0	5	stars	2	correct	1.23823593949783
317675	1	stim122_inanimate_fruits_apple_2.png	122	inanimate	fruits	apple	2	0	5	stars	2	correct	1.23823593949783
317875	1	stim098_animate_mammal_rhino_2.png	98	animate	mammal	rhino	2	0	5	stars	2	correct	1.23823593949783
318075	1	stim045_animate_human_child_1.png	45	animate	human	child	1	0	5	stars	2	correct	1.23823593949783
318275	1	stim170_inanimate_plants_sunflower_2.png	170	inanimate	plants	sunflower	2	0	5	stars	2	correct	1.23823593949783
318475	1	stim014_animate_aquatic_shark_2.png	14	animate	aquatic	shark	2	0	5	stars	2	correct	1.23823593949783
318675	1	stim050_animate_human_clown_2.png	50	animate	human	clown	2	0	5	stars	2	correct	1.23823593949783
318875	1	stim144_inanimate_furniture_bed_4.png	144	inanimate	furniture	bed	4	0	5	stars	2	correct	1.23823593949783
319075	1	stim192_inanimate_tools_pan_4.png	192	inanimate	tools	pan	4	0	5	stars	2	correct	1.23823593949783
319275	1	stim036_animate_bird_peacock_4.png	36	animate	bird	peacock	4	0	5	stars	2	correct	1.23823593949783
319475	1	stim113_inanimate_clothing_shirt_1.png	113	inanimate	clothing	shirt	1	0	5	stars	2	correct	1.23823593949783
319675	1	stim071_animate_insect_butterfly_3.png	71	animate	insect	butterfly	3	0	5	stars	2	correct	1.23823593949783
319875	1	stim089_animate_mammal_kangaroo_1.png	89	animate	mammal	kangaroo	1	0	5	stars	2	correct	1.23823593949783
320075	1	stim009_animate_aquatic_seahorse_1.png	9	animate	aquatic	seahorse	1	0	5	stars	2	correct	1.23823593949783
320275	1	stim185_inanimate_tools_hammer_1.png	185	inanimate	tools	hammer	1	0	5	stars	2	correct	1.23823593949783
320475	1	stim150_inanimate_furniture_closet_2.png	150	inanimate	furniture	closet	2	0	5	stars	2	correct	1.23823593949783
320675	1	stim111_inanimate_clothing_jeans_3.png	111	inanimate	clothing	jeans	3	0	5	stars	2	correct	1.23823593949783
320875	1	stim005_animate_aquatic_fish_1.png	5	animate	aquatic	fish	1	0	5	stars	2	correct	1.23823593949783
321075	1	stim067_animate_insect_bug_3.png	67	animate	insect	bug	3	0	5	stars	2	correct	1.23823593949783
321275	1	stim155_inanimate_furniture_sofa_3.png	155	inanimate	furniture	sofa	3	0	5	stars	2	correct	1.23823593949783
321475	1	stim109_inanimate_clothing_jeans_1.png	109	inanimate	clothing	jeans	1	0	5	stars	2	correct	1.23823593949783
321675	1	stim024_animate_bird_chicken_4.png	24	animate	bird	chicken	4	0	5	stars	2	correct	1.23823593949783
321875	1	stim190_inanimate_tools_pan_2.png	190	inanimate	tools	pan	2	0	5	stars	2	correct	1.23823593949783
322075	1	stim183_inanimate_tools_broom_3.png	183	inanimate	tools	broom	3	0	5	stars	2	correct	1.23823593949783
322275	1	stim143_inanimate_furniture_bed_3.png	143	inanimate	furniture	bed	3	0	5	stars	2	correct	1.23823593949783
322475	1	stim023_animate_bird_chicken_3.png	23	animate	bird	chicken	3	0	5	stars	2	correct	1.23823593949783
322675	1	stim149_inanimate_furniture_closet_1.png	149	inanimate	furniture	closet	1	0	5	stars	2	correct	1.23823593949783
322875	1	stim139_inanimate_fruits_strawberry_3.png	139	inanimate	fruits	strawberry	3	0	5	stars	2	correct	1.23823593949783
323075	1	stim162_inanimate_plants_bush_2.png	162	inanimate	plants	bush	2	0	5	stars	2	correct	1.23823593949783
